trial_number	block	onset	onset_delay	onset_unadjusted	amount_change	certain_amount	current_amount	duration	mood_target	multiplier	outcome	outcome1_amount	outcome2_amount	question_duration	rating	response	rpe	rt	rt_time	slider_response	trial_phase	trial_type
	0	-44.643	0.022	28.039				-0.001								2.0		8.525	-36.118		Welcome	
	0	-36.096	0.022	36.586				5.0													LifeHappyPreview	
	0	-31.064	0.032	41.618				4.864												692.0	LifeHappiness	
	0	-20.967	0.027	51.715				4.0													BlockHappyPreview	
	0	-16.952	0.015	55.73				2.674												700.0	BlockStartHappiness	
	0	-5.889	0.022	66.793				-0.001								5.0					ScanWait	
	1	0.025	0.025	72.707				10.0													GetReady	
1.0	1	10.055	0.03	82.737	8.67	4.34	11.0838	3.0	955.0	3.16	Outcome1	8.67	9.7	0.0	No	2.0	-1.03482446206116	1.311	11.366		GetAnswer	Gain
1.0	1	11.388	0.022	84.07	8.67	4.34	11.0838	4.0	955.0	3.16	Outcome1	8.67	9.7	0.0	No		-1.03482446206116				ShowChoice	Gain
1.0	1	15.403	0.015	88.085	8.67	4.34	11.0838	1.0	955.0	3.16	Outcome1	8.67	9.7	0.0	No		-1.03482446206116				ShowResult	Gain
1.0	1	16.419	0.016	89.101	8.67	4.34	11.0838	2.431	955.0	3.16	Outcome1	8.67	9.7	0.0	No		-1.03482446206116				ISITrial	Gain
2.0	1	18.869	0.019	91.551	10.1	2.74	12.3463	3.0	955.0	4.2	Outcome2	5.48	10.1	0.0	No	2.0	4.62061155152888	1.16	20.029		GetAnswer	Gain
2.0	1	20.052	0.023	92.734	10.1	2.74	12.3463	4.0	955.0	4.2	Outcome2	5.48	10.1	0.0	No		4.62061155152888				ShowChoice	Gain
2.0	1	24.067	0.015	96.749	10.1	2.74	12.3463	1.0	955.0	4.2	Outcome2	5.48	10.1	0.0	No		4.62061155152888				ShowResult	Gain
2.0	1	25.083	0.016	97.765	10.1	2.74	12.3463	4.568	955.0	4.2	Outcome2	5.48	10.1	0.0	No		4.62061155152888				ISITrial	Gain
3.0	1	29.682	0.031	102.364	12.5	3.8	13.9088	3.0	955.0	1.68	Outcome2	7.59	12.5	2868.0	Yes	2.0	4.9093997734994295	1.359	31.041		GetAnswer	Loss
3.0	1	31.064	0.023	103.746	12.5	3.8	13.9088	4.0	955.0	1.68	Outcome2	7.59	12.5	2868.0	Yes		4.9093997734994295				ShowChoice	Loss
3.0	1	35.08	0.016	107.762	12.5	3.8	13.9088	1.0	955.0	1.68	Outcome2	7.59	12.5	2868.0	Yes		4.9093997734994295				ShowResult	Loss
3.0	1	36.096	0.016	108.778	12.5	3.8	13.9088	3.243	955.0	1.68	Outcome2	7.59	12.5	2868.0	Yes		4.9093997734994295				ISITrial	Loss
3.0	1	42.244	0.015	114.926	12.5	3.8	13.9088	1.422	955.0	1.68	Outcome2	7.59	12.5	2868.0	Yes		4.9093997734994295			688.0	TrialHappiness	Loss
3.0	1	46.259	4.015	118.941	12.5	3.8	13.9088	3.472	955.0	1.68	Outcome2	7.59	12.5	2868.0	Yes		4.9093997734994295				ISIRate	Loss
4.0	1	49.758	0.027	122.44	0.7	-2.0	13.9963	3.0	955.0	0.3	Outcome1	0.7	-4.7	0.0	No	2.0	5.40203850509626	1.394	51.152		GetAnswer	Mixed
4.0	1	51.174	0.022	123.856	0.7	-2.0	13.9963	4.0	955.0	0.3	Outcome1	0.7	-4.7	0.0	No		5.40203850509626				ShowChoice	Mixed
4.0	1	55.189	0.015	127.871	0.7	-2.0	13.9963	1.0	955.0	0.3	Outcome1	0.7	-4.7	0.0	No		5.40203850509626				ShowResult	Mixed
4.0	1	56.206	0.017	128.888	0.7	-2.0	13.9963	2.011	955.0	0.3	Outcome1	0.7	-4.7	0.0	No		5.40203850509626				ISITrial	Mixed
5.0	1	58.238	0.021	130.92	1.0	1.0	14.1213	3.0	955.0	2.0	Certain	-1.4	4.3	2582.5	Yes	4.0	5.7044167610419	1.84	60.078		GetAnswer	Mixed
5.0	1	60.104	0.026	132.786	1.0	1.0	14.1213	4.0	955.0	2.0	Certain	-1.4	4.3	2582.5	Yes		5.7044167610419				ShowChoice	Mixed
5.0	1	64.12	0.016	136.802	1.0	1.0	14.1213	1.0	955.0	2.0	Certain	-1.4	4.3	2582.5	Yes		5.7044167610419				ShowResult	Mixed
5.0	1	65.136	0.016	137.818	1.0	1.0	14.1213	5.129	955.0	2.0	Certain	-1.4	4.3	2582.5	Yes		5.7044167610419				ISITrial	Mixed
5.0	1	72.883	0.017	145.565	1.0	1.0	14.1213	1.789	955.0	2.0	Certain	-1.4	4.3	2582.5	Yes		5.7044167610419			700.0	TrialHappiness	Mixed
5.0	1	76.898	4.015	149.58	1.0	1.0	14.1213	2.33	955.0	2.0	Certain	-1.4	4.3	2582.5	Yes		5.7044167610419				ISIRate	Mixed
6.0	1	79.248	0.02	151.93	-4.0	-4.0	13.6213	3.0	955.0	0.4	Certain	-1.1	-6.9	0.0	No	4.0	5.802944507361269	2.316	81.564		GetAnswer	Mixed
6.0	1	81.58	0.016	154.262	-4.0	-4.0	13.6213	4.0	955.0	0.4	Certain	-1.1	-6.9	0.0	No		5.802944507361269				ShowChoice	Mixed
6.0	1	85.595	0.015	158.277	-4.0	-4.0	13.6213	1.0	955.0	0.4	Certain	-1.1	-6.9	0.0	No		5.802944507361269				ShowResult	Mixed
6.0	1	86.612	0.017	159.294	-4.0	-4.0	13.6213	6.232	955.0	0.4	Certain	-1.1	-6.9	0.0	No		5.802944507361269				ISITrial	Mixed
7.0	1	92.859	0.015	165.541	2.3	0.0	13.9088	3.0	955.0	2.0	Outcome2	-3.79	2.3	0.0	No	2.0	6.09173272933182	1.331	94.19		GetAnswer	Mixed
7.0	1	94.209	0.019	166.891	2.3	0.0	13.9088	4.0	955.0	2.0	Outcome2	-3.79	2.3	0.0	No		6.09173272933182				ShowChoice	Mixed
7.0	1	98.224	0.015	170.906	2.3	0.0	13.9088	1.0	955.0	2.0	Outcome2	-3.79	2.3	0.0	No		6.09173272933182				ShowResult	Mixed
7.0	1	99.241	0.017	171.923	2.3	0.0	13.9088	2.305	955.0	2.0	Outcome2	-3.79	2.3	0.0	No		6.09173272933182				ISITrial	Mixed
8.0	1	101.573	0.027	174.255	-3.0	-3.0	13.5338	3.0	955.0	0.82	Certain	-6.88	-0.5	3112.5	Yes	4.0	6.38052095130238	1.734	103.307		GetAnswer	Mixed
8.0	1	103.323	0.016	176.005	-3.0	-3.0	13.5338	4.0	955.0	0.82	Certain	-6.88	-0.5	3112.5	Yes		6.38052095130238				ShowChoice	Mixed
8.0	1	107.338	0.015	180.02	-3.0	-3.0	13.5338	1.0	955.0	0.82	Certain	-6.88	-0.5	3112.5	Yes		6.38052095130238				ShowResult	Mixed
8.0	1	108.354	0.016	181.036	-3.0	-3.0	13.5338	3.506	955.0	0.82	Certain	-6.88	-0.5	3112.5	Yes		6.38052095130238				ISITrial	Mixed
8.0	1	115.018	0.02	187.7	-3.0	-3.0	13.5338	3.59	955.0	0.82	Certain	-6.88	-0.5	3112.5	Yes		6.38052095130238			676.0	TrialHappiness	Mixed
8.0	1	119.034	4.016	191.716	-3.0	-3.0	13.5338	4.45	955.0	0.82	Certain	-6.88	-0.5	3112.5	Yes		6.38052095130238				ISIRate	Mixed
9.0	1	123.515	0.031	196.197	13.7	3.31	15.2463	3.0	955.0	3.16	Outcome1	13.7	6.62	0.0	No	2.0	7.077010192525481	1.756	125.271		GetAnswer	Loss
9.0	1	125.298	0.027	197.98	13.7	3.31	15.2463	4.0	955.0	3.16	Outcome1	13.7	6.62	0.0	No		7.077010192525481				ShowChoice	Loss
9.0	1	129.313	0.015	201.995	13.7	3.31	15.2463	1.0	955.0	3.16	Outcome1	13.7	6.62	0.0	No		7.077010192525481				ShowResult	Loss
9.0	1	130.33	0.017	203.012	13.7	3.31	15.2463	2.0	955.0	3.16	Outcome1	13.7	6.62	0.0	No		7.077010192525481				ISITrial	Loss
10.0	1	132.346	0.016	205.028	0.9	-3.0	15.3588	3.0	955.0	0.4	Outcome1	0.9	-6.49	4000.0	Yes	2.0	7.39297848244621	1.401	133.747		GetAnswer	Mixed
10.0	1	133.762	0.015	206.444	0.9	-3.0	15.3588	4.0	955.0	0.4	Outcome1	0.9	-6.49	4000.0	Yes		7.39297848244621				ShowChoice	Mixed
10.0	1	137.777	0.015	210.459	0.9	-3.0	15.3588	1.0	955.0	0.4	Outcome1	0.9	-6.49	4000.0	Yes		7.39297848244621				ShowResult	Mixed
10.0	1	138.793	0.016	211.475	0.9	-3.0	15.3588	2.0	955.0	0.4	Outcome1	0.9	-6.49	4000.0	Yes		7.39297848244621				ISITrial	Mixed
10.0	1	144.825	0.016	217.507	0.9	-3.0	15.3588	2.639	955.0	0.4	Outcome1	0.9	-6.49	4000.0	Yes		7.39297848244621			696.0	TrialHappiness	Mixed
10.0	1	148.84	4.015	221.522	0.9	-3.0	15.3588	8.0	955.0	0.4	Outcome1	0.9	-6.49	4000.0	Yes		7.39297848244621				ISIRate	Mixed
11.0	1	156.87	0.03	229.552	10.4	5.2	16.6588	3.0	955.0	3.16	Outcome2	11.7	10.4	0.0	No	2.0	-1.29850887127218	1.022	157.892		GetAnswer	Loss
11.0	1	157.903	0.011	230.585	10.4	5.2	16.6588	4.0	955.0	3.16	Outcome2	11.7	10.4	0.0	No		-1.29850887127218				ShowChoice	Loss
11.0	1	161.919	0.016	234.601	10.4	5.2	16.6588	1.0	955.0	3.16	Outcome2	11.7	10.4	0.0	No		-1.29850887127218				ShowResult	Loss
11.0	1	162.935	0.016	235.617	10.4	5.2	16.6588	3.324	955.0	3.16	Outcome2	11.7	10.4	0.0	No		-1.29850887127218				ISITrial	Loss
12.0	1	166.284	0.025	238.966	3.38	1.69	17.0813	3.0	955.0	1.82	Outcome2	4.7	3.38	2618.75	Yes	2.0	-1.3229520573801399	1.047	167.331		GetAnswer	Gain
12.0	1	167.35	0.019	240.032	3.38	1.69	17.0813	4.0	955.0	1.82	Outcome2	4.7	3.38	2618.75	Yes		-1.3229520573801399				ShowChoice	Gain
12.0	1	171.365	0.015	244.047	3.38	1.69	17.0813	1.0	955.0	1.82	Outcome2	4.7	3.38	2618.75	Yes		-1.3229520573801399				ShowResult	Gain
12.0	1	172.382	0.017	245.064	3.38	1.69	17.0813	6.642	955.0	1.82	Outcome2	4.7	3.38	2618.75	Yes		-1.3229520573801399				ISITrial	Gain
12.0	1	181.695	0.03	254.377	3.38	1.69	17.0813	1.005	955.0	1.82	Outcome2	4.7	3.38	2618.75	Yes		-1.3229520573801399			696.0	TrialHappiness	Gain
12.0	1	185.71	4.015	258.392	3.38	1.69	17.0813	2.475	955.0	1.82	Outcome2	4.7	3.38	2618.75	Yes		-1.3229520573801399				ISIRate	Gain
13.0	1	188.21	0.025	260.892	1.0	1.0	17.2063	3.0	955.0	2.22	Certain	5.1	-2.86	0.0	No	4.0	7.95583238958097	2.138	190.348		GetAnswer	Gain
13.0	1	190.375	0.027	263.057	1.0	1.0	17.2063	4.0	955.0	2.22	Certain	5.1	-2.86	0.0	No		7.95583238958097				ShowChoice	Gain
13.0	1	194.391	0.016	267.073	1.0	1.0	17.2063	1.0	955.0	2.22	Certain	5.1	-2.86	0.0	No		7.95583238958097				ShowResult	Gain
13.0	1	195.407	0.016	268.089	1.0	1.0	17.2063	3.48	955.0	2.22	Certain	5.1	-2.86	0.0	No		7.95583238958097				ISITrial	Gain
14.0	1	198.906	0.019	271.588	1.53	2.0	17.3975	3.0	955.0	0.4	Outcome2	2.9	1.53	0.0	No	2.0	-1.37183842959607	1.284	200.19		GetAnswer	Mixed
14.0	1	200.205	0.015	272.887	1.53	2.0	17.3975	4.0	955.0	0.4	Outcome2	2.9	1.53	0.0	No		-1.37183842959607				ShowChoice	Mixed
14.0	1	204.221	0.016	276.903	1.53	2.0	17.3975	1.0	955.0	0.4	Outcome2	2.9	1.53	0.0	No		-1.37183842959607				ShowResult	Mixed
14.0	1	205.237	0.016	277.919	1.53	2.0	17.3975	5.019	955.0	0.4	Outcome2	2.9	1.53	0.0	No		-1.37183842959607				ISITrial	Mixed
15.0	1	210.285	0.029	282.967	8.5	-0.02	18.46	3.0	955.0	1.68	Outcome2	-0.04	8.5	3348.5	Yes	2.0	8.542468856172139	1.747	212.032		GetAnswer	Gain
15.0	1	212.051	0.019	284.733	8.5	-0.02	18.46	4.0	955.0	1.68	Outcome2	-0.04	8.5	3348.5	Yes		8.542468856172139				ShowChoice	Gain
15.0	1	216.067	0.016	288.749	8.5	-0.02	18.46	1.0	955.0	1.68	Outcome2	-0.04	8.5	3348.5	Yes		8.542468856172139				ShowResult	Gain
15.0	1	217.083	0.016	289.765	8.5	-0.02	18.46	7.614	955.0	1.68	Outcome2	-0.04	8.5	3348.5	Yes		8.542468856172139				ISITrial	Gain
15.0	1	228.079	0.018	300.761	8.5	-0.02	18.46	3.898	955.0	1.68	Outcome2	-0.04	8.5	3348.5	Yes		8.542468856172139			680.0	TrialHappiness	Gain
15.0	1	232.094	4.015	304.776	8.5	-0.02	18.46	5.394	955.0	1.68	Outcome2	-0.04	8.5	3348.5	Yes		8.542468856172139				ISIRate	Gain
16.0	1	237.509	0.021	310.191	2.0	2.0	18.71	3.0	955.0	2.0	Certain	-2.21	6.9	0.0	No	4.0	9.10758776896942	2.151	239.66		GetAnswer	Gain
16.0	1	239.675	0.015	312.357	2.0	2.0	18.71	4.0	955.0	2.0	Certain	-2.21	6.9	0.0	No		9.10758776896942				ShowChoice	Gain
16.0	1	243.69	0.015	316.372	2.0	2.0	18.71	1.0	955.0	2.0	Certain	-2.21	6.9	0.0	No		9.10758776896942				ShowResult	Gain
16.0	1	244.707	0.017	317.389	2.0	2.0	18.71	3.008	955.0	2.0	Certain	-2.21	6.9	0.0	No		9.10758776896942				ISITrial	Gain
17.0	1	247.739	0.024	320.421	0.0	0.0	18.71	3.0	955.0	1.5	Certain	4.1	-5.32	3041.5	Yes	4.0	9.419026047565119	1.278	249.017		GetAnswer	Mixed
17.0	1	249.038	0.021	321.72	0.0	0.0	18.71	4.0	955.0	1.5	Certain	4.1	-5.32	3041.5	Yes		9.419026047565119				ShowChoice	Mixed
17.0	1	253.054	0.016	325.736	0.0	0.0	18.71	1.0	955.0	1.5	Certain	4.1	-5.32	3041.5	Yes		9.419026047565119				ShowResult	Mixed
17.0	1	254.07	0.016	326.752	0.0	0.0	18.71	3.566	955.0	1.5	Certain	4.1	-5.32	3041.5	Yes		9.419026047565119				ISITrial	Mixed
17.0	1	260.718	0.024	333.4	0.0	0.0	18.71	3.567	955.0	1.5	Certain	4.1	-5.32	3041.5	Yes		9.419026047565119			756.0	TrialHappiness	Mixed
17.0	1	264.75	4.032	337.432	0.0	0.0	18.71	4.166	955.0	1.5	Certain	4.1	-5.32	3041.5	Yes		9.419026047565119				ISIRate	Mixed
18.0	1	268.948	0.032	341.63	6.07	3.04	19.4688	3.0	955.0	2.48	Outcome1	6.07	7.3	0.0	No	2.0	-1.2291430728576798	2.562	271.51		GetAnswer	Gain
18.0	1	271.53	0.02	344.212	6.07	3.04	19.4688	4.0	955.0	2.48	Outcome1	6.07	7.3	0.0	No		-1.2291430728576798				ShowChoice	Gain
18.0	1	275.546	0.016	348.228	6.07	3.04	19.4688	1.0	955.0	2.48	Outcome1	6.07	7.3	0.0	No		-1.2291430728576798				ShowResult	Gain
18.0	1	276.562	0.016	349.244	6.07	3.04	19.4688	6.787	955.0	2.48	Outcome1	6.07	7.3	0.0	No		-1.2291430728576798				ISITrial	Gain
19.0	1	283.376	0.027	356.058	-1.3	-5.0	19.3063	3.0	955.0	0.3	Outcome1	-1.3	-9.96	0.0	No	2.0	8.6647791619479	1.296	284.672		GetAnswer	Mixed
19.0	1	284.693	0.021	357.375	-1.3	-5.0	19.3063	4.0	955.0	0.3	Outcome1	-1.3	-9.96	0.0	No		8.6647791619479				ShowChoice	Mixed
19.0	1	288.708	0.015	361.39	-1.3	-5.0	19.3063	1.0	955.0	0.3	Outcome1	-1.3	-9.96	0.0	No		8.6647791619479				ShowResult	Mixed
19.0	1	289.724	0.016	362.406	-1.3	-5.0	19.3063	2.0	955.0	0.3	Outcome1	-1.3	-9.96	0.0	No		8.6647791619479				ISITrial	Mixed
20.0	1	291.74	0.016	364.422	8.1	-0.4	20.3188	3.0	955.0	4.2	Outcome1	8.1	-0.79	2921.25	Yes	2.0	8.890147225368061	1.75	293.49		GetAnswer	Gain
20.0	1	293.506	0.016	366.188	8.1	-0.4	20.3188	4.0	955.0	4.2	Outcome1	8.1	-0.79	2921.25	Yes		8.890147225368061				ShowChoice	Gain
20.0	1	297.521	0.015	370.203	8.1	-0.4	20.3188	1.0	955.0	4.2	Outcome1	8.1	-0.79	2921.25	Yes		8.890147225368061				ShowResult	Gain
20.0	1	298.538	0.017	371.22	8.1	-0.4	20.3188	8.0	955.0	4.2	Outcome1	8.1	-0.79	2921.25	Yes		8.890147225368061				ISITrial	Gain
20.0	1	309.501	0.028	382.183	8.1	-0.4	20.3188	3.455	955.0	4.2	Outcome1	8.1	-0.79	2921.25	Yes	2{-2}2{-2}2{-2}2{-2}2{-2}2{-2}2{-2}2{-2}2{-2}	8.890147225368061	3.455	312.956	712.0	TrialHappiness	Gain
20.0	1	313.516	4.015	386.198	8.1	-0.4	20.3188	3.685	955.0	4.2	Outcome1	8.1	-0.79	2921.25	Yes		8.890147225368061				ISIRate	Gain
21.0	1	317.231	0.03	389.913	1.04	2.0	20.4488	3.0	955.0	0.2	Outcome2	2.5	1.04	0.0	No	2.0	-1.46404303510759	1.27	318.501		GetAnswer	Mixed
21.0	1	318.514	0.013	391.196	1.04	2.0	20.4488	4.0	955.0	0.2	Outcome2	2.5	1.04	0.0	No		-1.46404303510759				ShowChoice	Mixed
21.0	1	322.529	0.015	395.211	1.04	2.0	20.4488	1.0	955.0	0.2	Outcome2	2.5	1.04	0.0	No		-1.46404303510759				ShowResult	Mixed
21.0	1	323.546	0.017	396.228	1.04	2.0	20.4488	3.555	955.0	0.2	Outcome2	2.5	1.04	0.0	No		-1.46404303510759				ISITrial	Mixed
22.0	1	327.128	0.027	399.81	12.7	1.28	22.0363	3.0	955.0	1.82	Outcome1	12.7	2.56	3219.5	Yes	2.0	10.1381653454134	1.236	328.364		GetAnswer	Loss
22.0	1	328.377	0.013	401.059	12.7	1.28	22.0363	4.0	955.0	1.82	Outcome1	12.7	2.56	3219.5	Yes		10.1381653454134				ShowChoice	Loss
22.0	1	332.393	0.016	405.075	12.7	1.28	22.0363	1.0	955.0	1.82	Outcome1	12.7	2.56	3219.5	Yes		10.1381653454134				ShowResult	Loss
22.0	1	333.409	0.016	406.091	12.7	1.28	22.0363	6.793	955.0	1.82	Outcome1	12.7	2.56	3219.5	Yes		10.1381653454134				ISITrial	Loss
22.0	1	343.472	0.029	416.154	12.7	1.28	22.0363	3.689	955.0	1.82	Outcome1	12.7	2.56	3219.5	Yes		10.1381653454134			632.0	TrialHappiness	Loss
22.0	1	347.487	4.015	420.169	12.7	1.28	22.0363	4.878	955.0	1.82	Outcome1	12.7	2.56	3219.5	Yes		10.1381653454134				ISIRate	Loss
23.0	1	352.386	0.021	425.068	10.5	-0.64	23.3488	3.0	955.0	1.68	Outcome2	-1.27	10.5	0.0	No	2.0	11.7723669309173	1.166	353.552		GetAnswer	Loss
23.0	1	353.569	0.017	426.251	10.5	-0.64	23.3488	4.0	955.0	1.68	Outcome2	-1.27	10.5	0.0	No		11.7723669309173				ShowChoice	Loss
23.0	1	357.584	0.015	430.266	10.5	-0.64	23.3488	1.0	955.0	1.68	Outcome2	-1.27	10.5	0.0	No		11.7723669309173				ShowResult	Loss
23.0	1	358.6	0.016	431.282	10.5	-0.64	23.3488	8.0	955.0	1.68	Outcome2	-1.27	10.5	0.0	No		11.7723669309173				ISITrial	Loss
24.0	1	366.631	0.031	439.313	1.64	2.0	23.5538	3.0	955.0	0.82	Outcome1	1.64	3.5	3255.0	Yes	2.0	-1.86504341260853	1.059	367.69		GetAnswer	Mixed
24.0	1	367.714	0.024	440.396	1.64	2.0	23.5538	4.0	955.0	0.82	Outcome1	1.64	3.5	3255.0	Yes		-1.86504341260853				ShowChoice	Mixed
24.0	1	371.729	0.015	444.411	1.64	2.0	23.5538	1.0	955.0	0.82	Outcome1	1.64	3.5	3255.0	Yes		-1.86504341260853				ShowResult	Mixed
24.0	1	372.745	0.016	445.427	1.64	2.0	23.5538	2.0	955.0	0.82	Outcome1	1.64	3.5	3255.0	Yes		-1.86504341260853				ISITrial	Mixed
24.0	1	378.043	0.027	450.725	1.64	2.0	23.5538	3.556	955.0	0.82	Outcome1	1.64	3.5	3255.0	Yes		-1.86504341260853			656.0	TrialHappiness	Mixed
24.0	1	382.059	4.016	454.741	1.64	2.0	23.5538	5.02	955.0	0.82	Outcome1	1.64	3.5	3255.0	Yes		-1.86504341260853				ISIRate	Mixed
25.0	1	387.107	0.028	459.789	8.1	4.05	24.5663	3.0	955.0	3.6	Outcome2	9.9	8.1	0.0	No	2.0	-1.7981313703284298	1.092	388.199		GetAnswer	Gain
25.0	1	388.223	0.024	460.905	8.1	4.05	24.5663	4.0	955.0	3.6	Outcome2	9.9	8.1	0.0	No		-1.7981313703284298				ShowChoice	Gain
25.0	1	392.238	0.015	464.92	8.1	4.05	24.5663	1.0	955.0	3.6	Outcome2	9.9	8.1	0.0	No		-1.7981313703284298				ShowResult	Gain
25.0	1	393.255	0.017	465.937	8.1	4.05	24.5663	3.749	955.0	3.6	Outcome2	9.9	8.1	0.0	No		-1.7981313703284298				ISITrial	Gain
26.0	1	397.02	0.016	469.702	11.9	-0.26	26.0538	3.0	955.0	3.6	Outcome1	11.9	-0.53	0.0	No	2.0	12.4348810872027	1.149	398.169		GetAnswer	Loss
26.0	1	398.186	0.017	470.868	11.9	-0.26	26.0538	4.0	955.0	3.6	Outcome1	11.9	-0.53	0.0	No		12.4348810872027				ShowChoice	Loss
26.0	1	402.202	0.016	474.884	11.9	-0.26	26.0538	1.0	955.0	3.6	Outcome1	11.9	-0.53	0.0	No		12.4348810872027				ShowResult	Loss
26.0	1	403.218	0.016	475.9	11.9	-0.26	26.0538	7.834	955.0	3.6	Outcome1	11.9	-0.53	0.0	No		12.4348810872027				ISITrial	Loss
27.0	1	411.082	0.03	483.764	-1.5	-8.0	25.8663	3.0	955.0	0.2	Outcome1	-1.5	-14.27	2549.75	Yes	2.0	12.7734994337486	1.215	412.297		GetAnswer	Mixed
27.0	1	412.315	0.018	484.997	-1.5	-8.0	25.8663	4.0	955.0	0.2	Outcome1	-1.5	-14.27	2549.75	Yes		12.7734994337486				ShowChoice	Mixed
27.0	1	416.33	0.015	489.012	-1.5	-8.0	25.8663	1.0	955.0	0.2	Outcome1	-1.5	-14.27	2549.75	Yes		12.7734994337486				ShowResult	Mixed
27.0	1	417.346	0.016	490.028	-1.5	-8.0	25.8663	4.225	955.0	0.2	Outcome1	-1.5	-14.27	2549.75	Yes		12.7734994337486				ISITrial	Mixed
27.0	1	424.161	0.016	496.843	-1.5	-8.0	25.8663	3.503	955.0	0.2	Outcome1	-1.5	-14.27	2549.75	Yes		12.7734994337486			664.0	TrialHappiness	Mixed
27.0	1	428.176	4.015	500.858	-1.5	-8.0	25.8663	2.199	955.0	0.2	Outcome1	-1.5	-14.27	2549.75	Yes		12.7734994337486				ISIRate	Mixed
	1	430.392	0.017	503.074				-0.001								1		55.299	485.691		Rest	
	1	485.706	0.015	558.388				4.0													BlockHappyPreview	
	1	489.721	0.015	562.403				2.523												680.0	BlockStartHappiness	
	1	521.643	0.012	594.325				-0.001								5.0		3.077	524.72		ScanWait	
	2	0.021	0.021	597.424				10.0													GetReady	
28.0	2	10.034	0.013	607.437	1.98	0.0	26.1138	3.0	70.0	3.6	Outcome1	1.98	-0.5	0.0	No	2.0	2.47826908541194	1.418	11.452		GetAnswer	Gain
28.0	2	11.467	0.015	608.87	1.98	0.0	26.1138	4.0	70.0	3.6	Outcome1	1.98	-0.5	0.0	No		2.47826908541194				ShowChoice	Gain
28.0	2	15.482	0.015	612.885	1.98	0.0	26.1138	1.0	70.0	3.6	Outcome1	1.98	-0.5	0.0	No		2.47826908541194				ShowResult	Gain
28.0	2	16.499	0.017	613.902	1.98	0.0	26.1138	3.575	70.0	3.6	Outcome1	1.98	-0.5	0.0	No		2.47826908541194				ISITrial	Gain
29.0	2	20.097	0.023	617.5	-9.17	-3.0	24.9676	3.0	70.0	1.2	Outcome2	1.9	-9.17	3529.0	Yes	2.0	-11.065759637188199	1.232	21.329		GetAnswer	Mixed
29.0	2	21.347	0.018	618.75	-9.17	-3.0	24.9676	4.0	70.0	1.2	Outcome2	1.9	-9.17	3529.0	Yes		-11.065759637188199				ShowChoice	Mixed
29.0	2	25.362	0.015	622.765	-9.17	-3.0	24.9676	1.0	70.0	1.2	Outcome2	1.9	-9.17	3529.0	Yes		-11.065759637188199				ShowResult	Mixed
29.0	2	26.379	0.017	623.782	-9.17	-3.0	24.9676	3.955	70.0	1.2	Outcome2	1.9	-9.17	3529.0	Yes		-11.065759637188199				ISITrial	Mixed
29.0	2	33.909	0.019	631.312	-9.17	-3.0	24.9676	3.972	70.0	1.2	Outcome2	1.9	-9.17	3529.0	Yes		-11.065759637188199			588.0	TrialHappiness	Mixed
29.0	2	37.925	4.016	635.328	-9.17	-3.0	24.9676	6.116	70.0	1.2	Outcome2	1.9	-9.17	3529.0	Yes		-11.065759637188199				ISIRate	Mixed
30.0	2	44.056	0.015	641.459	1.11	0.56	25.1064	3.0	70.0	2.48	Outcome2	11.3	1.11	0.0	No	2.0	-10.1927437641723	1.1	45.156		GetAnswer	Loss
30.0	2	45.172	0.016	642.575	1.11	0.56	25.1064	4.0	70.0	2.48	Outcome2	11.3	1.11	0.0	No		-10.1927437641723				ShowChoice	Loss
30.0	2	49.187	0.015	646.59	1.11	0.56	25.1064	1.0	70.0	2.48	Outcome2	11.3	1.11	0.0	No		-10.1927437641723				ShowResult	Loss
30.0	2	50.204	0.017	647.607	1.11	0.56	25.1064	4.453	70.0	2.48	Outcome2	11.3	1.11	0.0	No		-10.1927437641723				ISITrial	Loss
31.0	2	54.685	0.028	652.088	1.0	1.0	25.2314	3.0	70.0	5.0	Certain	6.3	-4.48	2503.25	Yes	4.0	-10.780045351473902	1.768	56.453		GetAnswer	Gain
31.0	2	56.468	0.015	653.871	1.0	1.0	25.2314	4.0	70.0	5.0	Certain	6.3	-4.48	2503.25	Yes		-10.780045351473902				ShowChoice	Gain
31.0	2	60.483	0.015	657.886	1.0	1.0	25.2314	1.0	70.0	5.0	Certain	6.3	-4.48	2503.25	Yes		-10.780045351473902				ShowResult	Gain
31.0	2	61.5	0.017	658.903	1.0	1.0	25.2314	4.786	70.0	5.0	Certain	6.3	-4.48	2503.25	Yes		-10.780045351473902				ISITrial	Gain
31.0	2	68.83	0.029	666.233	1.0	1.0	25.2314	3.757	70.0	5.0	Certain	6.3	-4.48	2503.25	Yes		-10.780045351473902			608.0	TrialHappiness	Gain
31.0	2	72.846	4.016	670.249	1.0	1.0	25.2314	2.013	70.0	5.0	Certain	6.3	-4.48	2503.25	Yes		-10.780045351473902				ISIRate	Gain
32.0	2	74.878	0.019	672.281	-4.21	1.0	24.7052	3.0	70.0	2.8	Outcome1	-4.21	7.5	0.0	No	2.0	-11.707482993197301	2.162	77.04		GetAnswer	Gain
32.0	2	77.061	0.021	674.464	-4.21	1.0	24.7052	4.0	70.0	2.8	Outcome1	-4.21	7.5	0.0	No		-11.707482993197301				ShowChoice	Gain
32.0	2	81.076	0.015	678.479	-4.21	1.0	24.7052	1.0	70.0	2.8	Outcome1	-4.21	7.5	0.0	No		-11.707482993197301				ShowResult	Gain
32.0	2	82.093	0.017	679.496	-4.21	1.0	24.7052	2.0	70.0	2.8	Outcome1	-4.21	7.5	0.0	No		-11.707482993197301				ISITrial	Gain
33.0	2	84.125	0.032	681.528	-2.02	-1.01	24.4527	3.0	70.0	5.0	Outcome2	10.3	-2.02	0.0	No	2.0	-12.3174603174603	1.218	85.343		GetAnswer	Gain
33.0	2	85.358	0.015	682.761	-2.02	-1.01	24.4527	4.0	70.0	5.0	Outcome2	10.3	-2.02	0.0	No		-12.3174603174603				ShowChoice	Gain
33.0	2	89.373	0.015	686.776	-2.02	-1.01	24.4527	1.0	70.0	5.0	Outcome2	10.3	-2.02	0.0	No		-12.3174603174603				ShowResult	Gain
33.0	2	90.39	0.017	687.793	-2.02	-1.01	24.4527	5.099	70.0	5.0	Outcome2	10.3	-2.02	0.0	No		-12.3174603174603				ISITrial	Gain
34.0	2	95.505	0.016	692.908	-5.83	0.0	23.7239	3.0	70.0	2.22	Outcome2	7.1	-5.83	3231.5	Yes	2.0	-12.927437641723401	1.603	97.108		GetAnswer	Gain
34.0	2	97.121	0.013	694.524	-5.83	0.0	23.7239	4.0	70.0	2.22	Outcome2	7.1	-5.83	3231.5	Yes		-12.927437641723401				ShowChoice	Gain
34.0	2	101.136	0.015	698.539	-5.83	0.0	23.7239	1.0	70.0	2.22	Outcome2	7.1	-5.83	3231.5	Yes		-12.927437641723401				ShowResult	Gain
34.0	2	102.152	0.016	699.555	-5.83	0.0	23.7239	4.784	70.0	2.22	Outcome2	7.1	-5.83	3231.5	Yes		-12.927437641723401				ISITrial	Gain
34.0	2	110.199	0.016	707.602	-5.83	0.0	23.7239	2.24	70.0	2.22	Outcome2	7.1	-5.83	3231.5	Yes		-12.927437641723401			552.0	TrialHappiness	Gain
34.0	2	114.215	4.016	711.618	-5.83	0.0	23.7239	4.926	70.0	2.22	Outcome2	7.1	-5.83	3231.5	Yes		-12.927437641723401				ISIRate	Gain
35.0	2	119.163	0.022	716.566	-3.48	-1.74	23.2889	3.0	70.0	2.22	Outcome1	-3.48	9.1	0.0	No	2.0	-12.585034013605402	2.524	121.687		GetAnswer	Gain
35.0	2	121.712	0.025	719.115	-3.48	-1.74	23.2889	4.0	70.0	2.22	Outcome1	-3.48	9.1	0.0	No		-12.585034013605402				ShowChoice	Gain
35.0	2	125.727	0.015	723.13	-3.48	-1.74	23.2889	1.0	70.0	2.22	Outcome1	-3.48	9.1	0.0	No		-12.585034013605402				ShowResult	Gain
35.0	2	126.744	0.017	724.147	-3.48	-1.74	23.2889	2.098	70.0	2.22	Outcome1	-3.48	9.1	0.0	No		-12.585034013605402				ISITrial	Gain
36.0	2	128.86	0.018	726.263	-7.63	-1.0	22.3351	3.0	70.0	2.8	Outcome2	5.5	-7.63	3335.75	Yes	2.0	-13.1315192743764	0.962	129.822		GetAnswer	Gain
36.0	2	129.843	0.021	727.246	-7.63	-1.0	22.3351	4.0	70.0	2.8	Outcome2	5.5	-7.63	3335.75	Yes		-13.1315192743764				ShowChoice	Gain
36.0	2	133.858	0.015	731.261	-7.63	-1.0	22.3351	1.0	70.0	2.8	Outcome2	5.5	-7.63	3335.75	Yes		-13.1315192743764				ShowResult	Gain
36.0	2	134.874	0.016	732.277	-7.63	-1.0	22.3351	5.156	70.0	2.8	Outcome2	5.5	-7.63	3335.75	Yes		-13.1315192743764				ISITrial	Gain
36.0	2	143.421	0.029	740.824	-7.63	-1.0	22.3351	0.923	70.0	2.8	Outcome2	5.5	-7.63	3335.75	Yes		-13.1315192743764			560.0	TrialHappiness	Gain
36.0	2	147.436	4.015	744.839	-7.63	-1.0	22.3351	5.343	70.0	2.8	Outcome2	5.5	-7.63	3335.75	Yes		-13.1315192743764				ISIRate	Gain
37.0	2	152.801	0.022	750.204	-8.11	-1.0	21.3213	3.0	70.0	3.16	Outcome2	5.7	-8.11	0.0	No	2.0	-13.8140589569161	0.939	153.74		GetAnswer	Gain
37.0	2	153.768	0.028	751.171	-8.11	-1.0	21.3213	4.0	70.0	3.16	Outcome2	5.7	-8.11	0.0	No		-13.8140589569161				ShowChoice	Gain
37.0	2	157.783	0.015	755.186	-8.11	-1.0	21.3213	1.0	70.0	3.16	Outcome2	5.7	-8.11	0.0	No		-13.8140589569161				ShowResult	Gain
37.0	2	158.799	0.016	756.202	-8.11	-1.0	21.3213	3.598	70.0	3.16	Outcome2	5.7	-8.11	0.0	No		-13.8140589569161				ISITrial	Gain
38.0	2	162.414	0.017	759.817	0.0	0.0	21.3213	3.0	70.0	1.0	Certain	0.92	-1.57	0.0	No	4.0	2.4937641723356	1.109	163.523		GetAnswer	Mixed
38.0	2	163.547	0.024	760.95	0.0	0.0	21.3213	4.0	70.0	1.0	Certain	0.92	-1.57	0.0	No		2.4937641723356				ShowChoice	Mixed
38.0	2	167.563	0.016	764.966	0.0	0.0	21.3213	1.0	70.0	1.0	Certain	0.92	-1.57	0.0	No		2.4937641723356				ShowResult	Mixed
38.0	2	168.579	0.016	765.982	0.0	0.0	21.3213	4.787	70.0	1.0	Certain	0.92	-1.57	0.0	No		2.4937641723356				ISITrial	Mixed
39.0	2	173.394	0.028	770.797	-13.23	-6.0	19.6675	3.0	70.0	1.0	Outcome1	-13.23	1.7	2864.25	Yes	2.0	-14.925170068027198	1.033	174.427		GetAnswer	Mixed
39.0	2	174.444	0.017	771.847	-13.23	-6.0	19.6675	4.0	70.0	1.0	Outcome1	-13.23	1.7	2864.25	Yes		-14.925170068027198				ShowChoice	Mixed
39.0	2	178.459	0.015	775.862	-13.23	-6.0	19.6675	1.0	70.0	1.0	Outcome1	-13.23	1.7	2864.25	Yes		-14.925170068027198				ShowResult	Mixed
39.0	2	179.475	0.016	776.878	-13.23	-6.0	19.6675	2.348	70.0	1.0	Outcome1	-13.23	1.7	2864.25	Yes		-14.925170068027198				ISITrial	Mixed
39.0	2	184.723	0.018	782.126	-13.23	-6.0	19.6675	0.0	70.0	1.0	Outcome1	-13.23	1.7	2864.25	Yes		-14.925170068027198			512.0	TrialHappiness	Mixed
39.0	2	188.739	4.016	786.142	-13.23	-6.0	19.6675	3.457	70.0	1.0	Outcome1	-13.23	1.7	2864.25	Yes		-14.925170068027198				ISIRate	Mixed
40.0	2	192.221	0.025	789.624	3.02	2.0	20.045	3.0	70.0	4.2	Outcome2	0.63	3.02	0.0	No	2.0	2.39134542705971	1.256	193.477		GetAnswer	Loss
40.0	2	193.504	0.027	790.907	3.02	2.0	20.045	4.0	70.0	4.2	Outcome2	0.63	3.02	0.0	No		2.39134542705971				ShowChoice	Loss
40.0	2	197.519	0.015	794.922	3.02	2.0	20.045	1.0	70.0	4.2	Outcome2	0.63	3.02	0.0	No		2.39134542705971				ShowResult	Loss
40.0	2	198.535	0.016	795.938	3.02	2.0	20.045	3.158	70.0	4.2	Outcome2	0.63	3.02	0.0	No		2.39134542705971				ISITrial	Loss
41.0	2	201.717	0.024	799.12	1.52	0.0	20.235	3.0	70.0	4.2	Outcome2	-0.91	1.52	4000.0	Yes	2.0	2.4331065759637203	2.512	204.229		GetAnswer	Gain
41.0	2	204.25	0.021	801.653	1.52	0.0	20.235	4.0	70.0	4.2	Outcome2	-0.91	1.52	4000.0	Yes		2.4331065759637203				ShowChoice	Gain
41.0	2	208.265	0.015	805.668	1.52	0.0	20.235	1.0	70.0	4.2	Outcome2	-0.91	1.52	4000.0	Yes		2.4331065759637203				ShowResult	Gain
41.0	2	209.281	0.016	806.684	1.52	0.0	20.235	4.506	70.0	4.2	Outcome2	-0.91	1.52	4000.0	Yes		2.4331065759637203				ISITrial	Gain
41.0	2	217.845	0.032	815.248	1.52	0.0	20.235	3.919	70.0	4.2	Outcome2	-0.91	1.52	4000.0	Yes		2.4331065759637203			512.0	TrialHappiness	Gain
41.0	2	221.86	4.015	819.263	1.52	0.0	20.235	8.0	70.0	4.2	Outcome2	-0.91	1.52	4000.0	Yes		2.4331065759637203				ISIRate	Gain
42.0	2	229.891	0.031	827.294	-12.97	-5.0	18.6138	3.0	70.0	0.3	Outcome2	2.7	-12.97	0.0	No	2.0	-15.666666666666698	1.443	231.334		GetAnswer	Mixed
42.0	2	231.357	0.023	828.76	-12.97	-5.0	18.6138	4.0	70.0	0.3	Outcome2	2.7	-12.97	0.0	No		-15.666666666666698				ShowChoice	Mixed
42.0	2	235.372	0.015	832.775	-12.97	-5.0	18.6138	1.0	70.0	0.3	Outcome2	2.7	-12.97	0.0	No		-15.666666666666698				ShowResult	Mixed
42.0	2	236.389	0.017	833.792	-12.97	-5.0	18.6138	6.248	70.0	0.3	Outcome2	2.7	-12.97	0.0	No		-15.666666666666698				ISITrial	Mixed
43.0	2	242.67	0.033	840.073	0.52	0.0	18.6788	3.0	70.0	1.5	Outcome2	-2.0	0.52	2775.75	Yes	2.0	2.51662887377173	1.528	244.198		GetAnswer	Mixed
43.0	2	244.219	0.021	841.622	0.52	0.0	18.6788	4.0	70.0	1.5	Outcome2	-2.0	0.52	2775.75	Yes		2.51662887377173				ShowChoice	Mixed
43.0	2	248.235	0.016	845.638	0.52	0.0	18.6788	1.0	70.0	1.5	Outcome2	-2.0	0.52	2775.75	Yes		2.51662887377173				ShowResult	Mixed
43.0	2	249.251	0.016	846.654	0.52	0.0	18.6788	4.596	70.0	1.5	Outcome2	-2.0	0.52	2775.75	Yes		2.51662887377173				ISITrial	Mixed
43.0	2	256.665	0.023	854.068	0.52	0.0	18.6788	3.444	70.0	1.5	Outcome2	-2.0	0.52	2775.75	Yes		2.51662887377173			532.0	TrialHappiness	Mixed
43.0	2	260.68	4.015	858.083	0.52	0.0	18.6788	3.103	70.0	1.5	Outcome2	-2.0	0.52	2775.75	Yes		2.51662887377173				ISIRate	Mixed
44.0	2	263.812	0.029	861.215	-16.71	-8.0	16.59	3.0	70.0	2.0	Outcome2	0.3	-16.71	0.0	No	2.0	-17.0090702947846	1.164	264.976		GetAnswer	Mixed
44.0	2	264.995	0.019	862.398	-16.71	-8.0	16.59	4.0	70.0	2.0	Outcome2	0.3	-16.71	0.0	No		-17.0090702947846				ShowChoice	Mixed
44.0	2	269.011	0.016	866.414	-16.71	-8.0	16.59	1.0	70.0	2.0	Outcome2	0.3	-16.71	0.0	No		-17.0090702947846				ShowResult	Mixed
44.0	2	270.027	0.016	867.43	-16.71	-8.0	16.59	2.42	70.0	2.0	Outcome2	0.3	-16.71	0.0	No		-17.0090702947846				ISITrial	Mixed
45.0	2	272.476	0.029	869.879	-8.03	0.0	15.5862	3.0	70.0	2.8	Outcome2	9.5	-8.03	0.0	No	2.0	-17.5328798185941	2.436	274.912		GetAnswer	Gain
45.0	2	274.942	0.03	872.345	-8.03	0.0	15.5862	4.0	70.0	2.8	Outcome2	9.5	-8.03	0.0	No		-17.5328798185941				ShowChoice	Gain
45.0	2	278.957	0.015	876.36	-8.03	0.0	15.5862	1.0	70.0	2.8	Outcome2	9.5	-8.03	0.0	No		-17.5328798185941				ShowResult	Gain
45.0	2	279.973	0.016	877.376	-8.03	0.0	15.5862	3.144	70.0	2.8	Outcome2	9.5	-8.03	0.0	No		-17.5328798185941				ISITrial	Gain
46.0	2	283.139	0.022	880.542	-18.96	-10.0	13.2162	3.0	70.0	0.52	Outcome2	-0.9	-18.96	3841.25	Yes	2.0	-18.0566893424036	0.885	284.024		GetAnswer	Mixed
46.0	2	284.039	0.015	881.442	-18.96	-10.0	13.2162	4.0	70.0	0.52	Outcome2	-0.9	-18.96	3841.25	Yes		-18.0566893424036				ShowChoice	Mixed
46.0	2	288.054	0.015	885.457	-18.96	-10.0	13.2162	1.0	70.0	0.52	Outcome2	-0.9	-18.96	3841.25	Yes		-18.0566893424036				ShowResult	Mixed
46.0	2	289.07	0.016	886.473	-18.96	-10.0	13.2162	2.246	70.0	0.52	Outcome2	-0.9	-18.96	3841.25	Yes		-18.0566893424036				ISITrial	Mixed
46.0	2	295.202	0.025	892.605	-18.96	-10.0	13.2162	0.0	70.0	0.52	Outcome2	-0.9	-18.96	3841.25	Yes		-18.0566893424036			512.0	TrialHappiness	Mixed
46.0	2	299.217	4.015	896.62	-18.96	-10.0	13.2162	7.365	70.0	0.52	Outcome2	-0.9	-18.96	3841.25	Yes		-18.0566893424036				ISIRate	Mixed
47.0	2	306.614	0.032	904.017	0.38	-1.0	13.2637	3.0	70.0	0.82	Outcome1	0.38	-2.31	0.0	No	2.0	2.6893424036281197	2.336	308.95		GetAnswer	Mixed
47.0	2	308.98	0.03	906.383	0.38	-1.0	13.2637	4.0	70.0	0.82	Outcome1	0.38	-2.31	0.0	No		2.6893424036281197				ShowChoice	Mixed
47.0	2	312.995	0.015	910.398	0.38	-1.0	13.2637	1.0	70.0	0.82	Outcome1	0.38	-2.31	0.0	No		2.6893424036281197				ShowResult	Mixed
47.0	2	314.012	0.017	911.415	0.38	-1.0	13.2637	2.0	70.0	0.82	Outcome1	0.38	-2.31	0.0	No		2.6893424036281197				ISITrial	Mixed
48.0	2	316.044	0.032	913.447	-18.64	-9.0	10.9337	3.0	70.0	1.5	Outcome2	0.1	-18.64	2831.75	Yes	2.0	-18.7414965986395	1.347	317.391		GetAnswer	Mixed
48.0	2	317.41	0.019	914.813	-18.64	-9.0	10.9337	4.0	70.0	1.5	Outcome2	0.1	-18.64	2831.75	Yes		-18.7414965986395				ShowChoice	Mixed
48.0	2	321.426	0.016	918.829	-18.64	-9.0	10.9337	1.0	70.0	1.5	Outcome2	0.1	-18.64	2831.75	Yes		-18.7414965986395				ShowResult	Mixed
48.0	2	322.442	0.016	919.845	-18.64	-9.0	10.9337	3.692	70.0	1.5	Outcome2	0.1	-18.64	2831.75	Yes		-18.7414965986395				ISITrial	Mixed
48.0	2	329.006	0.017	926.409	-18.64	-9.0	10.9337	0.0	70.0	1.5	Outcome2	0.1	-18.64	2831.75	Yes		-18.7414965986395			512.0	TrialHappiness	Mixed
48.0	2	333.022	4.016	930.425	-18.64	-9.0	10.9337	3.327	70.0	1.5	Outcome2	0.1	-18.64	2831.75	Yes		-18.7414965986395				ISIRate	Mixed
49.0	2	336.37	0.021	933.773	3.38	2.0	11.3562	3.0	70.0	2.8	Outcome2	0.61	3.38	0.0	No	2.0	2.77286470143613	2.692	339.062		GetAnswer	Loss
49.0	2	339.086	0.024	936.489	3.38	2.0	11.3562	4.0	70.0	2.8	Outcome2	0.61	3.38	0.0	No		2.77286470143613				ShowChoice	Loss
49.0	2	343.101	0.015	940.504	3.38	2.0	11.3562	1.0	70.0	2.8	Outcome2	0.61	3.38	0.0	No		2.77286470143613				ShowResult	Loss
49.0	2	344.118	0.017	941.521	3.38	2.0	11.3562	8.0	70.0	2.8	Outcome2	0.61	3.38	0.0	No		2.77286470143613				ISITrial	Loss
50.0	2	352.148	0.03	949.551	-7.44	2.0	10.4262	3.0	70.0	5.0	Outcome1	-7.44	12.3	3547.25	Yes	2.0	-19.743764172335602	2.236	354.384		GetAnswer	Loss
50.0	2	354.414	0.03	951.817	-7.44	2.0	10.4262	4.0	70.0	5.0	Outcome1	-7.44	12.3	3547.25	Yes		-19.743764172335602				ShowChoice	Loss
50.0	2	358.429	0.015	955.832	-7.44	2.0	10.4262	1.0	70.0	5.0	Outcome1	-7.44	12.3	3547.25	Yes		-19.743764172335602				ShowResult	Loss
50.0	2	359.446	0.017	956.849	-7.44	2.0	10.4262	7.537	70.0	5.0	Outcome1	-7.44	12.3	3547.25	Yes		-19.743764172335602				ISITrial	Loss
50.0	2	370.575	0.018	967.978	-7.44	2.0	10.4262	2.963	70.0	5.0	Outcome1	-7.44	12.3	3547.25	Yes	2{-2}4{-4}2{-2}	-19.743764172335602	2.963	373.538	520.0	TrialHappiness	Loss
50.0	2	374.59	4.015	971.993	-7.44	2.0	10.4262	6.189	70.0	5.0	Outcome1	-7.44	12.3	3547.25	Yes		-19.743764172335602				ISIRate	Loss
51.0	2	380.805	0.026	978.208	-7.08	-3.54	9.5412	3.0	70.0	2.48	Outcome2	13.3	-7.08	0.0	No	2.0	-20.380952380952397	1.282	382.087		GetAnswer	Loss
51.0	2	382.105	0.018	979.508	-7.08	-3.54	9.5412	4.0	70.0	2.48	Outcome2	13.3	-7.08	0.0	No		-20.380952380952397				ShowChoice	Loss
51.0	2	386.12	0.015	983.523	-7.08	-3.54	9.5412	1.0	70.0	2.48	Outcome2	13.3	-7.08	0.0	No		-20.380952380952397				ShowResult	Loss
51.0	2	387.136	0.016	984.539	-7.08	-3.54	9.5412	5.508	70.0	2.48	Outcome2	13.3	-7.08	0.0	No		-20.380952380952397				ISITrial	Loss
52.0	2	392.668	0.024	990.071	0.0	0.0	9.5412	3.0	70.0	0.52	Certain	-2.15	0.78	0.0	No	4.0	2.93140589569161	1.423	394.091		GetAnswer	Mixed
52.0	2	394.117	0.026	991.52	0.0	0.0	9.5412	4.0	70.0	0.52	Certain	-2.15	0.78	0.0	No		2.93140589569161				ShowChoice	Mixed
52.0	2	398.132	0.015	995.535	0.0	0.0	9.5412	1.0	70.0	0.52	Certain	-2.15	0.78	0.0	No		2.93140589569161				ShowResult	Mixed
52.0	2	399.149	0.017	996.552	0.0	0.0	9.5412	5.913	70.0	0.52	Certain	-2.15	0.78	0.0	No		2.93140589569161				ISITrial	Mixed
53.0	2	405.08	0.018	1002.483	-16.1	-5.0	7.5287	3.0	70.0	2.48	Outcome2	5.3	-16.1	2996.75	Yes	2.0	-21.4013605442177	1.048	406.128		GetAnswer	Gain
53.0	2	406.146	0.018	1003.549	-16.1	-5.0	7.5287	4.0	70.0	2.48	Outcome2	5.3	-16.1	2996.75	Yes		-21.4013605442177				ShowChoice	Gain
53.0	2	410.161	0.015	1007.564	-16.1	-5.0	7.5287	1.0	70.0	2.48	Outcome2	5.3	-16.1	2996.75	Yes		-21.4013605442177				ShowResult	Gain
53.0	2	411.178	0.017	1008.581	-16.1	-5.0	7.5287	3.66	70.0	2.48	Outcome2	5.3	-16.1	2996.75	Yes		-21.4013605442177				ISITrial	Gain
53.0	2	417.875	0.018	1015.278	-16.1	-5.0	7.5287	0.0	70.0	2.48	Outcome2	5.3	-16.1	2996.75	Yes		-21.4013605442177			512.0	TrialHappiness	Gain
53.0	2	421.891	4.016	1019.294	-16.1	-5.0	7.5287	3.987	70.0	2.48	Outcome2	5.3	-16.1	2996.75	Yes		-21.4013605442177				ISIRate	Gain
54.0	2	425.906	0.028	1023.309	3.48	2.0	7.9637	3.0	70.0	3.6	Outcome1	3.48	0.5	0.0	No		2.9839380196523				GetAnswer	Loss
54.0	2	428.922	0.016	1026.325	3.48	2.0	7.9637	4.0	70.0	3.6	Outcome1	3.48	0.5	0.0	No		2.9839380196523				ShowChoice	Loss
54.0	2	432.937	0.015	1030.34	3.48	2.0	7.9637	1.0	70.0	3.6	Outcome1	3.48	0.5	0.0	No		2.9839380196523				ShowResult	Loss
54.0	2	433.953	0.016	1031.356	3.48	2.0	7.9637	8.0	70.0	3.6	Outcome1	3.48	0.5	0.0	No		2.9839380196523				ISITrial	Loss
	2	441.984	0.031	1039.387				-0.001								{SPACE}		60.484	502.468		Rest	
	2	502.496	0.028	1099.899				4.0													BlockHappyPreview	
	2	506.511	0.015	1103.914				3.939												568.0	BlockStartHappiness	
	2	520.14	0.025	1117.543				-0.001								5.0		4.682	524.822		ScanWait	
	3	0.016	0.016	1122.241				10.0													GetReady	
55.0	3	10.046	0.03	1132.271	8.7	1.06	9.0512	3.0	955.0	1.82	Outcome1	8.7	2.13	2533.25	Yes	2.0	6.57417893544734	1.162	11.208		GetAnswer	Gain
55.0	3	11.229	0.021	1133.454	8.7	1.06	9.0512	4.0	955.0	1.82	Outcome1	8.7	2.13	2533.25	Yes		6.57417893544734				ShowChoice	Gain
55.0	3	15.244	0.015	1137.469	8.7	1.06	9.0512	1.0	955.0	1.82	Outcome1	8.7	2.13	2533.25	Yes		6.57417893544734				ShowResult	Gain
55.0	3	16.26	0.016	1138.485	8.7	1.06	9.0512	7.709	955.0	1.82	Outcome1	8.7	2.13	2533.25	Yes		6.57417893544734				ISITrial	Gain
55.0	3	26.54	0.016	1148.765	8.7	1.06	9.0512	3.639	955.0	1.82	Outcome1	8.7	2.13	2533.25	Yes		6.57417893544734			664.0	TrialHappiness	Gain
55.0	3	30.555	4.015	1152.78	8.7	1.06	9.0512	2.133	955.0	1.82	Outcome1	8.7	2.13	2533.25	Yes		6.57417893544734				ISIRate	Gain
56.0	3	32.721	0.033	1154.946	6.48	3.24	9.8612	3.0	955.0	3.16	Outcome1	6.48	7.7	0.0	No	2.0	-1.2174405436013602	2.787	35.508		GetAnswer	Gain
56.0	3	35.537	0.029	1157.762	6.48	3.24	9.8612	4.0	955.0	3.16	Outcome1	6.48	7.7	0.0	No		-1.2174405436013602				ShowChoice	Gain
56.0	3	39.552	0.015	1161.777	6.48	3.24	9.8612	1.0	955.0	3.16	Outcome1	6.48	7.7	0.0	No		-1.2174405436013602				ShowResult	Gain
56.0	3	40.569	0.017	1162.794	6.48	3.24	9.8612	4.697	955.0	3.16	Outcome1	6.48	7.7	0.0	No		-1.2174405436013602				ISITrial	Gain
57.0	3	45.284	0.018	1167.509	4.5	1.0	10.4237	3.0	955.0	1.68	Outcome1	4.5	-1.21	0.0	No	2.0	5.7112117780294405	2.11	47.394		GetAnswer	Gain
57.0	3	47.416	0.022	1169.641	4.5	1.0	10.4237	4.0	955.0	1.68	Outcome1	4.5	-1.21	0.0	No		5.7112117780294405				ShowChoice	Gain
57.0	3	51.431	0.015	1173.656	4.5	1.0	10.4237	1.0	955.0	1.68	Outcome1	4.5	-1.21	0.0	No		5.7112117780294405				ShowResult	Gain
57.0	3	52.448	0.017	1174.673	4.5	1.0	10.4237	4.291	955.0	1.68	Outcome1	4.5	-1.21	0.0	No		5.7112117780294405				ISITrial	Gain
58.0	3	56.763	0.024	1178.988	9.3	1.63	11.5862	3.0	955.0	2.48	Outcome1	9.3	3.26	3045.75	Yes	2.0	6.0407701019252595	1.53	58.293		GetAnswer	Gain
58.0	3	58.312	0.019	1180.537	9.3	1.63	11.5862	4.0	955.0	2.48	Outcome1	9.3	3.26	3045.75	Yes		6.0407701019252595				ShowChoice	Gain
58.0	3	62.328	0.016	1184.553	9.3	1.63	11.5862	1.0	955.0	2.48	Outcome1	9.3	3.26	3045.75	Yes		6.0407701019252595				ShowResult	Gain
58.0	3	63.344	0.016	1185.569	9.3	1.63	11.5862	2.037	955.0	2.48	Outcome1	9.3	3.26	3045.75	Yes		6.0407701019252595				ISITrial	Gain
58.0	3	68.476	0.02	1190.701	9.3	1.63	11.5862	2.457	955.0	2.48	Outcome1	9.3	3.26	3045.75	Yes		6.0407701019252595			588.0	TrialHappiness	Gain
58.0	3	72.491	4.015	1194.716	9.3	1.63	11.5862	4.183	955.0	2.48	Outcome1	9.3	3.26	3045.75	Yes		6.0407701019252595				ISIRate	Gain
59.0	3	76.706	0.032	1198.931	-0.7	-4.0	11.4987	3.0	955.0	0.66	Outcome2	-8.36	-0.7	0.0	No	2.0	7.6613816534541295	2.263	78.969		GetAnswer	Mixed
59.0	3	78.989	0.019	1201.214	-0.7	-4.0	11.4987	4.0	955.0	0.66	Outcome2	-8.36	-0.7	0.0	No		7.6613816534541295				ShowChoice	Mixed
59.0	3	83.004	0.015	1205.229	-0.7	-4.0	11.4987	1.0	955.0	0.66	Outcome2	-8.36	-0.7	0.0	No		7.6613816534541295				ShowResult	Mixed
59.0	3	84.02	0.016	1206.245	-0.7	-4.0	11.4987	5.064	955.0	0.66	Outcome2	-8.36	-0.7	0.0	No		7.6613816534541295				ISITrial	Mixed
60.0	3	89.102	0.018	1211.327	2.26	1.13	11.7812	3.0	955.0	1.2	Outcome2	3.9	2.26	3562.5	Yes	2.0	-1.6428841072102702	1.799	90.901		GetAnswer	Mixed
60.0	3	90.918	0.017	1213.143	2.26	1.13	11.7812	4.0	955.0	1.2	Outcome2	3.9	2.26	3562.5	Yes		-1.6428841072102702				ShowChoice	Mixed
60.0	3	94.933	0.015	1217.158	2.26	1.13	11.7812	1.0	955.0	1.2	Outcome2	3.9	2.26	3562.5	Yes		-1.6428841072102702				ShowResult	Mixed
60.0	3	95.949	0.016	1218.174	2.26	1.13	11.7812	8.0	955.0	1.2	Outcome2	3.9	2.26	3562.5	Yes		-1.6428841072102702				ISITrial	Mixed
60.0	3	107.562	0.02	1229.787	2.26	1.13	11.7812	1.04	955.0	1.2	Outcome2	3.9	2.26	3562.5	Yes		-1.6428841072102702			560.0	TrialHappiness	Mixed
60.0	3	111.577	4.015	1233.802	2.26	1.13	11.7812	6.25	955.0	1.2	Outcome2	3.9	2.26	3562.5	Yes		-1.6428841072102702				ISIRate	Mixed
61.0	3	117.858	0.031	1240.083	13.1	2.06	13.4187	3.0	955.0	2.22	Outcome1	13.1	4.13	0.0	No	2.0	8.968289920724802	1.086	118.944		GetAnswer	Loss
61.0	3	118.975	0.031	1241.2	13.1	2.06	13.4187	4.0	955.0	2.22	Outcome1	13.1	4.13	0.0	No		8.968289920724802				ShowChoice	Loss
61.0	3	122.99	0.015	1245.215	13.1	2.06	13.4187	1.0	955.0	2.22	Outcome1	13.1	4.13	0.0	No		8.968289920724802				ShowResult	Loss
61.0	3	124.006	0.016	1246.231	13.1	2.06	13.4187	4.586	955.0	2.22	Outcome1	13.1	4.13	0.0	No		8.968289920724802				ISITrial	Loss
62.0	3	128.621	0.029	1250.846	6.47	3.24	14.2275	3.0	955.0	5.0	Outcome1	6.47	8.3	3748.75	Yes	2.0	-1.8284258210645499	1.058	129.679		GetAnswer	Gain
62.0	3	129.704	0.025	1251.929	6.47	3.24	14.2275	4.0	955.0	5.0	Outcome1	6.47	8.3	3748.75	Yes		-1.8284258210645499				ShowChoice	Gain
62.0	3	133.719	0.015	1255.944	6.47	3.24	14.2275	1.0	955.0	5.0	Outcome1	6.47	8.3	3748.75	Yes		-1.8284258210645499				ShowResult	Gain
62.0	3	134.736	0.017	1256.961	6.47	3.24	14.2275	5.212	955.0	5.0	Outcome1	6.47	8.3	3748.75	Yes		-1.8284258210645499				ISITrial	Gain
62.0	3	143.749	0.033	1265.974	6.47	3.24	14.2275	1.775	955.0	5.0	Outcome1	6.47	8.3	3748.75	Yes		-1.8284258210645499			588.0	TrialHappiness	Gain
62.0	3	147.765	4.016	1269.99	6.47	3.24	14.2275	6.995	955.0	5.0	Outcome1	6.47	8.3	3748.75	Yes		-1.8284258210645499				ISIRate	Gain
63.0	3	154.795	0.035	1277.02	-0.1	-5.0	14.215	3.0	955.0	1.2	Outcome2	-9.49	-0.1	0.0	No	2.0	9.38731596828992	0.93	155.725		GetAnswer	Mixed
63.0	3	155.745	0.02	1277.97	-0.1	-5.0	14.215	4.0	955.0	1.2	Outcome2	-9.49	-0.1	0.0	No		9.38731596828992				ShowChoice	Mixed
63.0	3	159.76	0.015	1281.985	-0.1	-5.0	14.215	1.0	955.0	1.2	Outcome2	-9.49	-0.1	0.0	No		9.38731596828992				ShowResult	Mixed
63.0	3	160.777	0.017	1283.002	-0.1	-5.0	14.215	5.595	955.0	1.2	Outcome2	-9.49	-0.1	0.0	No		9.38731596828992				ISITrial	Mixed
64.0	3	166.391	0.019	1288.616	11.5	0.85	15.6525	3.0	955.0	2.8	Outcome1	11.5	1.7	0.0	No	2.0	9.80294450736127	1.677	168.068		GetAnswer	Loss
64.0	3	168.091	0.023	1290.316	11.5	0.85	15.6525	4.0	955.0	2.8	Outcome1	11.5	1.7	0.0	No		9.80294450736127				ShowChoice	Loss
64.0	3	172.106	0.015	1294.331	11.5	0.85	15.6525	1.0	955.0	2.8	Outcome1	11.5	1.7	0.0	No		9.80294450736127				ShowResult	Loss
64.0	3	173.122	0.016	1295.347	11.5	0.85	15.6525	5.47	955.0	2.8	Outcome1	11.5	1.7	0.0	No		9.80294450736127				ISITrial	Loss
65.0	3	178.62	0.028	1300.845	1.3	-4.0	15.815	3.0	955.0	0.66	Outcome2	-8.92	1.3	2996.75	Yes	2.0	10.2185730464326	1.193	179.813		GetAnswer	Mixed
65.0	3	179.837	0.024	1302.062	1.3	-4.0	15.815	4.0	955.0	0.66	Outcome2	-8.92	1.3	2996.75	Yes		10.2185730464326				ShowChoice	Mixed
65.0	3	183.852	0.015	1306.077	1.3	-4.0	15.815	1.0	955.0	0.66	Outcome2	-8.92	1.3	2996.75	Yes		10.2185730464326				ShowResult	Mixed
65.0	3	184.868	0.016	1307.093	1.3	-4.0	15.815	3.344	955.0	0.66	Outcome2	-8.92	1.3	2996.75	Yes		10.2185730464326				ISITrial	Mixed
65.0	3	191.249	0.018	1313.474	1.3	-4.0	15.815	1.69	955.0	0.66	Outcome2	-8.92	1.3	2996.75	Yes		10.2185730464326			584.0	TrialHappiness	Mixed
65.0	3	195.265	4.016	1317.49	1.3	-4.0	15.815	3.987	955.0	0.66	Outcome2	-8.92	1.3	2996.75	Yes		10.2185730464326				ISIRate	Mixed
66.0	3	199.28	0.028	1321.505	9.03	4.51	16.9438	3.0	955.0	2.0	Outcome2	10.9	9.03	0.0	No	2.0	-1.87221593053983	2.165	201.445		GetAnswer	Loss
66.0	3	201.462	0.017	1323.687	9.03	4.51	16.9438	4.0	955.0	2.0	Outcome2	10.9	9.03	0.0	No		-1.87221593053983				ShowChoice	Loss
66.0	3	205.478	0.016	1327.703	9.03	4.51	16.9438	1.0	955.0	2.0	Outcome2	10.9	9.03	0.0	No		-1.87221593053983				ShowResult	Loss
66.0	3	206.494	0.016	1328.719	9.03	4.51	16.9438	3.959	955.0	2.0	Outcome2	10.9	9.03	0.0	No		-1.87221593053983				ISITrial	Loss
67.0	3	210.476	0.023	1332.701	-2.21	-1.0	16.6676	3.0	955.0	1.0	Outcome1	-2.21	-0.3	2918.5	Yes	2.0	-1.9072291430728603	2.139	212.615		GetAnswer	Mixed
67.0	3	212.642	0.027	1334.867	-2.21	-1.0	16.6676	4.0	955.0	1.0	Outcome1	-2.21	-0.3	2918.5	Yes		-1.9072291430728603				ShowChoice	Mixed
67.0	3	216.657	0.015	1338.882	-2.21	-1.0	16.6676	1.0	955.0	1.0	Outcome1	-2.21	-0.3	2918.5	Yes		-1.9072291430728603				ShowResult	Mixed
67.0	3	217.673	0.016	1339.898	-2.21	-1.0	16.6676	4.199	955.0	1.0	Outcome1	-2.21	-0.3	2918.5	Yes		-1.9072291430728603				ISITrial	Mixed
67.0	3	224.838	0.031	1347.063	-2.21	-1.0	16.6676	0.923	955.0	1.0	Outcome1	-2.21	-0.3	2918.5	Yes		-1.9072291430728603			552.0	TrialHappiness	Mixed
67.0	3	228.853	4.015	1351.078	-2.21	-1.0	16.6676	3.674	955.0	1.0	Outcome1	-2.21	-0.3	2918.5	Yes		-1.9072291430728603				ISIRate	Mixed
68.0	3	232.552	0.025	1354.777	2.83	1.42	17.0214	3.0	955.0	2.0	Outcome1	2.83	4.9	0.0	No	2.0	-2.0721026802567	1.078	233.63		GetAnswer	Gain
68.0	3	233.651	0.02	1355.876	2.83	1.42	17.0214	4.0	955.0	2.0	Outcome1	2.83	4.9	0.0	No		-2.0721026802567				ShowChoice	Gain
68.0	3	237.666	0.015	1359.891	2.83	1.42	17.0214	1.0	955.0	2.0	Outcome1	2.83	4.9	0.0	No		-2.0721026802567				ShowResult	Gain
68.0	3	238.683	0.017	1360.908	2.83	1.42	17.0214	2.185	955.0	2.0	Outcome1	2.83	4.9	0.0	No		-2.0721026802567				ISITrial	Gain
69.0	3	240.899	0.031	1363.124	0.0	0.0	17.0214	3.0	955.0	3.6	Certain	-6.64	5.9	0.0	No	4.0	12.5424688561721	1.915	242.814		GetAnswer	Gain
69.0	3	242.831	0.017	1365.056	0.0	0.0	17.0214	4.0	955.0	3.6	Certain	-6.64	5.9	0.0	No		12.5424688561721				ShowChoice	Gain
69.0	3	246.847	0.016	1369.072	0.0	0.0	17.0214	1.0	955.0	3.6	Certain	-6.64	5.9	0.0	No		12.5424688561721				ShowResult	Gain
69.0	3	247.863	0.016	1370.088	0.0	0.0	17.0214	2.0	955.0	3.6	Certain	-6.64	5.9	0.0	No		12.5424688561721				ISITrial	Gain
70.0	3	249.896	0.033	1372.121	12.9	-0.05	18.6339	3.0	955.0	2.0	Outcome1	12.9	-0.1	3651.25	Yes	2.0	12.998867497168698	2.509	252.405		GetAnswer	Loss
70.0	3	252.428	0.023	1374.653	12.9	-0.05	18.6339	4.0	955.0	2.0	Outcome1	12.9	-0.1	3651.25	Yes		12.998867497168698				ShowChoice	Loss
70.0	3	256.443	0.015	1378.668	12.9	-0.05	18.6339	1.0	955.0	2.0	Outcome1	12.9	-0.1	3651.25	Yes		12.998867497168698				ShowResult	Loss
70.0	3	257.46	0.017	1379.685	12.9	-0.05	18.6339	2.623	955.0	2.0	Outcome1	12.9	-0.1	3651.25	Yes		12.998867497168698				ISITrial	Loss
70.0	3	263.791	0.031	1386.016	12.9	-0.05	18.6339	1.056	955.0	2.0	Outcome1	12.9	-0.1	3651.25	Yes	2{-2}	12.998867497168698	1.056	264.847	552.0	TrialHappiness	Loss
70.0	3	267.806	4.015	1390.031	12.9	-0.05	18.6339	6.605	955.0	2.0	Outcome1	12.9	-0.1	3651.25	Yes		12.998867497168698				ISIRate	Loss
71.0	3	274.437	0.026	1396.662	4.31	2.15	19.1727	3.0	955.0	1.68	Outcome2	6.5	4.31	0.0	No	2.0	-2.18620234050585	0.929	275.366		GetAnswer	Gain
71.0	3	275.387	0.021	1397.612	4.31	2.15	19.1727	4.0	955.0	1.68	Outcome2	6.5	4.31	0.0	No		-2.18620234050585				ShowChoice	Gain
71.0	3	279.402	0.015	1401.627	4.31	2.15	19.1727	1.0	955.0	1.68	Outcome2	6.5	4.31	0.0	No		-2.18620234050585				ShowResult	Gain
71.0	3	280.418	0.016	1402.643	4.31	2.15	19.1727	5.499	955.0	1.68	Outcome2	6.5	4.31	0.0	No		-2.18620234050585				ISITrial	Gain
72.0	3	285.95	0.033	1408.175	6.68	3.34	20.0077	3.0	955.0	2.0	Outcome1	6.68	8.9	3080.5	Yes	2.0	-2.2242355605889	0.951	286.901		GetAnswer	Gain
72.0	3	286.933	0.032	1409.158	6.68	3.34	20.0077	4.0	955.0	2.0	Outcome1	6.68	8.9	3080.5	Yes		-2.2242355605889				ShowChoice	Gain
72.0	3	290.948	0.015	1413.173	6.68	3.34	20.0077	1.0	955.0	2.0	Outcome1	6.68	8.9	3080.5	Yes		-2.2242355605889				ShowResult	Gain
72.0	3	291.964	0.016	1414.189	6.68	3.34	20.0077	5.672	955.0	2.0	Outcome1	6.68	8.9	3080.5	Yes		-2.2242355605889				ISITrial	Gain
72.0	3	300.761	0.019	1422.986	6.68	3.34	20.0077	0.574	955.0	2.0	Outcome1	6.68	8.9	3080.5	Yes		-2.2242355605889			528.0	TrialHappiness	Gain
72.0	3	304.776	4.015	1427.001	6.68	3.34	20.0077	4.322	955.0	2.0	Outcome1	6.68	8.9	3080.5	Yes		-2.2242355605889				ISIRate	Gain
73.0	3	309.125	0.027	1431.35	8.34	4.17	21.0502	3.0	955.0	1.82	Outcome1	8.34	10.7	0.0	No	2.0	-2.35966402416006	1.56	310.685		GetAnswer	Loss
73.0	3	310.708	0.023	1432.933	8.34	4.17	21.0502	4.0	955.0	1.82	Outcome1	8.34	10.7	0.0	No		-2.35966402416006				ShowChoice	Loss
73.0	3	314.723	0.015	1436.948	8.34	4.17	21.0502	1.0	955.0	1.82	Outcome1	8.34	10.7	0.0	No		-2.35966402416006				ShowResult	Loss
73.0	3	315.739	0.016	1437.964	8.34	4.17	21.0502	4.616	955.0	1.82	Outcome1	8.34	10.7	0.0	No		-2.35966402416006				ISITrial	Loss
74.0	3	320.388	0.033	1442.613	3.3	-4.0	21.4627	3.0	955.0	0.66	Outcome1	3.3	-11.96	3056.25	Yes	2.0	15.259343148357901	1.319	321.707		GetAnswer	Mixed
74.0	3	321.737	0.03	1443.962	3.3	-4.0	21.4627	4.0	955.0	0.66	Outcome1	3.3	-11.96	3056.25	Yes		15.259343148357901				ShowChoice	Mixed
74.0	3	325.752	0.015	1447.977	3.3	-4.0	21.4627	1.0	955.0	0.66	Outcome1	3.3	-11.96	3056.25	Yes		15.259343148357901				ShowResult	Mixed
74.0	3	326.769	0.017	1448.994	3.3	-4.0	21.4627	3.909	955.0	0.66	Outcome1	3.3	-11.96	3056.25	Yes		15.259343148357901				ISITrial	Mixed
74.0	3	333.783	0.026	1456.008	3.3	-4.0	21.4627	0.773	955.0	0.66	Outcome1	3.3	-11.96	3056.25	Yes		15.259343148357901			536.0	TrialHappiness	Mixed
74.0	3	337.798	4.015	1460.023	3.3	-4.0	21.4627	4.225	955.0	0.66	Outcome1	3.3	-11.96	3056.25	Yes		15.259343148357901				ISIRate	Mixed
75.0	3	342.047	0.024	1464.272	4.29	2.14	21.9989	3.0	955.0	1.82	Outcome2	6.7	4.29	0.0	No	2.0	-2.40779539448849	2.812	344.859		GetAnswer	Gain
75.0	3	344.879	0.02	1467.104	4.29	2.14	21.9989	4.0	955.0	1.82	Outcome2	6.7	4.29	0.0	No		-2.40779539448849				ShowChoice	Gain
75.0	3	348.894	0.015	1471.119	4.29	2.14	21.9989	1.0	955.0	1.82	Outcome2	6.7	4.29	0.0	No		-2.40779539448849				ShowResult	Gain
75.0	3	349.911	0.017	1472.136	4.29	2.14	21.9989	4.979	955.0	1.82	Outcome2	6.7	4.29	0.0	No		-2.40779539448849				ISITrial	Gain
76.0	3	354.909	0.019	1477.134	0.0	0.0	21.9989	3.0	955.0	0.52	Certain	-1.35	1.1	0.0	No	4.0	-2.4473386183465498	1.174	356.083		GetAnswer	Mixed
76.0	3	356.109	0.026	1478.334	0.0	0.0	21.9989	4.0	955.0	0.52	Certain	-1.35	1.1	0.0	No		-2.4473386183465498				ShowChoice	Mixed
76.0	3	360.124	0.015	1482.349	0.0	0.0	21.9989	1.0	955.0	0.52	Certain	-1.35	1.1	0.0	No		-2.4473386183465498				ShowResult	Mixed
76.0	3	361.14	0.016	1483.365	0.0	0.0	21.9989	3.931	955.0	0.52	Certain	-1.35	1.1	0.0	No		-2.4473386183465498				ISITrial	Mixed
77.0	3	365.089	0.018	1487.314	0.5	-8.0	22.0614	3.0	955.0	0.2	Outcome1	0.5	-16.06	4000.0	Yes	2.0	16.5560588901472	1.148	366.237		GetAnswer	Mixed
77.0	3	366.255	0.018	1488.48	0.5	-8.0	22.0614	4.0	955.0	0.2	Outcome1	0.5	-16.06	4000.0	Yes		16.5560588901472				ShowChoice	Mixed
77.0	3	370.27	0.015	1492.495	0.5	-8.0	22.0614	1.0	955.0	0.2	Outcome1	0.5	-16.06	4000.0	Yes		16.5560588901472				ShowResult	Mixed
77.0	3	371.287	0.017	1493.512	0.5	-8.0	22.0614	7.022	955.0	0.2	Outcome1	0.5	-16.06	4000.0	Yes		16.5560588901472				ISITrial	Mixed
77.0	3	382.366	0.032	1504.591	0.5	-8.0	22.0614	1.255	955.0	0.2	Outcome1	0.5	-16.06	4000.0	Yes		16.5560588901472			568.0	TrialHappiness	Mixed
77.0	3	386.381	4.015	1508.606	0.5	-8.0	22.0614	8.0	955.0	0.2	Outcome1	0.5	-16.06	4000.0	Yes		16.5560588901472				ISIRate	Mixed
78.0	3	394.412	0.031	1516.637	11.1	-2.7	23.4489	3.0	955.0	2.22	Outcome2	-5.39	11.1	0.0	No	2.0	16.4869762174405	0.994	395.406		GetAnswer	Loss
78.0	3	395.428	0.022	1517.653	11.1	-2.7	23.4489	4.0	955.0	2.22	Outcome2	-5.39	11.1	0.0	No		16.4869762174405				ShowChoice	Loss
78.0	3	399.443	0.015	1521.668	11.1	-2.7	23.4489	1.0	955.0	2.22	Outcome2	-5.39	11.1	0.0	No		16.4869762174405				ShowResult	Loss
78.0	3	400.46	0.017	1522.685	11.1	-2.7	23.4489	2.078	955.0	2.22	Outcome2	-5.39	11.1	0.0	No		16.4869762174405				ISITrial	Loss
79.0	3	402.559	0.021	1524.784	-2.53	-1.0	23.1326	3.0	955.0	1.2	Outcome2	-0.1	-2.53	2729.5	Yes	2.0	-2.43308795771989	2.625	405.184		GetAnswer	Mixed
79.0	3	405.208	0.024	1527.433	-2.53	-1.0	23.1326	4.0	955.0	1.2	Outcome2	-0.1	-2.53	2729.5	Yes		-2.43308795771989				ShowChoice	Mixed
79.0	3	409.223	0.015	1531.448	-2.53	-1.0	23.1326	1.0	955.0	1.2	Outcome2	-0.1	-2.53	2729.5	Yes		-2.43308795771989				ShowResult	Mixed
79.0	3	410.24	0.017	1532.465	-2.53	-1.0	23.1326	3.829	955.0	1.2	Outcome2	-0.1	-2.53	2729.5	Yes		-2.43308795771989				ISITrial	Mixed
79.0	3	416.837	0.019	1539.062	-2.53	-1.0	23.1326	0.0	955.0	1.2	Outcome2	-0.1	-2.53	2729.5	Yes		-2.43308795771989			512.0	TrialHappiness	Mixed
79.0	3	420.853	4.016	1543.078	-2.53	-1.0	23.1326	2.918	955.0	1.2	Outcome2	-0.1	-2.53	2729.5	Yes		-2.43308795771989				ISIRate	Mixed
80.0	3	423.802	0.031	1546.027	0.0	0.0	23.1326	3.0	955.0	1.2	Certain	-0.8	1.9	0.0	No	4.0	-2.69686674216686	1.217	425.019		GetAnswer	Mixed
80.0	3	425.034	0.015	1547.259	0.0	0.0	23.1326	4.0	955.0	1.2	Certain	-0.8	1.9	0.0	No		-2.69686674216686				ShowChoice	Mixed
80.0	3	429.05	0.016	1551.275	0.0	0.0	23.1326	1.0	955.0	1.2	Certain	-0.8	1.9	0.0	No		-2.69686674216686				ShowResult	Mixed
80.0	3	430.066	0.016	1552.291	0.0	0.0	23.1326	3.336	955.0	1.2	Certain	-0.8	1.9	0.0	No		-2.69686674216686				ISITrial	Mixed
81.0	3	433.432	0.03	1555.657	5.76	2.88	23.8526	3.0	955.0	1.68	Outcome1	5.76	8.5	3923.75	Yes	2.0	-2.73867497168743	1.513	434.945		GetAnswer	Gain
81.0	3	434.964	0.018	1557.189	5.76	2.88	23.8526	4.0	955.0	1.68	Outcome1	5.76	8.5	3923.75	Yes		-2.73867497168743				ShowChoice	Gain
81.0	3	438.98	0.016	1561.205	5.76	2.88	23.8526	1.0	955.0	1.68	Outcome1	5.76	8.5	3923.75	Yes		-2.73867497168743				ShowResult	Gain
81.0	3	439.996	0.016	1562.221	5.76	2.88	23.8526	3.919	955.0	1.68	Outcome1	5.76	8.5	3923.75	Yes		-2.73867497168743				ISITrial	Gain
81.0	3	447.876	0.024	1570.101	5.76	2.88	23.8526	2.874	955.0	1.68	Outcome1	5.76	8.5	3923.75	Yes		-2.73867497168743			528.0	TrialHappiness	Gain
81.0	3	451.892	4.016	1574.117	5.76	2.88	23.8526	7.695	955.0	1.68	Outcome1	5.76	8.5	3923.75	Yes		-2.73867497168743				ISIRate	Gain
	3	459.606	0.019	1581.831				3.0													CurrentEarnings	
	3	462.621	0.015	1584.846				-0.001								{SPACE}		24.95	487.571		Goodbye	
