trial_number	block	onset	onset_delay	onset_unadjusted	amount_change	certain_amount	current_amount	duration	mood_target	multiplier	outcome	outcome1_amount	outcome2_amount	question_duration	rating	response	rpe	rt	rt_time	slider_response	trial_phase	trial_type
	0	-67.243	0.039	32.759				-0.001								{SPACE}		3.788	-63.455		Welcome	
	0	-63.428	0.026	36.574				5.0													LifeHappyPreview	
	0	-58.396	0.032	41.606				4.781												952.0	LifeHappiness	
	0	-42.052	0.021	57.95				4.0													BlockHappyPreview	
	0	-38.037	0.015	61.965				1.406												680.0	BlockStartHappiness	
	0	-5.381	0.027	94.621				-0.001								5.0					ScanWait	
	1	0.017	0.017	100.019				10.0													GetReady	
1.0	1	10.046	0.029	110.048	9.5	2.42	11.1875	3.0	955.0	2.8	Outcome2	4.83	9.5	0.0	No	2.0	4.67157417893545	1.157	11.203		GetAnswer	Gain
1.0	1	11.229	0.026	111.231	9.5	2.42	11.1875	4.0	955.0	2.8	Outcome2	4.83	9.5	0.0	No		4.67157417893545				ShowChoice	Gain
1.0	1	15.245	0.016	115.247	9.5	2.42	11.1875	1.0	955.0	2.8	Outcome2	4.83	9.5	0.0	No		4.67157417893545				ShowResult	Gain
1.0	1	16.261	0.016	116.263	9.5	2.42	11.1875	2.431	955.0	2.8	Outcome2	4.83	9.5	0.0	No		4.67157417893545				ISITrial	Gain
2.0	1	18.727	0.035	118.729	7.1	1.06	12.075	3.0	955.0	2.22	Outcome1	7.1	2.12	0.0	No	2.0	4.98301245753114	1.05	19.777		GetAnswer	Gain
2.0	1	19.793	0.016	119.795	7.1	1.06	12.075	4.0	955.0	2.22	Outcome1	7.1	2.12	0.0	No		4.98301245753114				ShowChoice	Gain
2.0	1	23.808	0.015	123.81	7.1	1.06	12.075	1.0	955.0	2.22	Outcome1	7.1	2.12	0.0	No		4.98301245753114				ShowResult	Gain
2.0	1	24.825	0.017	124.827	7.1	1.06	12.075	4.568	955.0	2.22	Outcome1	7.1	2.12	0.0	No		4.98301245753114				ISITrial	Gain
3.0	1	29.423	0.03	129.425	13.7	4.2	13.7875	3.0	955.0	3.16	Outcome2	8.41	13.7	2868.0	Yes	2.0	5.29445073612684	1.201	30.624		GetAnswer	Loss
3.0	1	30.656	0.032	130.658	13.7	4.2	13.7875	4.0	955.0	3.16	Outcome2	8.41	13.7	2868.0	Yes		5.29445073612684				ShowChoice	Loss
3.0	1	34.671	0.015	134.673	13.7	4.2	13.7875	1.0	955.0	3.16	Outcome2	8.41	13.7	2868.0	Yes		5.29445073612684				ShowResult	Loss
3.0	1	35.687	0.016	135.689	13.7	4.2	13.7875	3.243	955.0	3.16	Outcome2	8.41	13.7	2868.0	Yes		5.29445073612684				ISITrial	Loss
3.0	1	41.852	0.031	141.854	13.7	4.2	13.7875	0.838	955.0	3.16	Outcome2	8.41	13.7	2868.0	Yes		5.29445073612684			704.0	TrialHappiness	Loss
3.0	1	45.867	4.015	145.869	13.7	4.2	13.7875	3.472	955.0	3.16	Outcome2	8.41	13.7	2868.0	Yes		5.29445073612684				ISIRate	Loss
4.0	1	49.366	0.027	149.368	0.0	0.0	13.7875	3.0	955.0	0.4	Certain	-2.3	2.9	0.0	No	4.0	5.198187995469991	1.798	51.164		GetAnswer	Mixed
4.0	1	51.182	0.018	151.184	0.0	0.0	13.7875	4.0	955.0	0.4	Certain	-2.3	2.9	0.0	No		5.198187995469991				ShowChoice	Mixed
4.0	1	55.197	0.015	155.199	0.0	0.0	13.7875	1.0	955.0	0.4	Certain	-2.3	2.9	0.0	No		5.198187995469991				ShowResult	Mixed
4.0	1	56.213	0.016	156.215	0.0	0.0	13.7875	2.011	955.0	0.4	Certain	-2.3	2.9	0.0	No		5.198187995469991				ISITrial	Mixed
5.0	1	58.246	0.022	158.248	4.98	2.49	14.41	3.0	955.0	4.2	Outcome1	4.98	6.1	2582.5	Yes	2.0	-1.12013967534919	1.143	59.389		GetAnswer	Gain
5.0	1	59.412	0.023	159.414	4.98	2.49	14.41	4.0	955.0	4.2	Outcome1	4.98	6.1	2582.5	Yes		-1.12013967534919				ShowChoice	Gain
5.0	1	63.428	0.016	163.43	4.98	2.49	14.41	1.0	955.0	4.2	Outcome1	4.98	6.1	2582.5	Yes		-1.12013967534919				ShowResult	Gain
5.0	1	64.444	0.016	164.446	4.98	2.49	14.41	5.129	955.0	4.2	Outcome1	4.98	6.1	2582.5	Yes		-1.12013967534919				ISITrial	Gain
5.0	1	72.191	0.017	172.193	4.98	2.49	14.41	1.255	955.0	4.2	Outcome1	4.98	6.1	2582.5	Yes		-1.12013967534919			696.0	TrialHappiness	Gain
5.0	1	76.206	4.015	176.208	4.98	2.49	14.41	2.33	955.0	4.2	Outcome1	4.98	6.1	2582.5	Yes		-1.12013967534919				ISIRate	Gain
6.0	1	78.556	0.02	178.558	12.32	6.16	15.95	3.0	955.0	2.8	Outcome2	13.5	12.32	0.0	No	2.0	-1.1762929407323501	0.999	79.555		GetAnswer	Loss
6.0	1	79.572	0.017	179.574	12.32	6.16	15.95	4.0	955.0	2.8	Outcome2	13.5	12.32	0.0	No		-1.1762929407323501				ShowChoice	Loss
6.0	1	83.587	0.015	183.589	12.32	6.16	15.95	1.0	955.0	2.8	Outcome2	13.5	12.32	0.0	No		-1.1762929407323501				ShowResult	Loss
6.0	1	84.603	0.016	184.605	12.32	6.16	15.95	6.232	955.0	2.8	Outcome2	13.5	12.32	0.0	No		-1.1762929407323501				ISITrial	Loss
7.0	1	90.868	0.033	190.87	10.3	5.15	17.2375	3.0	955.0	2.8	Outcome2	11.5	10.3	0.0	No	2.0	-1.20073612684032	1.083	91.951		GetAnswer	Loss
7.0	1	91.968	0.017	191.97	10.3	5.15	17.2375	4.0	955.0	2.8	Outcome2	11.5	10.3	0.0	No		-1.20073612684032				ShowChoice	Loss
7.0	1	95.983	0.015	195.985	10.3	5.15	17.2375	1.0	955.0	2.8	Outcome2	11.5	10.3	0.0	No		-1.20073612684032				ShowResult	Loss
7.0	1	96.999	0.016	197.001	10.3	5.15	17.2375	2.305	955.0	2.8	Outcome2	11.5	10.3	0.0	No		-1.20073612684032				ISITrial	Loss
8.0	1	99.332	0.028	199.334	-2.0	-2.0	16.9875	3.0	955.0	0.2	Certain	0.5	-5.99	3112.5	Yes	4.0	6.489241223103059	1.361	100.693		GetAnswer	Mixed
8.0	1	100.714	0.021	200.716	-2.0	-2.0	16.9875	4.0	955.0	0.2	Certain	0.5	-5.99	3112.5	Yes		6.489241223103059				ShowChoice	Mixed
8.0	1	104.73	0.016	204.732	-2.0	-2.0	16.9875	1.0	955.0	0.2	Certain	0.5	-5.99	3112.5	Yes		6.489241223103059				ShowResult	Mixed
8.0	1	105.746	0.016	205.748	-2.0	-2.0	16.9875	3.506	955.0	0.2	Certain	0.5	-5.99	3112.5	Yes		6.489241223103059				ISITrial	Mixed
8.0	1	112.41	0.02	212.412	-2.0	-2.0	16.9875	1.345	955.0	0.2	Certain	0.5	-5.99	3112.5	Yes		6.489241223103059			688.0	TrialHappiness	Mixed
8.0	1	116.426	4.016	216.428	-2.0	-2.0	16.9875	4.45	955.0	0.2	Certain	0.5	-5.99	3112.5	Yes		6.489241223103059				ISIRate	Mixed
9.0	1	120.907	0.031	220.909	0.0	0.0	16.9875	3.0	955.0	0.82	Certain	-3.42	3.5	0.0	No	4.0	6.91845979614949	1.695	122.602		GetAnswer	Mixed
9.0	1	122.623	0.021	222.625	0.0	0.0	16.9875	4.0	955.0	0.82	Certain	-3.42	3.5	0.0	No		6.91845979614949				ShowChoice	Mixed
9.0	1	126.639	0.016	226.641	0.0	0.0	16.9875	1.0	955.0	0.82	Certain	-3.42	3.5	0.0	No		6.91845979614949				ShowResult	Mixed
9.0	1	127.655	0.016	227.657	0.0	0.0	16.9875	2.0	955.0	0.82	Certain	-3.42	3.5	0.0	No		6.91845979614949				ISITrial	Mixed
10.0	1	129.688	0.033	229.69	10.99	5.5	18.3613	3.0	955.0	5.0	Outcome2	12.3	10.99	4000.0	Yes	2.0	-1.3072857682144199	1.153	130.841		GetAnswer	Loss
10.0	1	130.87	0.029	230.872	10.99	5.5	18.3613	4.0	955.0	5.0	Outcome2	12.3	10.99	4000.0	Yes		-1.3072857682144199				ShowChoice	Loss
10.0	1	134.886	0.016	234.888	10.99	5.5	18.3613	1.0	955.0	5.0	Outcome2	12.3	10.99	4000.0	Yes		-1.3072857682144199				ShowResult	Loss
10.0	1	135.902	0.016	235.904	10.99	5.5	18.3613	2.0	955.0	5.0	Outcome2	12.3	10.99	4000.0	Yes		-1.3072857682144199				ISITrial	Loss
10.0	1	141.95	0.032	241.952	10.99	5.5	18.3613	1.09	955.0	5.0	Outcome2	12.3	10.99	4000.0	Yes		-1.3072857682144199			680.0	TrialHappiness	Loss
10.0	1	145.965	4.015	245.967	10.99	5.5	18.3613	8.0	955.0	5.0	Outcome2	12.3	10.99	4000.0	Yes		-1.3072857682144199				ISIRate	Loss
11.0	1	153.996	0.031	253.998	-5.0	-5.0	17.7363	3.0	955.0	0.2	Certain	-9.16	-1.5	0.0	No	4.0	7.65911664779162	1.155	155.151		GetAnswer	Mixed
11.0	1	155.162	0.011	255.164	-5.0	-5.0	17.7363	4.0	955.0	0.2	Certain	-9.16	-1.5	0.0	No		7.65911664779162				ShowChoice	Mixed
11.0	1	159.177	0.015	259.179	-5.0	-5.0	17.7363	1.0	955.0	0.2	Certain	-9.16	-1.5	0.0	No		7.65911664779162				ShowResult	Mixed
11.0	1	160.194	0.017	260.196	-5.0	-5.0	17.7363	3.324	955.0	0.2	Certain	-9.16	-1.5	0.0	No		7.65911664779162				ISITrial	Mixed
12.0	1	163.542	0.024	263.544	-2.0	-2.0	17.4863	3.0	955.0	0.66	Certain	1.3	-6.67	2618.75	Yes	4.0	7.9705549263873205	1.285	164.827		GetAnswer	Mixed
12.0	1	164.842	0.015	264.844	-2.0	-2.0	17.4863	4.0	955.0	0.66	Certain	1.3	-6.67	2618.75	Yes		7.9705549263873205				ShowChoice	Mixed
12.0	1	168.857	0.015	268.859	-2.0	-2.0	17.4863	1.0	955.0	0.66	Certain	1.3	-6.67	2618.75	Yes		7.9705549263873205				ShowResult	Mixed
12.0	1	169.873	0.016	269.875	-2.0	-2.0	17.4863	6.642	955.0	0.66	Certain	1.3	-6.67	2618.75	Yes		7.9705549263873205				ISITrial	Mixed
12.0	1	179.187	0.03	279.189	-2.0	-2.0	17.4863	1.156	955.0	0.66	Certain	1.3	-6.67	2618.75	Yes		7.9705549263873205			712.0	TrialHappiness	Mixed
12.0	1	183.202	4.015	283.204	-2.0	-2.0	17.4863	2.475	955.0	0.66	Certain	1.3	-6.67	2618.75	Yes		7.9705549263873205				ISIRate	Mixed
13.0	1	185.701	0.024	285.703	2.81	1.4	17.8375	3.0	955.0	1.5	Outcome1	2.81	4.1	0.0	No	2.0	-1.28699509248773	0.928	186.629		GetAnswer	Mixed
13.0	1	186.651	0.022	286.653	2.81	1.4	17.8375	4.0	955.0	1.5	Outcome1	2.81	4.1	0.0	No		-1.28699509248773				ShowChoice	Mixed
13.0	1	190.666	0.015	290.668	2.81	1.4	17.8375	1.0	955.0	1.5	Outcome1	2.81	4.1	0.0	No		-1.28699509248773				ShowResult	Mixed
13.0	1	191.682	0.016	291.684	2.81	1.4	17.8375	3.48	955.0	1.5	Outcome1	2.81	4.1	0.0	No		-1.28699509248773				ISITrial	Mixed
14.0	1	195.181	0.019	295.183	-1.0	-1.0	17.7125	3.0	955.0	0.52	Certain	-0.9	-2.21	0.0	No	4.0	-1.30992827482069	1.42	196.601		GetAnswer	Mixed
14.0	1	196.631	0.03	296.633	-1.0	-1.0	17.7125	4.0	955.0	0.52	Certain	-0.9	-2.21	0.0	No		-1.30992827482069				ShowChoice	Mixed
14.0	1	200.646	0.015	300.648	-1.0	-1.0	17.7125	1.0	955.0	0.52	Certain	-0.9	-2.21	0.0	No		-1.30992827482069				ShowResult	Mixed
14.0	1	201.662	0.016	301.664	-1.0	-1.0	17.7125	5.019	955.0	0.52	Certain	-0.9	-2.21	0.0	No		-1.30992827482069				ISITrial	Mixed
15.0	1	206.71	0.029	306.712	13.9	2.8	19.45	3.0	955.0	3.6	Outcome1	13.9	5.61	3348.5	Yes	2.0	8.28878822197056	0.989	207.699		GetAnswer	Loss
15.0	1	207.727	0.028	307.729	13.9	2.8	19.45	4.0	955.0	3.6	Outcome1	13.9	5.61	3348.5	Yes		8.28878822197056				ShowChoice	Loss
15.0	1	211.742	0.015	311.744	13.9	2.8	19.45	1.0	955.0	3.6	Outcome1	13.9	5.61	3348.5	Yes		8.28878822197056				ShowResult	Loss
15.0	1	212.758	0.016	312.76	13.9	2.8	19.45	7.614	955.0	3.6	Outcome1	13.9	5.61	3348.5	Yes		8.28878822197056				ISITrial	Loss
15.0	1	223.754	0.017	323.756	13.9	2.8	19.45	1.204	955.0	3.6	Outcome1	13.9	5.61	3348.5	Yes		8.28878822197056			680.0	TrialHappiness	Loss
15.0	1	227.77	4.016	327.772	13.9	2.8	19.45	5.394	955.0	3.6	Outcome1	13.9	5.61	3348.5	Yes		8.28878822197056				ISIRate	Loss
16.0	1	233.184	0.02	333.186	10.41	5.2	20.7512	3.0	955.0	3.6	Outcome2	11.9	10.41	0.0	No	2.0	-1.48565496413741	0.971	234.155		GetAnswer	Loss
16.0	1	234.167	0.012	334.169	10.41	5.2	20.7512	4.0	955.0	3.6	Outcome2	11.9	10.41	0.0	No		-1.48565496413741				ShowChoice	Loss
16.0	1	238.183	0.016	338.185	10.41	5.2	20.7512	1.0	955.0	3.6	Outcome2	11.9	10.41	0.0	No		-1.48565496413741				ShowResult	Loss
16.0	1	239.199	0.016	339.201	10.41	5.2	20.7512	3.008	955.0	3.6	Outcome2	11.9	10.41	0.0	No		-1.48565496413741				ISITrial	Loss
17.0	1	242.231	0.024	342.233	-0.26	-0.26	20.7187	3.0	955.0	2.0	Certain	8.9	-0.52	3041.5	Yes	4.0	9.419026047565119	1.192	243.423		GetAnswer	Gain
17.0	1	243.448	0.025	343.45	-0.26	-0.26	20.7187	4.0	955.0	2.0	Certain	8.9	-0.52	3041.5	Yes		9.419026047565119				ShowChoice	Gain
17.0	1	247.463	0.015	347.465	-0.26	-0.26	20.7187	1.0	955.0	2.0	Certain	8.9	-0.52	3041.5	Yes		9.419026047565119				ShowResult	Gain
17.0	1	248.479	0.016	348.481	-0.26	-0.26	20.7187	3.566	955.0	2.0	Certain	8.9	-0.52	3041.5	Yes		9.419026047565119				ISITrial	Gain
17.0	1	255.127	0.024	355.129	-0.26	-0.26	20.7187	0.805	955.0	2.0	Certain	8.9	-0.52	3041.5	Yes		9.419026047565119			704.0	TrialHappiness	Gain
17.0	1	259.142	4.015	359.144	-0.26	-0.26	20.7187	4.166	955.0	2.0	Certain	8.9	-0.52	3041.5	Yes		9.419026047565119				ISIRate	Gain
18.0	1	263.324	0.016	363.326	11.1	0.89	22.1062	3.0	955.0	2.22	Outcome2	1.78	11.1	0.0	No	2.0	9.32276330690827	1.333	264.657		GetAnswer	Loss
18.0	1	264.673	0.016	364.675	11.1	0.89	22.1062	4.0	955.0	2.22	Outcome2	1.78	11.1	0.0	No		9.32276330690827				ShowChoice	Loss
18.0	1	268.689	0.016	368.691	11.1	0.89	22.1062	1.0	955.0	2.22	Outcome2	1.78	11.1	0.0	No		9.32276330690827				ShowResult	Loss
18.0	1	269.705	0.016	369.707	11.1	0.89	22.1062	6.787	955.0	2.22	Outcome2	1.78	11.1	0.0	No		9.32276330690827				ISITrial	Loss
19.0	1	276.519	0.027	376.521	13.3	1.84	23.7687	3.0	955.0	2.48	Outcome2	3.69	13.3	0.0	No	2.0	9.60702151755379	1.323	277.842		GetAnswer	Loss
19.0	1	277.869	0.027	377.871	13.3	1.84	23.7687	4.0	955.0	2.48	Outcome2	3.69	13.3	0.0	No		9.60702151755379				ShowChoice	Loss
19.0	1	281.884	0.015	381.886	13.3	1.84	23.7687	1.0	955.0	2.48	Outcome2	3.69	13.3	0.0	No		9.60702151755379				ShowResult	Loss
19.0	1	282.9	0.016	382.902	13.3	1.84	23.7687	2.0	955.0	2.48	Outcome2	3.69	13.3	0.0	No		9.60702151755379				ISITrial	Loss
20.0	1	284.916	0.016	384.918	11.3	0.7	25.1812	3.0	955.0	2.48	Outcome2	1.41	11.3	2921.25	Yes	2.0	9.89127972819932	1.376	286.292		GetAnswer	Loss
20.0	1	286.316	0.024	386.318	11.3	0.7	25.1812	4.0	955.0	2.48	Outcome2	1.41	11.3	2921.25	Yes		9.89127972819932				ShowChoice	Loss
20.0	1	290.331	0.015	390.333	11.3	0.7	25.1812	1.0	955.0	2.48	Outcome2	1.41	11.3	2921.25	Yes		9.89127972819932				ShowResult	Loss
20.0	1	291.347	0.016	391.349	11.3	0.7	25.1812	8.0	955.0	2.48	Outcome2	1.41	11.3	2921.25	Yes		9.89127972819932				ISITrial	Loss
20.0	1	302.31	0.028	402.312	11.3	0.7	25.1812	1.389	955.0	2.48	Outcome2	1.41	11.3	2921.25	Yes		9.89127972819932			692.0	TrialHappiness	Loss
20.0	1	306.325	4.015	406.327	11.3	0.7	25.1812	3.685	955.0	2.48	Outcome2	1.41	11.3	2921.25	Yes		9.89127972819932				ISIRate	Loss
21.0	1	310.041	0.031	410.043	-4.0	-4.0	24.6812	3.0	955.0	0.3	Certain	-9.68	0.7	0.0	No	4.0	10.379388448471099	1.672	311.713		GetAnswer	Mixed
21.0	1	311.723	0.01	411.725	-4.0	-4.0	24.6812	4.0	955.0	0.3	Certain	-9.68	0.7	0.0	No		10.379388448471099				ShowChoice	Mixed
21.0	1	315.739	0.016	415.741	-4.0	-4.0	24.6812	1.0	955.0	0.3	Certain	-9.68	0.7	0.0	No		10.379388448471099				ShowResult	Mixed
21.0	1	316.755	0.016	416.757	-4.0	-4.0	24.6812	3.555	955.0	0.3	Certain	-9.68	0.7	0.0	No		10.379388448471099				ISITrial	Mixed
22.0	1	320.337	0.027	420.339	-2.88	-2.0	24.3212	3.0	955.0	0.3	Outcome2	-1.3	-2.88	3219.5	Yes	2.0	-1.5847489618724	2.151	322.488		GetAnswer	Mixed
22.0	1	322.503	0.014	422.505	-2.88	-2.0	24.3212	4.0	955.0	0.3	Outcome2	-1.3	-2.88	3219.5	Yes		-1.5847489618724				ShowChoice	Mixed
22.0	1	326.518	0.015	426.52	-2.88	-2.0	24.3212	1.0	955.0	0.3	Outcome2	-1.3	-2.88	3219.5	Yes		-1.5847489618724				ShowResult	Mixed
22.0	1	327.535	0.017	427.537	-2.88	-2.0	24.3212	6.793	955.0	0.3	Outcome2	-1.3	-2.88	3219.5	Yes		-1.5847489618724				ISITrial	Mixed
22.0	1	337.598	0.029	437.6	-2.88	-2.0	24.3212	2.906	955.0	0.3	Outcome2	-1.3	-2.88	3219.5	Yes		-1.5847489618724			652.0	TrialHappiness	Mixed
22.0	1	341.613	4.015	441.615	-2.88	-2.0	24.3212	4.878	955.0	0.3	Outcome2	-1.3	-2.88	3219.5	Yes		-1.5847489618724				ISIRate	Mixed
23.0	1	346.511	0.02	446.513	9.93	4.96	25.5624	3.0	955.0	3.16	Outcome1	9.93	11.7	0.0	No	2.0	-1.77189505473764	1.018	347.529		GetAnswer	Loss
23.0	1	347.544	0.015	447.546	9.93	4.96	25.5624	4.0	955.0	3.16	Outcome1	9.93	11.7	0.0	No		-1.77189505473764				ShowChoice	Loss
23.0	1	351.559	0.015	451.561	9.93	4.96	25.5624	1.0	955.0	3.16	Outcome1	9.93	11.7	0.0	No		-1.77189505473764				ShowResult	Loss
23.0	1	352.576	0.017	452.578	9.93	4.96	25.5624	8.0	955.0	3.16	Outcome1	9.93	11.7	0.0	No		-1.77189505473764				ISITrial	Loss
24.0	1	360.606	0.03	460.608	-1.0	-1.0	25.4374	3.0	955.0	2.0	Certain	4.3	-7.7	3255.0	Yes	4.0	11.997734994337499	1.64	362.246		GetAnswer	Mixed
24.0	1	362.272	0.026	462.274	-1.0	-1.0	25.4374	4.0	955.0	2.0	Certain	4.3	-7.7	3255.0	Yes		11.997734994337499				ShowChoice	Mixed
24.0	1	366.288	0.016	466.29	-1.0	-1.0	25.4374	1.0	955.0	2.0	Certain	4.3	-7.7	3255.0	Yes		11.997734994337499				ShowResult	Mixed
24.0	1	367.304	0.016	467.306	-1.0	-1.0	25.4374	2.0	955.0	2.0	Certain	4.3	-7.7	3255.0	Yes		11.997734994337499				ISITrial	Mixed
24.0	1	372.602	0.027	472.604	-1.0	-1.0	25.4374	3.148	955.0	2.0	Certain	4.3	-7.7	3255.0	Yes		11.997734994337499			672.0	TrialHappiness	Mixed
24.0	1	376.617	4.015	476.619	-1.0	-1.0	25.4374	5.02	955.0	2.0	Certain	4.3	-7.7	3255.0	Yes		11.997734994337499				ISIRate	Mixed
25.0	1	381.665	0.028	481.667	-3.0	-3.0	25.0624	3.0	955.0	2.0	Certain	2.3	-9.7	0.0	No	4.0	12.001132502831302	1.321	382.986		GetAnswer	Mixed
25.0	1	382.998	0.012	483.0	-3.0	-3.0	25.0624	4.0	955.0	2.0	Certain	2.3	-9.7	0.0	No		12.001132502831302				ShowChoice	Mixed
25.0	1	387.014	0.016	487.016	-3.0	-3.0	25.0624	1.0	955.0	2.0	Certain	2.3	-9.7	0.0	No		12.001132502831302				ShowResult	Mixed
25.0	1	388.03	0.016	488.032	-3.0	-3.0	25.0624	3.749	955.0	2.0	Certain	2.3	-9.7	0.0	No		12.001132502831302				ISITrial	Mixed
26.0	1	391.795	0.016	491.797	-4.0	-4.0	24.5624	3.0	955.0	1.5	Certain	-10.22	2.1	0.0	No	4.0	12.321630804077001	1.469	393.264		GetAnswer	Mixed
26.0	1	393.278	0.014	493.28	-4.0	-4.0	24.5624	4.0	955.0	1.5	Certain	-10.22	2.1	0.0	No		12.321630804077001				ShowChoice	Mixed
26.0	1	397.293	0.015	497.295	-4.0	-4.0	24.5624	1.0	955.0	1.5	Certain	-10.22	2.1	0.0	No		12.321630804077001				ShowResult	Mixed
26.0	1	398.31	0.017	498.312	-4.0	-4.0	24.5624	7.834	955.0	1.5	Certain	-10.22	2.1	0.0	No		12.321630804077001				ISITrial	Mixed
27.0	1	406.174	0.03	506.176	1.9	0.95	24.7999	3.0	955.0	1.0	Outcome1	1.9	3.7	2549.75	Yes	2.0	-1.80134012835032	1.3	407.474		GetAnswer	Mixed
27.0	1	407.49	0.016	507.492	1.9	0.95	24.7999	4.0	955.0	1.0	Outcome1	1.9	3.7	2549.75	Yes		-1.80134012835032				ShowChoice	Mixed
27.0	1	411.505	0.015	511.507	1.9	0.95	24.7999	1.0	955.0	1.0	Outcome1	1.9	3.7	2549.75	Yes		-1.80134012835032				ShowResult	Mixed
27.0	1	412.521	0.016	512.523	1.9	0.95	24.7999	4.225	955.0	1.0	Outcome1	1.9	3.7	2549.75	Yes		-1.80134012835032				ISITrial	Mixed
27.0	1	419.336	0.016	519.338	1.9	0.95	24.7999	1.49	955.0	1.0	Outcome1	1.9	3.7	2549.75	Yes		-1.80134012835032			696.0	TrialHappiness	Mixed
27.0	1	423.351	4.015	523.353	1.9	0.95	24.7999	2.199	955.0	1.0	Outcome1	1.9	3.7	2549.75	Yes		-1.80134012835032				ISIRate	Mixed
	1	425.567	0.017	525.569				-0.001								{SPACE}		81.381	506.948		Rest	
	1	506.971	0.023	606.973				4.0													BlockHappyPreview	
	1	510.987	0.016	610.989				0.755												632.0	BlockStartHappiness	
	1	518.351	0.011	618.353				-0.001								5.0		3.326	521.677		ScanWait	
	2	0.022	0.022	621.701				10.0													GetReady	
28.0	2	10.036	0.014	631.715	1.0	1.0	24.9249	3.0	70.0	3.6	Certain	-0.3	1.98	0.0	No	4.0	2.28325774754346	0.981	11.017		GetAnswer	Gain
28.0	2	11.035	0.018	632.714	1.0	1.0	24.9249	4.0	70.0	3.6	Certain	-0.3	1.98	0.0	No		2.28325774754346				ShowChoice	Gain
28.0	2	15.051	0.016	636.73	1.0	1.0	24.9249	1.0	70.0	3.6	Certain	-0.3	1.98	0.0	No		2.28325774754346				ShowResult	Gain
28.0	2	16.067	0.016	637.746	1.0	1.0	24.9249	3.575	70.0	3.6	Certain	-0.3	1.98	0.0	No		2.28325774754346				ISITrial	Gain
29.0	2	19.666	0.024	641.345	-8.7	-3.0	23.8374	3.0	70.0	0.82	Outcome1	-8.7	1.5	3529.0	Yes	2.0	-10.1950113378685	1.098	20.764		GetAnswer	Mixed
29.0	2	20.782	0.018	642.461	-8.7	-3.0	23.8374	4.0	70.0	0.82	Outcome1	-8.7	1.5	3529.0	Yes		-10.1950113378685				ShowChoice	Mixed
29.0	2	24.797	0.015	646.476	-8.7	-3.0	23.8374	1.0	70.0	0.82	Outcome1	-8.7	1.5	3529.0	Yes		-10.1950113378685				ShowResult	Mixed
29.0	2	25.813	0.016	647.492	-8.7	-3.0	23.8374	3.955	70.0	0.82	Outcome1	-8.7	1.5	3529.0	Yes		-10.1950113378685				ISITrial	Mixed
29.0	2	33.327	0.019	655.006	-8.7	-3.0	23.8374	0.773	70.0	0.82	Outcome1	-8.7	1.5	3529.0	Yes		-10.1950113378685			648.0	TrialHappiness	Mixed
29.0	2	37.343	4.016	659.022	-8.7	-3.0	23.8374	6.116	70.0	0.82	Outcome1	-8.7	1.5	3529.0	Yes		-10.1950113378685				ISIRate	Mixed
30.0	2	43.491	0.032	665.17	-1.0	-1.0	23.7124	3.0	70.0	1.68	Certain	-6.6	4.5	0.0	No	4.0	-11.1043083900227	1.921	45.412		GetAnswer	Gain
30.0	2	45.423	0.011	667.102	-1.0	-1.0	23.7124	4.0	70.0	1.68	Certain	-6.6	4.5	0.0	No		-11.1043083900227				ShowChoice	Gain
30.0	2	49.438	0.015	671.117	-1.0	-1.0	23.7124	1.0	70.0	1.68	Certain	-6.6	4.5	0.0	No		-11.1043083900227				ShowResult	Gain
30.0	2	50.455	0.017	672.134	-1.0	-1.0	23.7124	4.453	70.0	1.68	Certain	-6.6	4.5	0.0	No		-11.1043083900227				ISITrial	Gain
31.0	2	54.936	0.028	676.615	-0.83	-0.83	23.6086	3.0	70.0	4.2	Certain	10.1	-1.66	2503.25	Yes	4.0	-11.759637188208599	1.274	56.21		GetAnswer	Gain
31.0	2	56.236	0.025	677.915	-0.83	-0.83	23.6086	4.0	70.0	4.2	Certain	10.1	-1.66	2503.25	Yes		-11.759637188208599				ShowChoice	Gain
31.0	2	60.251	0.015	681.93	-0.83	-0.83	23.6086	1.0	70.0	4.2	Certain	10.1	-1.66	2503.25	Yes		-11.759637188208599				ShowResult	Gain
31.0	2	61.268	0.017	682.947	-0.83	-0.83	23.6086	4.786	70.0	4.2	Certain	10.1	-1.66	2503.25	Yes		-11.759637188208599				ISITrial	Gain
31.0	2	68.598	0.029	690.277	-0.83	-0.83	23.6086	2.351	70.0	4.2	Certain	10.1	-1.66	2503.25	Yes		-11.759637188208599			652.0	TrialHappiness	Gain
31.0	2	72.614	4.016	694.293	-0.83	-0.83	23.6086	2.013	70.0	4.2	Certain	10.1	-1.66	2503.25	Yes		-11.759637188208599				ISIRate	Gain
32.0	2	74.646	0.019	696.325	-0.79	-0.79	23.5098	3.0	70.0	2.0	Certain	-1.58	10.9	0.0	No	4.0	-12.4829931972789	1.432	76.078		GetAnswer	Loss
32.0	2	76.096	0.018	697.775	-0.79	-0.79	23.5098	4.0	70.0	2.0	Certain	-1.58	10.9	0.0	No		-12.4829931972789				ShowChoice	Loss
32.0	2	80.111	0.015	701.79	-0.79	-0.79	23.5098	1.0	70.0	2.0	Certain	-1.58	10.9	0.0	No		-12.4829931972789				ShowResult	Loss
32.0	2	81.127	0.016	702.806	-0.79	-0.79	23.5098	2.0	70.0	2.0	Certain	-1.58	10.9	0.0	No		-12.4829931972789				ISITrial	Loss
33.0	2	83.143	0.016	704.822	-0.64	-0.32	23.4298	3.0	70.0	1.68	Outcome2	12.5	-0.64	0.0	No	2.0	-13.142857142857098	1.631	84.774		GetAnswer	Loss
33.0	2	84.793	0.019	706.472	-0.64	-0.32	23.4298	4.0	70.0	1.68	Outcome2	12.5	-0.64	0.0	No		-13.142857142857098				ShowChoice	Loss
33.0	2	88.808	0.015	710.487	-0.64	-0.32	23.4298	1.0	70.0	1.68	Outcome2	12.5	-0.64	0.0	No		-13.142857142857098				ShowResult	Loss
33.0	2	89.824	0.016	711.503	-0.64	-0.32	23.4298	5.099	70.0	1.68	Outcome2	12.5	-0.64	0.0	No		-13.142857142857098				ISITrial	Loss
34.0	2	94.939	0.016	716.618	-1.0	-1.0	23.3048	3.0	70.0	2.8	Certain	5.5	-8.3	3231.5	Yes	4.0	-13.8027210884354	1.546	96.485		GetAnswer	Gain
34.0	2	96.505	0.02	718.184	-1.0	-1.0	23.3048	4.0	70.0	2.8	Certain	5.5	-8.3	3231.5	Yes		-13.8027210884354				ShowChoice	Gain
34.0	2	100.52	0.015	722.199	-1.0	-1.0	23.3048	1.0	70.0	2.8	Certain	5.5	-8.3	3231.5	Yes		-13.8027210884354				ShowResult	Gain
34.0	2	101.537	0.017	723.216	-1.0	-1.0	23.3048	4.784	70.0	2.8	Certain	5.5	-8.3	3231.5	Yes		-13.8027210884354				ISITrial	Gain
34.0	2	109.584	0.017	731.263	-1.0	-1.0	23.3048	3.423	70.0	2.8	Certain	5.5	-8.3	3231.5	Yes		-13.8027210884354			700.0	TrialHappiness	Gain
34.0	2	113.599	4.015	735.278	-1.0	-1.0	23.3048	4.926	70.0	2.8	Certain	5.5	-8.3	3231.5	Yes		-13.8027210884354				ISIRate	Gain
35.0	2	118.547	0.022	740.226	0.0	0.0	23.3048	3.0	70.0	3.16	Certain	-7.58	7.7	0.0	No	4.0	-15.2789115646259	0.914	119.461		GetAnswer	Gain
35.0	2	119.48	0.019	741.159	0.0	0.0	23.3048	4.0	70.0	3.16	Certain	-7.58	7.7	0.0	No		-15.2789115646259				ShowChoice	Gain
35.0	2	123.496	0.016	745.175	0.0	0.0	23.3048	1.0	70.0	3.16	Certain	-7.58	7.7	0.0	No		-15.2789115646259				ShowResult	Gain
35.0	2	124.512	0.016	746.191	0.0	0.0	23.3048	2.098	70.0	3.16	Certain	-7.58	7.7	0.0	No		-15.2789115646259				ISITrial	Gain
36.0	2	126.628	0.018	748.307	1.0	1.0	23.4298	3.0	70.0	2.22	Certain	2.28	-0.72	3335.75	Yes	4.0	2.99943310657596	1.407	128.035		GetAnswer	Gain
36.0	2	128.061	0.026	749.74	1.0	1.0	23.4298	4.0	70.0	2.22	Certain	2.28	-0.72	3335.75	Yes		2.99943310657596				ShowChoice	Gain
36.0	2	132.076	0.015	753.755	1.0	1.0	23.4298	1.0	70.0	2.22	Certain	2.28	-0.72	3335.75	Yes		2.99943310657596				ShowResult	Gain
36.0	2	133.092	0.016	754.771	1.0	1.0	23.4298	5.156	70.0	2.22	Certain	2.28	-0.72	3335.75	Yes		2.99943310657596				ISITrial	Gain
36.0	2	141.639	0.029	763.318	1.0	1.0	23.4298	2.904	70.0	2.22	Certain	2.28	-0.72	3335.75	Yes		2.99943310657596			668.0	TrialHappiness	Gain
36.0	2	145.655	4.016	767.334	1.0	1.0	23.4298	5.343	70.0	2.22	Certain	2.28	-0.72	3335.75	Yes		2.99943310657596				ISIRate	Gain
37.0	2	151.019	0.021	772.698	-2.0	-2.0	23.1798	3.0	70.0	3.16	Certain	-10.46	5.7	0.0	No	4.0	-16.1632653061225	1.53	152.549		GetAnswer	Gain
37.0	2	152.569	0.02	774.248	-2.0	-2.0	23.1798	4.0	70.0	3.16	Certain	-10.46	5.7	0.0	No		-16.1632653061225				ShowChoice	Gain
37.0	2	156.584	0.015	778.263	-2.0	-2.0	23.1798	1.0	70.0	3.16	Certain	-10.46	5.7	0.0	No		-16.1632653061225				ShowResult	Gain
37.0	2	157.6	0.016	779.279	-2.0	-2.0	23.1798	3.598	70.0	3.16	Certain	-10.46	5.7	0.0	No		-16.1632653061225				ISITrial	Gain
38.0	2	161.216	0.018	782.895	2.58	1.0	23.5023	3.0	70.0	5.0	Outcome1	2.58	-0.41	0.0	No	2.0	2.9854497354497402	1.599	162.815		GetAnswer	Gain
38.0	2	162.848	0.033	784.527	2.58	1.0	23.5023	4.0	70.0	5.0	Outcome1	2.58	-0.41	0.0	No		2.9854497354497402				ShowChoice	Gain
38.0	2	166.864	0.016	788.543	2.58	1.0	23.5023	1.0	70.0	5.0	Outcome1	2.58	-0.41	0.0	No		2.9854497354497402				ShowResult	Gain
38.0	2	167.88	0.016	789.559	2.58	1.0	23.5023	4.787	70.0	5.0	Outcome1	2.58	-0.41	0.0	No		2.9854497354497402				ISITrial	Gain
39.0	2	172.695	0.028	794.374	0.0	0.0	23.5023	3.0	70.0	5.0	Certain	-9.22	8.3	2864.25	Yes	4.0	-17.519274376417197	1.197	173.892		GetAnswer	Gain
39.0	2	173.911	0.019	795.59	0.0	0.0	23.5023	4.0	70.0	5.0	Certain	-9.22	8.3	2864.25	Yes		-17.519274376417197				ShowChoice	Gain
39.0	2	177.926	0.015	799.605	0.0	0.0	23.5023	1.0	70.0	5.0	Certain	-9.22	8.3	2864.25	Yes		-17.519274376417197				ShowResult	Gain
39.0	2	178.943	0.017	800.622	0.0	0.0	23.5023	2.348	70.0	5.0	Certain	-9.22	8.3	2864.25	Yes		-17.519274376417197				ISITrial	Gain
39.0	2	184.191	0.018	805.87	0.0	0.0	23.5023	2.789	70.0	5.0	Certain	-9.22	8.3	2864.25	Yes	2{-2}2{-2}	-17.519274376417197	2.789	186.98	672.0	TrialHappiness	Gain
39.0	2	188.206	4.015	809.885	0.0	0.0	23.5023	3.457	70.0	5.0	Certain	-9.22	8.3	2864.25	Yes		-17.519274376417197				ISIRate	Gain
40.0	2	191.688	0.025	813.367	0.0	0.0	23.5023	3.0	70.0	0.66	Certain	0.82	-2.29	0.0	No	4.0	3.11470143613001	1.11	192.798		GetAnswer	Mixed
40.0	2	192.821	0.023	814.5	0.0	0.0	23.5023	4.0	70.0	0.66	Certain	0.82	-2.29	0.0	No		3.11470143613001				ShowChoice	Mixed
40.0	2	196.836	0.015	818.515	0.0	0.0	23.5023	1.0	70.0	0.66	Certain	0.82	-2.29	0.0	No		3.11470143613001				ShowResult	Mixed
40.0	2	197.853	0.017	819.532	0.0	0.0	23.5023	3.158	70.0	0.66	Certain	0.82	-2.29	0.0	No		3.11470143613001				ISITrial	Mixed
41.0	2	201.035	0.024	822.714	-1.0	-1.0	23.3773	3.0	70.0	0.2	Certain	0.62	-2.55	4000.0	Yes	4.0	3.1715797430083104	1.559	202.594		GetAnswer	Mixed
41.0	2	202.618	0.024	824.297	-1.0	-1.0	23.3773	4.0	70.0	0.2	Certain	0.62	-2.55	4000.0	Yes		3.1715797430083104				ShowChoice	Mixed
41.0	2	206.633	0.015	828.312	-1.0	-1.0	23.3773	1.0	70.0	0.2	Certain	0.62	-2.55	4000.0	Yes		3.1715797430083104				ShowResult	Mixed
41.0	2	207.649	0.016	829.328	-1.0	-1.0	23.3773	4.506	70.0	0.2	Certain	0.62	-2.55	4000.0	Yes		3.1715797430083104				ISITrial	Mixed
41.0	2	216.196	0.015	837.875	-1.0	-1.0	23.3773	1.186	70.0	0.2	Certain	0.62	-2.55	4000.0	Yes		3.1715797430083104			672.0	TrialHappiness	Mixed
41.0	2	220.212	4.016	841.891	-1.0	-1.0	23.3773	8.0	70.0	0.2	Certain	0.62	-2.55	4000.0	Yes		3.1715797430083104				ISIRate	Mixed
42.0	2	228.242	0.03	849.921	0.0	0.0	23.3773	3.0	70.0	2.0	Certain	-2.0	1.23	0.0	No	4.0	3.22845804988662	1.171	229.413		GetAnswer	Gain
42.0	2	229.425	0.012	851.104	0.0	0.0	23.3773	4.0	70.0	2.0	Certain	-2.0	1.23	0.0	No		3.22845804988662				ShowChoice	Gain
42.0	2	233.44	0.015	855.119	0.0	0.0	23.3773	1.0	70.0	2.0	Certain	-2.0	1.23	0.0	No		3.22845804988662				ShowResult	Gain
42.0	2	234.457	0.017	856.136	0.0	0.0	23.3773	6.248	70.0	2.0	Certain	-2.0	1.23	0.0	No		3.22845804988662				ISITrial	Gain
43.0	2	240.721	0.016	862.4	-7.0	-7.0	22.5023	3.0	70.0	0.3	Certain	-17.61	2.7	2775.75	Yes	4.0	-20.312925170068	1.143	241.864		GetAnswer	Mixed
43.0	2	241.887	0.023	863.566	-7.0	-7.0	22.5023	4.0	70.0	0.3	Certain	-17.61	2.7	2775.75	Yes		-20.312925170068				ShowChoice	Mixed
43.0	2	245.903	0.016	867.582	-7.0	-7.0	22.5023	1.0	70.0	0.3	Certain	-17.61	2.7	2775.75	Yes		-20.312925170068				ShowResult	Mixed
43.0	2	246.919	0.016	868.598	-7.0	-7.0	22.5023	4.596	70.0	0.3	Certain	-17.61	2.7	2775.75	Yes		-20.312925170068				ISITrial	Mixed
43.0	2	254.333	0.023	876.012	-7.0	-7.0	22.5023	1.006	70.0	0.3	Certain	-17.61	2.7	2775.75	Yes		-20.312925170068			696.0	TrialHappiness	Mixed
43.0	2	258.348	4.015	880.027	-7.0	-7.0	22.5023	3.103	70.0	0.3	Certain	-17.61	2.7	2775.75	Yes		-20.312925170068				ISIRate	Mixed
44.0	2	261.48	0.029	883.159	-7.0	-7.0	21.6273	3.0	70.0	0.52	Certain	-18.3	3.1	0.0	No	4.0	-21.4036281179138	1.002	262.482		GetAnswer	Mixed
44.0	2	262.497	0.015	884.176	-7.0	-7.0	21.6273	4.0	70.0	0.52	Certain	-18.3	3.1	0.0	No		-21.4036281179138				ShowChoice	Mixed
44.0	2	266.512	0.015	888.191	-7.0	-7.0	21.6273	1.0	70.0	0.52	Certain	-18.3	3.1	0.0	No		-21.4036281179138				ShowResult	Mixed
44.0	2	267.528	0.016	889.207	-7.0	-7.0	21.6273	2.42	70.0	0.52	Certain	-18.3	3.1	0.0	No		-21.4036281179138				ISITrial	Mixed
45.0	2	269.977	0.029	891.656	0.0	0.0	21.6273	3.0	70.0	1.68	Certain	1.62	-1.88	0.0	No	4.0	3.49886621315193	1.114	271.091		GetAnswer	Gain
45.0	2	271.11	0.018	892.789	0.0	0.0	21.6273	4.0	70.0	1.68	Certain	1.62	-1.88	0.0	No		3.49886621315193				ShowChoice	Gain
45.0	2	275.126	0.016	896.805	0.0	0.0	21.6273	1.0	70.0	1.68	Certain	1.62	-1.88	0.0	No		3.49886621315193				ShowResult	Gain
45.0	2	276.142	0.016	897.821	0.0	0.0	21.6273	3.144	70.0	1.68	Certain	1.62	-1.88	0.0	No		3.49886621315193				ISITrial	Gain
46.0	2	279.307	0.021	900.986	-11.0	-11.0	20.2523	3.0	70.0	1.2	Certain	-22.92	-0.1	3841.25	Yes	4.0	-22.823129251700696	1.649	280.956		GetAnswer	Mixed
46.0	2	280.974	0.018	902.653	-11.0	-11.0	20.2523	4.0	70.0	1.2	Certain	-22.92	-0.1	3841.25	Yes		-22.823129251700696				ShowChoice	Mixed
46.0	2	284.989	0.015	906.668	-11.0	-11.0	20.2523	1.0	70.0	1.2	Certain	-22.92	-0.1	3841.25	Yes		-22.823129251700696				ShowResult	Mixed
46.0	2	286.005	0.016	907.684	-11.0	-11.0	20.2523	2.246	70.0	1.2	Certain	-22.92	-0.1	3841.25	Yes		-22.823129251700696				ISITrial	Mixed
46.0	2	292.136	0.024	913.815	-11.0	-11.0	20.2523	0.755	70.0	1.2	Certain	-22.92	-0.1	3841.25	Yes		-22.823129251700696			680.0	TrialHappiness	Mixed
46.0	2	296.151	4.015	917.83	-11.0	-11.0	20.2523	7.365	70.0	1.2	Certain	-22.92	-0.1	3841.25	Yes		-22.823129251700696				ISIRate	Mixed
47.0	2	303.549	0.033	925.228	-12.0	-12.0	18.7523	3.0	70.0	0.4	Certain	-24.36	-1.1	0.0	No	4.0	-23.2607709750567	1.035	304.584		GetAnswer	Mixed
47.0	2	304.599	0.015	926.278	-12.0	-12.0	18.7523	4.0	70.0	0.4	Certain	-24.36	-1.1	0.0	No		-23.2607709750567				ShowChoice	Mixed
47.0	2	308.614	0.015	930.293	-12.0	-12.0	18.7523	1.0	70.0	0.4	Certain	-24.36	-1.1	0.0	No		-23.2607709750567				ShowResult	Mixed
47.0	2	309.63	0.016	931.309	-12.0	-12.0	18.7523	2.0	70.0	0.4	Certain	-24.36	-1.1	0.0	No		-23.2607709750567				ISITrial	Mixed
48.0	2	311.663	0.033	933.342	0.0	0.0	18.7523	3.0	70.0	1.68	Certain	2.12	-1.49	2831.75	Yes	4.0	3.60978835978836	1.35	313.013		GetAnswer	Gain
48.0	2	313.029	0.016	934.708	0.0	0.0	18.7523	4.0	70.0	1.68	Certain	2.12	-1.49	2831.75	Yes		3.60978835978836				ShowChoice	Gain
48.0	2	317.044	0.015	938.723	0.0	0.0	18.7523	1.0	70.0	1.68	Certain	2.12	-1.49	2831.75	Yes		3.60978835978836				ShowResult	Gain
48.0	2	318.06	0.016	939.739	0.0	0.0	18.7523	3.692	70.0	1.68	Certain	2.12	-1.49	2831.75	Yes		3.60978835978836				ISITrial	Gain
48.0	2	324.625	0.017	946.304	0.0	0.0	18.7523	1.138	70.0	1.68	Certain	2.12	-1.49	2831.75	Yes		3.60978835978836			656.0	TrialHappiness	Gain
48.0	2	328.64	4.015	950.319	0.0	0.0	18.7523	3.327	70.0	1.68	Certain	2.12	-1.49	2831.75	Yes		3.60978835978836				ISIRate	Gain
49.0	2	331.989	0.022	953.668	-1.0	-1.0	18.6273	3.0	70.0	1.2	Certain	-3.09	0.48	0.0	No	4.0	3.56991685563114	1.322	333.311		GetAnswer	Mixed
49.0	2	333.338	0.027	955.017	-1.0	-1.0	18.6273	4.0	70.0	1.2	Certain	-3.09	0.48	0.0	No		3.56991685563114				ShowChoice	Mixed
49.0	2	337.354	0.016	959.033	-1.0	-1.0	18.6273	1.0	70.0	1.2	Certain	-3.09	0.48	0.0	No		3.56991685563114				ShowResult	Mixed
49.0	2	338.37	0.016	960.049	-1.0	-1.0	18.6273	8.0	70.0	1.2	Certain	-3.09	0.48	0.0	No		3.56991685563114				ISITrial	Mixed
50.0	2	346.4	0.03	968.079	0.0	0.0	18.6273	3.0	70.0	4.2	Certain	12.1	-12.8	3547.25	Yes	4.0	-24.900226757369598	1.509	347.909		GetAnswer	Loss
50.0	2	347.933	0.024	969.612	0.0	0.0	18.6273	4.0	70.0	4.2	Certain	12.1	-12.8	3547.25	Yes		-24.900226757369598				ShowChoice	Loss
50.0	2	351.949	0.016	973.628	0.0	0.0	18.6273	1.0	70.0	4.2	Certain	12.1	-12.8	3547.25	Yes		-24.900226757369598				ShowResult	Loss
50.0	2	352.965	0.016	974.644	0.0	0.0	18.6273	7.537	70.0	4.2	Certain	12.1	-12.8	3547.25	Yes		-24.900226757369598				ISITrial	Loss
50.0	2	364.094	0.018	985.773	0.0	0.0	18.6273	0.989	70.0	4.2	Certain	12.1	-12.8	3547.25	Yes		-24.900226757369598			672.0	TrialHappiness	Loss
50.0	2	368.109	4.015	989.788	0.0	0.0	18.6273	6.189	70.0	4.2	Certain	12.1	-12.8	3547.25	Yes		-24.900226757369598				ISIRate	Loss
51.0	2	374.324	0.026	996.003	-3.0	-3.0	18.2523	3.0	70.0	3.6	Certain	9.9	-15.94	0.0	No	4.0	-25.836734693877602	1.195	375.519		GetAnswer	Gain
51.0	2	375.54	0.021	997.219	-3.0	-3.0	18.2523	4.0	70.0	3.6	Certain	9.9	-15.94	0.0	No		-25.836734693877602				ShowChoice	Gain
51.0	2	379.555	0.015	1001.234	-3.0	-3.0	18.2523	1.0	70.0	3.6	Certain	9.9	-15.94	0.0	No		-25.836734693877602				ShowResult	Gain
51.0	2	380.572	0.017	1002.251	-3.0	-3.0	18.2523	5.508	70.0	3.6	Certain	9.9	-15.94	0.0	No		-25.836734693877602				ISITrial	Gain
52.0	2	386.103	0.023	1007.782	-2.0	-2.0	18.0023	3.0	70.0	2.0	Certain	0.08	-3.72	0.0	No	4.0	3.8025321239607	1.433	387.536		GetAnswer	Mixed
52.0	2	387.553	0.017	1009.232	-2.0	-2.0	18.0023	4.0	70.0	2.0	Certain	0.08	-3.72	0.0	No		3.8025321239607				ShowChoice	Mixed
52.0	2	391.568	0.015	1013.247	-2.0	-2.0	18.0023	1.0	70.0	2.0	Certain	0.08	-3.72	0.0	No		3.8025321239607				ShowResult	Mixed
52.0	2	392.584	0.016	1014.263	-2.0	-2.0	18.0023	5.913	70.0	2.0	Certain	0.08	-3.72	0.0	No		3.8025321239607				ISITrial	Mixed
53.0	2	398.515	0.018	1020.194	0.0	0.0	18.0023	3.0	70.0	2.22	Certain	13.1	-14.1	2996.75	Yes	4.0	-27.2018140589569	1.655	400.17		GetAnswer	Loss
53.0	2	400.182	0.012	1021.861	0.0	0.0	18.0023	4.0	70.0	2.22	Certain	13.1	-14.1	2996.75	Yes		-27.2018140589569				ShowChoice	Loss
53.0	2	404.197	0.015	1025.876	0.0	0.0	18.0023	1.0	70.0	2.22	Certain	13.1	-14.1	2996.75	Yes		-27.2018140589569				ShowResult	Loss
53.0	2	405.213	0.016	1026.892	0.0	0.0	18.0023	3.66	70.0	2.22	Certain	13.1	-14.1	2996.75	Yes		-27.2018140589569				ISITrial	Loss
53.0	2	411.911	0.019	1033.59	0.0	0.0	18.0023	0.839	70.0	2.22	Certain	13.1	-14.1	2996.75	Yes		-27.2018140589569			680.0	TrialHappiness	Loss
53.0	2	415.926	4.015	1037.605	0.0	0.0	18.0023	3.987	70.0	2.22	Certain	13.1	-14.1	2996.75	Yes		-27.2018140589569				ISIRate	Loss
54.0	2	419.941	0.028	1041.62	-4.0	-4.0	17.5023	3.0	70.0	3.16	Certain	-18.32	9.7	0.0	No	4.0	-28.0204081632653	1.208	421.149		GetAnswer	Gain
54.0	2	421.174	0.025	1042.853	-4.0	-4.0	17.5023	4.0	70.0	3.16	Certain	-18.32	9.7	0.0	No		-28.0204081632653				ShowChoice	Gain
54.0	2	425.189	0.015	1046.868	-4.0	-4.0	17.5023	1.0	70.0	3.16	Certain	-18.32	9.7	0.0	No		-28.0204081632653				ShowResult	Gain
54.0	2	426.206	0.017	1047.885	-4.0	-4.0	17.5023	8.0	70.0	3.16	Certain	-18.32	9.7	0.0	No		-28.0204081632653				ISITrial	Gain
	2	434.236	0.03	1055.915				-0.001								{SPACE}		30.224	464.46		Rest	
	2	464.476	0.016	1086.155				4.0													BlockHappyPreview	
	2	468.491	0.015	1090.17				0.772												656.0	BlockStartHappiness	
	2	480.32	0.02	1101.999				-0.001								5.0		7.362	487.682		ScanWait	
	3	0.018	0.018	1109.38				10.0													GetReady	
55.0	3	10.031	0.013	1119.393	8.7	1.81	18.5898	3.0	955.0	1.82	Outcome1	8.7	3.62	2533.25	Yes	2.0	5.0792751981879904	1.006	11.037		GetAnswer	Gain
55.0	3	11.064	0.027	1120.426	8.7	1.81	18.5898	4.0	955.0	1.82	Outcome1	8.7	3.62	2533.25	Yes		5.0792751981879904				ShowChoice	Gain
55.0	3	15.079	0.015	1124.441	8.7	1.81	18.5898	1.0	955.0	1.82	Outcome1	8.7	3.62	2533.25	Yes		5.0792751981879904				ShowResult	Gain
55.0	3	16.095	0.016	1125.457	8.7	1.81	18.5898	7.709	955.0	1.82	Outcome1	8.7	3.62	2533.25	Yes		5.0792751981879904				ISITrial	Gain
55.0	3	26.375	0.016	1135.737	8.7	1.81	18.5898	1.122	955.0	1.82	Outcome1	8.7	3.62	2533.25	Yes		5.0792751981879904			680.0	TrialHappiness	Gain
55.0	3	30.39	4.015	1139.752	8.7	1.81	18.5898	2.133	955.0	1.82	Outcome1	8.7	3.62	2533.25	Yes		5.0792751981879904				ISIRate	Gain
56.0	3	32.54	0.017	1141.902	-1.0	-1.0	18.4648	3.0	955.0	1.0	Certain	-0.3	-1.44	0.0	No	4.0	-1.1442053605134	1.063	33.603		GetAnswer	Mixed
56.0	3	33.623	0.02	1142.985	-1.0	-1.0	18.4648	4.0	955.0	1.0	Certain	-0.3	-1.44	0.0	No		-1.1442053605134				ShowChoice	Mixed
56.0	3	37.638	0.015	1147.0	-1.0	-1.0	18.4648	1.0	955.0	1.0	Certain	-0.3	-1.44	0.0	No		-1.1442053605134				ShowResult	Mixed
56.0	3	38.654	0.016	1148.016	-1.0	-1.0	18.4648	4.697	955.0	1.0	Certain	-0.3	-1.44	0.0	No		-1.1442053605134				ISITrial	Mixed
57.0	3	43.369	0.018	1152.731	8.1	1.39	19.4773	3.0	955.0	4.2	Outcome2	2.78	8.1	0.0	No	2.0	5.321630804077009	1.218	44.587		GetAnswer	Gain
57.0	3	44.602	0.015	1153.964	8.1	1.39	19.4773	4.0	955.0	4.2	Outcome2	2.78	8.1	0.0	No		5.321630804077009				ShowChoice	Gain
57.0	3	48.617	0.015	1157.979	8.1	1.39	19.4773	1.0	955.0	4.2	Outcome2	2.78	8.1	0.0	No		5.321630804077009				ShowResult	Gain
57.0	3	49.634	0.017	1158.996	8.1	1.39	19.4773	4.291	955.0	4.2	Outcome2	2.78	8.1	0.0	No		5.321630804077009				ISITrial	Gain
58.0	3	53.949	0.024	1163.311	7.3	0.84	20.3898	3.0	955.0	2.48	Outcome2	1.67	7.3	3045.75	Yes	2.0	5.63306908267271	1.016	54.965		GetAnswer	Gain
58.0	3	54.982	0.017	1164.344	7.3	0.84	20.3898	4.0	955.0	2.48	Outcome2	1.67	7.3	3045.75	Yes		5.63306908267271				ShowChoice	Gain
58.0	3	58.997	0.015	1168.359	7.3	0.84	20.3898	1.0	955.0	2.48	Outcome2	1.67	7.3	3045.75	Yes		5.63306908267271				ShowResult	Gain
58.0	3	60.013	0.016	1169.375	7.3	0.84	20.3898	2.037	955.0	2.48	Outcome2	1.67	7.3	3045.75	Yes		5.63306908267271				ISITrial	Gain
58.0	3	65.128	0.019	1174.49	7.3	0.84	20.3898	1.331	955.0	2.48	Outcome2	1.67	7.3	3045.75	Yes		5.63306908267271			676.0	TrialHappiness	Gain
58.0	3	69.143	4.015	1178.505	7.3	0.84	20.3898	4.183	955.0	2.48	Outcome2	1.67	7.3	3045.75	Yes		5.63306908267271				ISIRate	Gain
59.0	3	73.359	0.033	1182.721	11.66	5.83	21.8473	3.0	955.0	2.0	Outcome1	11.66	12.9	0.0	No	2.0	-1.23829747074368	1.134	74.493		GetAnswer	Loss
59.0	3	74.508	0.015	1183.87	11.66	5.83	21.8473	4.0	955.0	2.0	Outcome1	11.66	12.9	0.0	No		-1.23829747074368				ShowChoice	Loss
59.0	3	78.523	0.015	1187.885	11.66	5.83	21.8473	1.0	955.0	2.0	Outcome1	11.66	12.9	0.0	No		-1.23829747074368				ShowResult	Loss
59.0	3	79.54	0.017	1188.902	11.66	5.83	21.8473	5.064	955.0	2.0	Outcome1	11.66	12.9	0.0	No		-1.23829747074368				ISITrial	Loss
60.0	3	84.621	0.017	1193.983	5.1	2.0	22.4848	3.0	955.0	2.22	Outcome2	-1.23	5.1	3562.5	Yes	2.0	6.32842582106455	0.266	84.887		GetAnswer	Gain
60.0	3	84.904	0.017	1194.266	5.1	2.0	22.4848	4.0	955.0	2.22	Outcome2	-1.23	5.1	3562.5	Yes		6.32842582106455				ShowChoice	Gain
60.0	3	88.92	0.016	1198.282	5.1	2.0	22.4848	1.0	955.0	2.22	Outcome2	-1.23	5.1	3562.5	Yes		6.32842582106455				ShowResult	Gain
60.0	3	89.936	0.016	1199.298	5.1	2.0	22.4848	8.0	955.0	2.22	Outcome2	-1.23	5.1	3562.5	Yes		6.32842582106455				ISITrial	Gain
60.0	3	101.532	0.02	1210.894	5.1	2.0	22.4848	0.872	955.0	2.22	Outcome2	-1.23	5.1	3562.5	Yes		6.32842582106455			680.0	TrialHappiness	Gain
60.0	3	105.547	4.015	1214.909	5.1	2.0	22.4848	6.25	955.0	2.22	Outcome2	-1.23	5.1	3562.5	Yes		6.32842582106455				ISIRate	Gain
61.0	3	111.828	0.031	1221.19	10.5	1.96	23.7973	3.0	955.0	1.68	Outcome1	10.5	3.92	0.0	No	2.0	6.576443941109849	1.24	113.068		GetAnswer	Loss
61.0	3	113.095	0.027	1222.457	10.5	1.96	23.7973	4.0	955.0	1.68	Outcome1	10.5	3.92	0.0	No		6.576443941109849				ShowChoice	Loss
61.0	3	117.11	0.015	1226.472	10.5	1.96	23.7973	1.0	955.0	1.68	Outcome1	10.5	3.92	0.0	No		6.576443941109849				ShowResult	Loss
61.0	3	118.126	0.016	1227.488	10.5	1.96	23.7973	4.586	955.0	1.68	Outcome1	10.5	3.92	0.0	No		6.576443941109849				ISITrial	Loss
62.0	3	122.741	0.029	1232.103	-2.0	-2.0	23.5473	3.0	955.0	0.4	Certain	0.9	-5.99	3748.75	Yes	4.0	6.887882219705549	1.175	123.916		GetAnswer	Mixed
62.0	3	123.941	0.025	1233.303	-2.0	-2.0	23.5473	4.0	955.0	0.4	Certain	0.9	-5.99	3748.75	Yes		6.887882219705549				ShowChoice	Mixed
62.0	3	127.956	0.015	1237.318	-2.0	-2.0	23.5473	1.0	955.0	0.4	Certain	0.9	-5.99	3748.75	Yes		6.887882219705549				ShowResult	Mixed
62.0	3	128.972	0.016	1238.334	-2.0	-2.0	23.5473	5.212	955.0	0.4	Certain	0.9	-5.99	3748.75	Yes		6.887882219705549				ISITrial	Mixed
62.0	3	137.969	0.016	1247.331	-2.0	-2.0	23.5473	1.072	955.0	0.4	Certain	0.9	-5.99	3748.75	Yes		6.887882219705549			704.0	TrialHappiness	Mixed
62.0	3	141.984	4.015	1251.346	-2.0	-2.0	23.5473	6.995	955.0	0.4	Certain	0.9	-5.99	3748.75	Yes		6.887882219705549				ISIRate	Mixed
63.0	3	148.999	0.02	1258.361	0.0	0.0	23.5473	3.0	955.0	0.52	Certain	1.1	-0.13	0.0	No	4.0	-1.2292374480936201	1.155	150.154		GetAnswer	Mixed
63.0	3	150.165	0.011	1259.527	0.0	0.0	23.5473	4.0	955.0	0.52	Certain	1.1	-0.13	0.0	No		-1.2292374480936201				ShowChoice	Mixed
63.0	3	154.18	0.015	1263.542	0.0	0.0	23.5473	1.0	955.0	0.52	Certain	1.1	-0.13	0.0	No		-1.2292374480936201				ShowResult	Mixed
63.0	3	155.196	0.016	1264.558	0.0	0.0	23.5473	5.595	955.0	0.52	Certain	1.1	-0.13	0.0	No		-1.2292374480936201				ISITrial	Mixed
64.0	3	160.811	0.02	1270.173	-0.09	-0.09	23.535999999999998	3.0	955.0	2.0	Certain	-0.18	6.9	0.0	No	4.0	7.07587768969422	1.518	162.329		GetAnswer	Gain
64.0	3	162.344	0.015	1271.706	-0.09	-0.09	23.535999999999998	4.0	955.0	2.0	Certain	-0.18	6.9	0.0	No		7.07587768969422				ShowChoice	Gain
64.0	3	166.359	0.015	1275.721	-0.09	-0.09	23.535999999999998	1.0	955.0	2.0	Certain	-0.18	6.9	0.0	No		7.07587768969422				ShowResult	Gain
64.0	3	167.375	0.016	1276.737	-0.09	-0.09	23.535999999999998	5.47	955.0	2.0	Certain	-0.18	6.9	0.0	No		7.07587768969422				ISITrial	Gain
65.0	3	172.873	0.028	1282.235	-2.0	-2.0	23.285999999999998	3.0	955.0	1.0	Certain	1.7	-5.66	2996.75	Yes	4.0	7.36013590033975	1.334	174.207		GetAnswer	Mixed
65.0	3	174.223	0.016	1283.585	-2.0	-2.0	23.285999999999998	4.0	955.0	1.0	Certain	1.7	-5.66	2996.75	Yes		7.36013590033975				ShowChoice	Mixed
65.0	3	178.238	0.015	1287.6	-2.0	-2.0	23.285999999999998	1.0	955.0	1.0	Certain	1.7	-5.66	2996.75	Yes		7.36013590033975				ShowResult	Mixed
65.0	3	179.255	0.017	1288.617	-2.0	-2.0	23.285999999999998	3.344	955.0	1.0	Certain	1.7	-5.66	2996.75	Yes		7.36013590033975				ISITrial	Mixed
65.0	3	185.636	0.019	1294.998	-2.0	-2.0	23.285999999999998	3.34	955.0	1.0	Certain	1.7	-5.66	2996.75	Yes		7.36013590033975			656.0	TrialHappiness	Mixed
65.0	3	189.651	4.015	1299.013	-2.0	-2.0	23.285999999999998	3.987	955.0	1.0	Certain	1.7	-5.66	2996.75	Yes		7.36013590033975				ISIRate	Mixed
66.0	3	193.666	0.028	1303.028	-4.0	-4.0	22.785999999999998	3.0	955.0	0.82	Certain	-8.96	-0.5	0.0	No	4.0	8.45979614949037	1.067	194.733		GetAnswer	Mixed
66.0	3	194.749	0.016	1304.111	-4.0	-4.0	22.785999999999998	4.0	955.0	0.82	Certain	-8.96	-0.5	0.0	No		8.45979614949037				ShowChoice	Mixed
66.0	3	198.764	0.015	1308.126	-4.0	-4.0	22.785999999999998	1.0	955.0	0.82	Certain	-8.96	-0.5	0.0	No		8.45979614949037				ShowResult	Mixed
66.0	3	199.781	0.017	1309.143	-4.0	-4.0	22.785999999999998	3.959	955.0	0.82	Certain	-8.96	-0.5	0.0	No		8.45979614949037				ISITrial	Mixed
67.0	3	203.763	0.023	1313.125	-5.0	-5.0	22.160999999999998	3.0	955.0	0.66	Certain	-9.5	-0.7	2918.5	Yes	4.0	8.79841449603624	1.026	204.789		GetAnswer	Mixed
67.0	3	204.812	0.023	1314.174	-5.0	-5.0	22.160999999999998	4.0	955.0	0.66	Certain	-9.5	-0.7	2918.5	Yes		8.79841449603624				ShowChoice	Mixed
67.0	3	208.827	0.015	1318.189	-5.0	-5.0	22.160999999999998	1.0	955.0	0.66	Certain	-9.5	-0.7	2918.5	Yes		8.79841449603624				ShowResult	Mixed
67.0	3	209.844	0.017	1319.206	-5.0	-5.0	22.160999999999998	4.199	955.0	0.66	Certain	-9.5	-0.7	2918.5	Yes		8.79841449603624				ISITrial	Mixed
67.0	3	217.008	0.031	1326.37	-5.0	-5.0	22.160999999999998	1.486	955.0	0.66	Certain	-9.5	-0.7	2918.5	Yes		8.79841449603624			692.0	TrialHappiness	Mixed
67.0	3	221.023	4.015	1330.385	-5.0	-5.0	22.160999999999998	3.674	955.0	0.66	Certain	-9.5	-0.7	2918.5	Yes		8.79841449603624				ISIRate	Mixed
68.0	3	224.722	0.025	1334.084	2.08	2.08	22.421	3.0	955.0	1.82	Certain	4.17	12.7	0.0	No	4.0	8.525481313703281	0.963	225.685		GetAnswer	Loss
68.0	3	225.705	0.02	1335.067	2.08	2.08	22.421	4.0	955.0	1.82	Certain	4.17	12.7	0.0	No		8.525481313703281				ShowChoice	Loss
68.0	3	229.72	0.015	1339.082	2.08	2.08	22.421	1.0	955.0	1.82	Certain	4.17	12.7	0.0	No		8.525481313703281				ShowResult	Loss
68.0	3	230.736	0.016	1340.098	2.08	2.08	22.421	2.185	955.0	1.82	Certain	4.17	12.7	0.0	No		8.525481313703281				ISITrial	Loss
69.0	3	232.952	0.031	1342.314	5.3	1.0	23.0835	3.0	955.0	2.48	Outcome2	-3.52	5.3	0.0	No	2.0	8.8233295583239	1.604	234.556		GetAnswer	Gain
69.0	3	234.568	0.012	1343.93	5.3	1.0	23.0835	4.0	955.0	2.48	Outcome2	-3.52	5.3	0.0	No		8.8233295583239				ShowChoice	Gain
69.0	3	238.584	0.016	1347.946	5.3	1.0	23.0835	1.0	955.0	2.48	Outcome2	-3.52	5.3	0.0	No		8.8233295583239				ShowResult	Gain
69.0	3	239.6	0.016	1348.962	5.3	1.0	23.0835	2.0	955.0	2.48	Outcome2	-3.52	5.3	0.0	No		8.8233295583239				ISITrial	Gain
70.0	3	241.616	0.016	1350.978	5.9	1.0	23.820999999999998	3.0	955.0	3.6	Outcome1	5.9	-3.22	3651.25	Yes	2.0	9.12117780294451	1.7	243.316		GetAnswer	Gain
70.0	3	243.332	0.016	1352.694	5.9	1.0	23.820999999999998	4.0	955.0	3.6	Outcome1	5.9	-3.22	3651.25	Yes		9.12117780294451				ShowChoice	Gain
70.0	3	247.347	0.015	1356.709	5.9	1.0	23.820999999999998	1.0	955.0	3.6	Outcome1	5.9	-3.22	3651.25	Yes		9.12117780294451				ShowResult	Gain
70.0	3	248.364	0.017	1357.726	5.9	1.0	23.820999999999998	2.623	955.0	3.6	Outcome1	5.9	-3.22	3651.25	Yes		9.12117780294451				ISITrial	Gain
70.0	3	254.695	0.031	1364.057	5.9	1.0	23.820999999999998	0.855	955.0	3.6	Outcome1	5.9	-3.22	3651.25	Yes		9.12117780294451			672.0	TrialHappiness	Gain
70.0	3	258.71	4.015	1368.072	5.9	1.0	23.820999999999998	6.605	955.0	3.6	Outcome1	5.9	-3.22	3651.25	Yes		9.12117780294451				ISIRate	Gain
71.0	3	265.341	0.026	1374.703	9.3	-0.23	24.9835	3.0	955.0	2.48	Outcome1	9.3	-0.46	0.0	No	2.0	9.75877689694224	1.57	266.911		GetAnswer	Gain
71.0	3	266.924	0.013	1376.286	9.3	-0.23	24.9835	4.0	955.0	2.48	Outcome1	9.3	-0.46	0.0	No		9.75877689694224				ShowChoice	Gain
71.0	3	270.939	0.015	1380.301	9.3	-0.23	24.9835	1.0	955.0	2.48	Outcome1	9.3	-0.46	0.0	No		9.75877689694224				ShowResult	Gain
71.0	3	271.955	0.016	1381.317	9.3	-0.23	24.9835	5.499	955.0	2.48	Outcome1	9.3	-0.46	0.0	No		9.75877689694224				ISITrial	Gain
72.0	3	277.487	0.033	1386.849	4.7	0.0	25.570999999999998	3.0	955.0	1.82	Outcome2	-5.38	4.7	3080.5	Yes	2.0	10.079275198188	1.612	279.099		GetAnswer	Gain
72.0	3	279.119	0.02	1388.481	4.7	0.0	25.570999999999998	4.0	955.0	1.82	Outcome2	-5.38	4.7	3080.5	Yes		10.079275198188				ShowChoice	Gain
72.0	3	283.135	0.016	1392.497	4.7	0.0	25.570999999999998	1.0	955.0	1.82	Outcome2	-5.38	4.7	3080.5	Yes		10.079275198188				ShowResult	Gain
72.0	3	284.151	0.016	1393.513	4.7	0.0	25.570999999999998	5.672	955.0	1.82	Outcome2	-5.38	4.7	3080.5	Yes		10.079275198188				ISITrial	Gain
72.0	3	292.948	0.019	1402.31	4.7	0.0	25.570999999999998	1.106	955.0	1.82	Outcome2	-5.38	4.7	3080.5	Yes		10.079275198188			656.0	TrialHappiness	Gain
72.0	3	296.963	4.015	1406.325	4.7	0.0	25.570999999999998	4.322	955.0	1.82	Outcome2	-5.38	4.7	3080.5	Yes		10.079275198188				ISIRate	Gain
73.0	3	301.312	0.027	1410.674	4.62	2.31	26.1485	3.0	955.0	5.0	Outcome1	4.62	6.3	0.0	No	2.0	-1.6794073235183102	1.185	302.497		GetAnswer	Gain
73.0	3	302.511	0.014	1411.873	4.62	2.31	26.1485	4.0	955.0	5.0	Outcome1	4.62	6.3	0.0	No		-1.6794073235183102				ShowChoice	Gain
73.0	3	306.526	0.015	1415.888	4.62	2.31	26.1485	1.0	955.0	5.0	Outcome1	4.62	6.3	0.0	No		-1.6794073235183102				ShowResult	Gain
73.0	3	307.543	0.017	1416.905	4.62	2.31	26.1485	4.616	955.0	5.0	Outcome1	4.62	6.3	0.0	No		-1.6794073235183102				ISITrial	Gain
74.0	3	312.191	0.032	1421.553	-1.0	-1.0	26.0235	3.0	955.0	1.2	Certain	-7.11	3.9	3056.25	Yes	4.0	11.010192525481301	1.165	313.356		GetAnswer	Mixed
74.0	3	313.374	0.018	1422.736	-1.0	-1.0	26.0235	4.0	955.0	1.2	Certain	-7.11	3.9	3056.25	Yes		11.010192525481301				ShowChoice	Mixed
74.0	3	317.389	0.015	1426.751	-1.0	-1.0	26.0235	1.0	955.0	1.2	Certain	-7.11	3.9	3056.25	Yes		11.010192525481301				ShowResult	Mixed
74.0	3	318.406	0.017	1427.768	-1.0	-1.0	26.0235	3.909	955.0	1.2	Certain	-7.11	3.9	3056.25	Yes		11.010192525481301				ISITrial	Mixed
74.0	3	325.42	0.027	1434.782	-1.0	-1.0	26.0235	1.573	955.0	1.2	Certain	-7.11	3.9	3056.25	Yes		11.010192525481301			696.0	TrialHappiness	Mixed
74.0	3	329.435	4.015	1438.797	-1.0	-1.0	26.0235	4.225	955.0	1.2	Certain	-7.11	3.9	3056.25	Yes		11.010192525481301				ISIRate	Mixed
75.0	3	333.683	0.023	1443.045	-5.0	-5.0	25.3985	3.0	955.0	1.5	Certain	-10.57	0.1	0.0	No	4.0	10.6693091732729	1.157	334.84		GetAnswer	Mixed
75.0	3	334.866	0.026	1444.228	-5.0	-5.0	25.3985	4.0	955.0	1.5	Certain	-10.57	0.1	0.0	No		10.6693091732729				ShowChoice	Mixed
75.0	3	338.882	0.016	1448.244	-5.0	-5.0	25.3985	1.0	955.0	1.5	Certain	-10.57	0.1	0.0	No		10.6693091732729				ShowResult	Mixed
75.0	3	339.898	0.016	1449.26	-5.0	-5.0	25.3985	4.979	955.0	1.5	Certain	-10.57	0.1	0.0	No		10.6693091732729				ISITrial	Mixed
76.0	3	344.896	0.019	1454.258	5.9	2.95	26.136	3.0	955.0	2.8	Outcome1	5.9	7.5	0.0	No	2.0	-1.59796149490374	1.05	345.946		GetAnswer	Gain
76.0	3	345.962	0.016	1455.324	5.9	2.95	26.136	4.0	955.0	2.8	Outcome1	5.9	7.5	0.0	No		-1.59796149490374				ShowChoice	Gain
76.0	3	349.978	0.016	1459.34	5.9	2.95	26.136	1.0	955.0	2.8	Outcome1	5.9	7.5	0.0	No		-1.59796149490374				ShowResult	Gain
76.0	3	350.994	0.016	1460.356	5.9	2.95	26.136	3.931	955.0	2.8	Outcome1	5.9	7.5	0.0	No		-1.59796149490374				ISITrial	Gain
77.0	3	354.943	0.018	1464.305	1.0	1.0	26.261	3.0	955.0	1.82	Certain	-4.56	6.7	4000.0	Yes	4.0	11.255945639864098	1.016	355.959		GetAnswer	Gain
77.0	3	355.976	0.017	1465.338	1.0	1.0	26.261	4.0	955.0	1.82	Certain	-4.56	6.7	4000.0	Yes		11.255945639864098				ShowChoice	Gain
77.0	3	359.991	0.015	1469.353	1.0	1.0	26.261	1.0	955.0	1.82	Certain	-4.56	6.7	4000.0	Yes		11.255945639864098				ShowResult	Gain
77.0	3	361.007	0.016	1470.369	1.0	1.0	26.261	7.022	955.0	1.82	Certain	-4.56	6.7	4000.0	Yes		11.255945639864098				ISITrial	Gain
77.0	3	372.087	0.032	1481.449	1.0	1.0	26.261	2.446	955.0	1.82	Certain	-4.56	6.7	4000.0	Yes		11.255945639864098			716.0	TrialHappiness	Gain
77.0	3	376.102	4.015	1485.464	1.0	1.0	26.261	8.0	955.0	1.82	Certain	-4.56	6.7	4000.0	Yes		11.255945639864098				ISIRate	Gain
78.0	3	384.132	0.03	1493.494	-0.26	-0.26	26.2285	3.0	955.0	1.82	Certain	-0.51	10.7	0.0	No	4.0	11.209513023782598	1.237	385.369		GetAnswer	Loss
78.0	3	385.382	0.012	1494.744	-0.26	-0.26	26.2285	4.0	955.0	1.82	Certain	-0.51	10.7	0.0	No		11.209513023782598				ShowChoice	Loss
78.0	3	389.397	0.015	1498.759	-0.26	-0.26	26.2285	1.0	955.0	1.82	Certain	-0.51	10.7	0.0	No		11.209513023782598				ShowResult	Loss
78.0	3	390.413	0.016	1499.775	-0.26	-0.26	26.2285	2.078	955.0	1.82	Certain	-0.51	10.7	0.0	No		11.209513023782598				ISITrial	Loss
79.0	3	392.513	0.022	1501.875	6.5	1.0	27.041	3.0	955.0	1.68	Outcome1	6.5	-4.98	2729.5	Yes	2.0	11.480181200453	1.608	394.121		GetAnswer	Gain
79.0	3	394.146	0.025	1503.508	6.5	1.0	27.041	4.0	955.0	1.68	Outcome1	6.5	-4.98	2729.5	Yes		11.480181200453				ShowChoice	Gain
79.0	3	398.161	0.015	1507.523	6.5	1.0	27.041	1.0	955.0	1.68	Outcome1	6.5	-4.98	2729.5	Yes		11.480181200453				ShowResult	Gain
79.0	3	399.177	0.016	1508.539	6.5	1.0	27.041	3.829	955.0	1.68	Outcome1	6.5	-4.98	2729.5	Yes		11.480181200453				ISITrial	Gain
79.0	3	405.775	0.019	1515.137	6.5	1.0	27.041	0.939	955.0	1.68	Outcome1	6.5	-4.98	2729.5	Yes		11.480181200453			672.0	TrialHappiness	Gain
79.0	3	409.79	4.015	1519.152	6.5	1.0	27.041	2.918	955.0	1.68	Outcome1	6.5	-4.98	2729.5	Yes		11.480181200453				ISIRate	Gain
80.0	3	412.739	0.031	1522.101	-6.0	-6.0	26.291	3.0	955.0	2.0	Certain	0.3	-12.2	0.0	No	4.0	12.4983012457531	1.412	414.151		GetAnswer	Mixed
80.0	3	414.172	0.021	1523.534	-6.0	-6.0	26.291	4.0	955.0	2.0	Certain	0.3	-12.2	0.0	No		12.4983012457531				ShowChoice	Mixed
80.0	3	418.187	0.015	1527.549	-6.0	-6.0	26.291	1.0	955.0	2.0	Certain	0.3	-12.2	0.0	No		12.4983012457531				ShowResult	Mixed
80.0	3	419.203	0.016	1528.565	-6.0	-6.0	26.291	3.336	955.0	2.0	Certain	0.3	-12.2	0.0	No		12.4983012457531				ISITrial	Mixed
81.0	3	422.569	0.03	1531.931	11.5	-0.66	27.7285	3.0	955.0	2.8	Outcome1	11.5	-1.32	3923.75	Yes	2.0	12.818799546998902	1.482	424.051		GetAnswer	Loss
81.0	3	424.068	0.017	1533.43	11.5	-0.66	27.7285	4.0	955.0	2.8	Outcome1	11.5	-1.32	3923.75	Yes		12.818799546998902				ShowChoice	Loss
81.0	3	428.084	0.016	1537.446	11.5	-0.66	27.7285	1.0	955.0	2.8	Outcome1	11.5	-1.32	3923.75	Yes		12.818799546998902				ShowResult	Loss
81.0	3	429.1	0.016	1538.462	11.5	-0.66	27.7285	3.919	955.0	2.8	Outcome1	11.5	-1.32	3923.75	Yes		12.818799546998902				ISITrial	Loss
81.0	3	436.98	0.024	1546.342	11.5	-0.66	27.7285	2.416	955.0	2.8	Outcome1	11.5	-1.32	3923.75	Yes	2{-2}2{-2}2{-2}	12.818799546998902	2.416	439.396	660.0	TrialHappiness	Loss
81.0	3	440.996	4.016	1550.358	11.5	-0.66	27.7285	7.695	955.0	2.8	Outcome1	11.5	-1.32	3923.75	Yes		12.818799546998902				ISIRate	Loss
	3	448.71	0.019	1558.072				3.0													CurrentEarnings	
	3	451.725	0.015	1561.087				-0.001								{SPACE}		10.545	462.27		Goodbye	
