trial_number	block	onset	onset_delay	onset_unadjusted	amount_change	certain_amount	current_amount	duration	mood_target	multiplier	outcome	outcome1_amount	outcome2_amount	question_duration	rating	response	rpe	rt	rt_time	slider_response	trial_phase	trial_type
	0	-37.284	0.017	11.313				-0.001								{SPACE}		3.759	-33.525		Welcome	
	0	-33.498	0.027	15.099				5.0													LifeHappyPreview	
	0	-28.467	0.031	20.13				2.476												412.0	LifeHappiness	
	0	-17.487	0.029	31.11				4.0													BlockHappyPreview	
	0	-13.472	0.015	35.125				1.086												452.0	BlockStartHappiness	
	0	-4.158	0.024	44.439				-0.001								5.0					ScanWait	
	1	0.024	0.024	48.621				10.0													GetReady	
1.0	1	10.053	0.029	58.65	8.7	0.08	11.0875	3.0	955.0	1.82	Outcome1	8.7	0.16	0.0	No	2.0	8.54473386183465	1.521	11.574		GetAnswer	Gain
1.0	1	11.603	0.029	60.2	8.7	0.08	11.0875	4.0	955.0	1.82	Outcome1	8.7	0.16	0.0	No		8.54473386183465				ShowChoice	Gain
1.0	1	15.618	0.015	64.215	8.7	0.08	11.0875	1.0	955.0	1.82	Outcome1	8.7	0.16	0.0	No		8.54473386183465				ShowResult	Gain
1.0	1	16.634	0.016	65.231	8.7	0.08	11.0875	2.431	955.0	1.82	Outcome1	8.7	0.16	0.0	No		8.54473386183465				ISITrial	Gain
2.0	1	19.084	0.019	67.681	3.41	1.7	11.5137	3.0	955.0	2.8	Outcome1	3.41	5.5	0.0	No	2.0	-2.0887127217818002	1.345	20.429		GetAnswer	Gain
2.0	1	20.45	0.021	69.047	3.41	1.7	11.5137	4.0	955.0	2.8	Outcome1	3.41	5.5	0.0	No		-2.0887127217818002				ShowChoice	Gain
2.0	1	24.465	0.015	73.062	3.41	1.7	11.5137	1.0	955.0	2.8	Outcome1	3.41	5.5	0.0	No		-2.0887127217818002				ShowResult	Gain
2.0	1	25.481	0.016	74.078	3.41	1.7	11.5137	4.568	955.0	2.8	Outcome1	3.41	5.5	0.0	No		-2.0887127217818002				ISITrial	Gain
3.0	1	30.08	0.031	78.677	4.16	2.08	12.0337	3.0	955.0	5.0	Outcome1	4.16	6.3	2868.0	Yes	2.0	-2.13618346545866	1.195	31.275		GetAnswer	Gain
3.0	1	31.296	0.021	79.893	4.16	2.08	12.0337	4.0	955.0	5.0	Outcome1	4.16	6.3	2868.0	Yes		-2.13618346545866				ShowChoice	Gain
3.0	1	35.311	0.015	83.908	4.16	2.08	12.0337	1.0	955.0	5.0	Outcome1	4.16	6.3	2868.0	Yes		-2.13618346545866				ShowResult	Gain
3.0	1	36.328	0.017	84.925	4.16	2.08	12.0337	3.243	955.0	5.0	Outcome1	4.16	6.3	2868.0	Yes		-2.13618346545866				ISITrial	Gain
3.0	1	42.492	0.031	91.089	4.16	2.08	12.0337	2.773	955.0	5.0	Outcome1	4.16	6.3	2868.0	Yes		-2.13618346545866			568.0	TrialHappiness	Gain
3.0	1	46.507	4.015	95.104	4.16	2.08	12.0337	3.472	955.0	5.0	Outcome1	4.16	6.3	2868.0	Yes		-2.13618346545866				ISIRate	Gain
4.0	1	50.006	0.027	98.603	1.0	1.0	12.1587	3.0	955.0	2.48	Certain	5.3	-2.98	0.0	No	4.0	8.28312570781427	1.266	51.272		GetAnswer	Gain
4.0	1	51.289	0.017	99.886	1.0	1.0	12.1587	4.0	955.0	2.48	Certain	5.3	-2.98	0.0	No		8.28312570781427				ShowChoice	Gain
4.0	1	55.304	0.015	103.901	1.0	1.0	12.1587	1.0	955.0	2.48	Certain	5.3	-2.98	0.0	No		8.28312570781427				ShowResult	Gain
4.0	1	56.321	0.017	104.918	1.0	1.0	12.1587	2.011	955.0	2.48	Certain	5.3	-2.98	0.0	No		8.28312570781427				ISITrial	Gain
5.0	1	58.353	0.021	106.95	0.0	0.0	12.1587	3.0	955.0	2.0	Certain	0.3	-1.45	2582.5	Yes	4.0	-1.74943374858437	1.287	59.64		GetAnswer	Mixed
5.0	1	59.653	0.013	108.25	0.0	0.0	12.1587	4.0	955.0	2.0	Certain	0.3	-1.45	2582.5	Yes		-1.74943374858437				ShowChoice	Mixed
5.0	1	63.668	0.015	112.265	0.0	0.0	12.1587	1.0	955.0	2.0	Certain	0.3	-1.45	2582.5	Yes		-1.74943374858437				ShowResult	Mixed
5.0	1	64.684	0.016	113.281	0.0	0.0	12.1587	5.129	955.0	2.0	Certain	0.3	-1.45	2582.5	Yes		-1.74943374858437				ISITrial	Mixed
5.0	1	72.432	0.018	121.029	0.0	0.0	12.1587	0.0	955.0	2.0	Certain	0.3	-1.45	2582.5	Yes		-1.74943374858437			512.0	TrialHappiness	Mixed
5.0	1	76.447	4.015	125.044	0.0	0.0	12.1587	2.33	955.0	2.0	Certain	0.3	-1.45	2582.5	Yes		-1.74943374858437				ISIRate	Mixed
6.0	1	78.796	0.019	127.393	7.49	3.74	13.0949	3.0	955.0	2.8	Outcome2	9.5	7.49	0.0	No	2.0	-2.01321253303133	1.385	80.181		GetAnswer	Gain
6.0	1	80.196	0.015	128.793	7.49	3.74	13.0949	4.0	955.0	2.8	Outcome2	9.5	7.49	0.0	No		-2.01321253303133				ShowChoice	Gain
6.0	1	84.211	0.015	132.808	7.49	3.74	13.0949	1.0	955.0	2.8	Outcome2	9.5	7.49	0.0	No		-2.01321253303133				ShowResult	Gain
6.0	1	85.227	0.016	133.824	7.49	3.74	13.0949	6.232	955.0	2.8	Outcome2	9.5	7.49	0.0	No		-2.01321253303133				ISITrial	Gain
7.0	1	91.475	0.016	140.072	10.64	5.32	14.4249	3.0	955.0	1.82	Outcome1	10.64	12.7	0.0	No	2.0	-2.05502076255191	1.36	92.835		GetAnswer	Loss
7.0	1	92.858	0.023	141.455	10.64	5.32	14.4249	4.0	955.0	1.82	Outcome1	10.64	12.7	0.0	No		-2.05502076255191				ShowChoice	Loss
7.0	1	96.873	0.015	145.47	10.64	5.32	14.4249	1.0	955.0	1.82	Outcome1	10.64	12.7	0.0	No		-2.05502076255191				ShowResult	Loss
7.0	1	97.889	0.016	146.486	10.64	5.32	14.4249	2.305	955.0	1.82	Outcome1	10.64	12.7	0.0	No		-2.05502076255191				ISITrial	Loss
8.0	1	100.222	0.028	148.819	-3.0	-3.0	14.0499	3.0	955.0	0.3	Certain	-8.41	2.7	3112.5	Yes	4.0	11.114382785957	1.703	101.925		GetAnswer	Mixed
8.0	1	101.938	0.013	150.535	-3.0	-3.0	14.0499	4.0	955.0	0.3	Certain	-8.41	2.7	3112.5	Yes		11.114382785957				ShowChoice	Mixed
8.0	1	105.953	0.015	154.55	-3.0	-3.0	14.0499	1.0	955.0	0.3	Certain	-8.41	2.7	3112.5	Yes		11.114382785957				ShowResult	Mixed
8.0	1	106.97	0.017	155.567	-3.0	-3.0	14.0499	3.506	955.0	0.3	Certain	-8.41	2.7	3112.5	Yes		11.114382785957				ISITrial	Mixed
8.0	1	113.634	0.02	162.231	-3.0	-3.0	14.0499	0.624	955.0	0.3	Certain	-8.41	2.7	3112.5	Yes		11.114382785957			560.0	TrialHappiness	Mixed
8.0	1	117.649	4.015	166.246	-3.0	-3.0	14.0499	4.45	955.0	0.3	Certain	-8.41	2.7	3112.5	Yes		11.114382785957				ISIRate	Mixed
9.0	1	122.131	0.032	170.728	1.0	1.0	14.1749	3.0	955.0	2.22	Certain	-3.7	7.1	0.0	No	4.0	10.800679501698802	1.624	123.755		GetAnswer	Gain
9.0	1	123.78	0.025	172.377	1.0	1.0	14.1749	4.0	955.0	2.22	Certain	-3.7	7.1	0.0	No		10.800679501698802				ShowChoice	Gain
9.0	1	127.796	0.016	176.393	1.0	1.0	14.1749	1.0	955.0	2.22	Certain	-3.7	7.1	0.0	No		10.800679501698802				ShowResult	Gain
9.0	1	128.812	0.016	177.409	1.0	1.0	14.1749	2.0	955.0	2.22	Certain	-3.7	7.1	0.0	No		10.800679501698802				ISITrial	Gain
10.0	1	130.828	0.016	179.425	11.7	0.22	15.6374	3.0	955.0	3.16	Outcome2	0.45	11.7	4000.0	Yes	2.0	11.248018120045302	1.488	132.316		GetAnswer	Loss
10.0	1	132.327	0.011	180.924	11.7	0.22	15.6374	4.0	955.0	3.16	Outcome2	0.45	11.7	4000.0	Yes		11.248018120045302				ShowChoice	Loss
10.0	1	136.343	0.016	184.94	11.7	0.22	15.6374	1.0	955.0	3.16	Outcome2	0.45	11.7	4000.0	Yes		11.248018120045302				ShowResult	Loss
10.0	1	137.359	0.016	185.956	11.7	0.22	15.6374	2.0	955.0	3.16	Outcome2	0.45	11.7	4000.0	Yes		11.248018120045302				ISITrial	Loss
10.0	1	143.39	0.015	191.987	11.7	0.22	15.6374	1.124	955.0	3.16	Outcome2	0.45	11.7	4000.0	Yes		11.248018120045302			632.0	TrialHappiness	Loss
10.0	1	147.405	4.015	196.002	11.7	0.22	15.6374	8.0	955.0	3.16	Outcome2	0.45	11.7	4000.0	Yes		11.248018120045302				ISIRate	Loss
11.0	1	155.436	0.031	204.033	-3.0	-3.0	15.2624	3.0	955.0	1.0	Certain	1.7	-8.77	0.0	No	4.0	10.4722536806342	1.504	156.94		GetAnswer	Mixed
11.0	1	156.969	0.029	205.566	-3.0	-3.0	15.2624	4.0	955.0	1.0	Certain	1.7	-8.77	0.0	No		10.4722536806342				ShowChoice	Mixed
11.0	1	160.984	0.015	209.581	-3.0	-3.0	15.2624	1.0	955.0	1.0	Certain	1.7	-8.77	0.0	No		10.4722536806342				ShowResult	Mixed
11.0	1	162.0	0.016	210.597	-3.0	-3.0	15.2624	3.324	955.0	1.0	Certain	1.7	-8.77	0.0	No		10.4722536806342				ISITrial	Mixed
12.0	1	165.349	0.025	213.946	13.1	1.13	16.8999	3.0	955.0	2.22	Outcome1	13.1	2.26	2618.75	Yes	2.0	10.8380520951302	1.47	166.819		GetAnswer	Loss
12.0	1	166.832	0.013	215.429	13.1	1.13	16.8999	4.0	955.0	2.22	Outcome1	13.1	2.26	2618.75	Yes		10.8380520951302				ShowChoice	Loss
12.0	1	170.847	0.015	219.444	13.1	1.13	16.8999	1.0	955.0	2.22	Outcome1	13.1	2.26	2618.75	Yes		10.8380520951302				ShowResult	Loss
12.0	1	171.864	0.017	220.461	13.1	1.13	16.8999	6.642	955.0	2.22	Outcome1	13.1	2.26	2618.75	Yes		10.8380520951302				ISITrial	Loss
12.0	1	181.177	0.03	229.774	13.1	1.13	16.8999	1.862	955.0	2.22	Outcome1	13.1	2.26	2618.75	Yes		10.8380520951302			680.0	TrialHappiness	Loss
12.0	1	185.192	4.015	233.789	13.1	1.13	16.8999	2.475	955.0	2.22	Outcome1	13.1	2.26	2618.75	Yes		10.8380520951302				ISIRate	Loss
13.0	1	187.691	0.024	236.288	2.0	2.0	17.1499	3.0	955.0	3.16	Certain	-2.69	7.7	0.0	No	4.0	10.3884484711212	1.424	189.115		GetAnswer	Gain
13.0	1	189.141	0.026	237.738	2.0	2.0	17.1499	4.0	955.0	3.16	Certain	-2.69	7.7	0.0	No		10.3884484711212				ShowChoice	Gain
13.0	1	193.156	0.015	241.753	2.0	2.0	17.1499	1.0	955.0	3.16	Certain	-2.69	7.7	0.0	No		10.3884484711212				ShowResult	Gain
13.0	1	194.172	0.016	242.769	2.0	2.0	17.1499	3.48	955.0	3.16	Certain	-2.69	7.7	0.0	No		10.3884484711212				ISITrial	Gain
14.0	1	197.671	0.019	246.268	10.9	0.1	18.5124	3.0	955.0	2.0	Outcome2	0.2	10.9	0.0	No	2.0	10.699886749716901	1.913	199.584		GetAnswer	Loss
14.0	1	199.604	0.02	248.201	10.9	0.1	18.5124	4.0	955.0	2.0	Outcome2	0.2	10.9	0.0	No		10.699886749716901				ShowChoice	Loss
14.0	1	203.619	0.015	252.216	10.9	0.1	18.5124	1.0	955.0	2.0	Outcome2	0.2	10.9	0.0	No		10.699886749716901				ShowResult	Loss
14.0	1	204.635	0.016	253.232	10.9	0.1	18.5124	5.019	955.0	2.0	Outcome2	0.2	10.9	0.0	No		10.699886749716901				ISITrial	Loss
15.0	1	209.684	0.03	258.281	5.06	2.53	19.1449	3.0	955.0	1.82	Outcome1	5.06	6.7	3348.5	Yes	2.0	-1.64429973574934	1.257	210.941		GetAnswer	Gain
15.0	1	210.967	0.026	259.564	5.06	2.53	19.1449	4.0	955.0	1.82	Outcome1	5.06	6.7	3348.5	Yes		-1.64429973574934				ShowChoice	Gain
15.0	1	214.982	0.015	263.579	5.06	2.53	19.1449	1.0	955.0	1.82	Outcome1	5.06	6.7	3348.5	Yes		-1.64429973574934				ShowResult	Gain
15.0	1	215.998	0.016	264.595	5.06	2.53	19.1449	7.614	955.0	1.82	Outcome1	5.06	6.7	3348.5	Yes		-1.64429973574934				ISITrial	Gain
15.0	1	226.994	0.017	275.591	5.06	2.53	19.1449	3.114	955.0	1.82	Outcome1	5.06	6.7	3348.5	Yes		-1.64429973574934			636.0	TrialHappiness	Gain
15.0	1	231.01	4.016	279.607	5.06	2.53	19.1449	5.394	955.0	1.82	Outcome1	5.06	6.7	3348.5	Yes		-1.64429973574934				ISIRate	Gain
16.0	1	236.424	0.02	285.021	-3.0	-3.0	18.7699	3.0	955.0	0.2	Certain	-9.57	2.5	0.0	No	4.0	12.070215175537902	1.308	237.732		GetAnswer	Mixed
16.0	1	237.757	0.024	286.354	-3.0	-3.0	18.7699	4.0	955.0	0.2	Certain	-9.57	2.5	0.0	No		12.070215175537902				ShowChoice	Mixed
16.0	1	241.773	0.016	290.37	-3.0	-3.0	18.7699	1.0	955.0	0.2	Certain	-9.57	2.5	0.0	No		12.070215175537902				ShowResult	Mixed
16.0	1	242.789	0.016	291.386	-3.0	-3.0	18.7699	3.008	955.0	0.2	Certain	-9.57	2.5	0.0	No		12.070215175537902				ISITrial	Mixed
17.0	1	245.821	0.024	294.418	4.22	2.11	19.2974	3.0	955.0	4.2	Outcome2	6.1	4.22	3041.5	Yes	2.0	-1.8789165722914298	1.178	246.999		GetAnswer	Gain
17.0	1	247.021	0.022	295.618	4.22	2.11	19.2974	4.0	955.0	4.2	Outcome2	6.1	4.22	3041.5	Yes		-1.8789165722914298				ShowChoice	Gain
17.0	1	251.036	0.015	299.633	4.22	2.11	19.2974	1.0	955.0	4.2	Outcome2	6.1	4.22	3041.5	Yes		-1.8789165722914298				ShowResult	Gain
17.0	1	252.052	0.016	300.649	4.22	2.11	19.2974	3.566	955.0	4.2	Outcome2	6.1	4.22	3041.5	Yes		-1.8789165722914298				ISITrial	Gain
17.0	1	258.7	0.024	307.297	4.22	2.11	19.2974	0.69	955.0	4.2	Outcome2	6.1	4.22	3041.5	Yes		-1.8789165722914298			536.0	TrialHappiness	Gain
17.0	1	262.715	4.015	311.312	4.22	2.11	19.2974	4.166	955.0	4.2	Outcome2	6.1	4.22	3041.5	Yes		-1.8789165722914298				ISIRate	Gain
18.0	1	266.897	0.016	315.494	-2.0	-2.0	19.0474	3.0	955.0	2.0	Certain	-9.59	4.9	0.0	No	4.0	14.4915062287656	1.484	268.381		GetAnswer	Gain
18.0	1	268.397	0.016	316.994	-2.0	-2.0	19.0474	4.0	955.0	2.0	Certain	-9.59	4.9	0.0	No		14.4915062287656				ShowChoice	Gain
18.0	1	272.412	0.015	321.009	-2.0	-2.0	19.0474	1.0	955.0	2.0	Certain	-9.59	4.9	0.0	No		14.4915062287656				ShowResult	Gain
18.0	1	273.428	0.016	322.025	-2.0	-2.0	19.0474	6.787	955.0	2.0	Certain	-9.59	4.9	0.0	No		14.4915062287656				ISITrial	Gain
19.0	1	280.242	0.027	328.839	-4.0	-4.0	18.5474	3.0	955.0	0.4	Certain	2.9	-12.07	0.0	No	4.0	14.9660249150623	1.514	281.756		GetAnswer	Mixed
19.0	1	281.775	0.019	330.372	-4.0	-4.0	18.5474	4.0	955.0	0.4	Certain	2.9	-12.07	0.0	No		14.9660249150623				ShowChoice	Mixed
19.0	1	285.79	0.015	334.387	-4.0	-4.0	18.5474	1.0	955.0	0.4	Certain	2.9	-12.07	0.0	No		14.9660249150623				ShowResult	Mixed
19.0	1	286.807	0.017	335.404	-4.0	-4.0	18.5474	2.0	955.0	0.4	Certain	2.9	-12.07	0.0	No		14.9660249150623				ISITrial	Mixed
20.0	1	288.823	0.016	337.42	-2.37	-2.37	18.2512	3.0	955.0	1.82	Certain	-4.74	10.7	2921.25	Yes	4.0	15.440543601359	1.436	290.259		GetAnswer	Loss
20.0	1	290.272	0.013	338.869	-2.37	-2.37	18.2512	4.0	955.0	1.82	Certain	-4.74	10.7	2921.25	Yes		15.440543601359				ShowChoice	Loss
20.0	1	294.288	0.016	342.885	-2.37	-2.37	18.2512	1.0	955.0	1.82	Certain	-4.74	10.7	2921.25	Yes		15.440543601359				ShowResult	Loss
20.0	1	295.304	0.016	343.901	-2.37	-2.37	18.2512	8.0	955.0	1.82	Certain	-4.74	10.7	2921.25	Yes		15.440543601359				ISITrial	Loss
20.0	1	306.267	0.028	354.864	-2.37	-2.37	18.2512	0.673	955.0	1.82	Certain	-4.74	10.7	2921.25	Yes		15.440543601359			496.0	TrialHappiness	Loss
20.0	1	310.282	4.015	358.879	-2.37	-2.37	18.2512	3.685	955.0	1.82	Certain	-4.74	10.7	2921.25	Yes		15.440543601359				ISIRate	Loss
21.0	1	313.997	0.03	362.594	11.9	-2.35	19.7387	3.0	955.0	3.6	Outcome2	-4.69	11.9	0.0	No	2.0	16.59456398641	2.062	316.059		GetAnswer	Loss
21.0	1	316.08	0.021	364.677	11.9	-2.35	19.7387	4.0	955.0	3.6	Outcome2	-4.69	11.9	0.0	No		16.59456398641				ShowChoice	Loss
21.0	1	320.095	0.015	368.692	11.9	-2.35	19.7387	1.0	955.0	3.6	Outcome2	-4.69	11.9	0.0	No		16.59456398641				ShowResult	Loss
21.0	1	321.112	0.017	369.709	11.9	-2.35	19.7387	3.555	955.0	3.6	Outcome2	-4.69	11.9	0.0	No		16.59456398641				ISITrial	Loss
22.0	1	324.694	0.027	373.291	-8.0	-8.0	18.7387	3.0	955.0	0.3	Certain	0.7	-16.41	3219.5	Yes	4.0	17.114382785957	1.53	326.224		GetAnswer	Mixed
22.0	1	326.243	0.019	374.84	-8.0	-8.0	18.7387	4.0	955.0	0.3	Certain	0.7	-16.41	3219.5	Yes		17.114382785957				ShowChoice	Mixed
22.0	1	330.258	0.015	378.855	-8.0	-8.0	18.7387	1.0	955.0	0.3	Certain	0.7	-16.41	3219.5	Yes		17.114382785957				ShowResult	Mixed
22.0	1	331.275	0.017	379.872	-8.0	-8.0	18.7387	6.793	955.0	0.3	Certain	0.7	-16.41	3219.5	Yes		17.114382785957				ISITrial	Mixed
22.0	1	341.338	0.029	389.935	-8.0	-8.0	18.7387	0.751	955.0	0.3	Certain	0.7	-16.41	3219.5	Yes		17.114382785957			532.0	TrialHappiness	Mixed
22.0	1	345.353	4.015	393.95	-8.0	-8.0	18.7387	4.878	955.0	0.3	Certain	0.7	-16.41	3219.5	Yes		17.114382785957				ISIRate	Mixed
23.0	1	350.251	0.02	398.848	-4.0	-4.0	18.2387	3.0	955.0	1.5	Certain	4.1	-12.92	0.0	No	4.0	17.0226500566251	2.04	352.291		GetAnswer	Mixed
23.0	1	352.317	0.026	400.914	-4.0	-4.0	18.2387	4.0	955.0	1.5	Certain	4.1	-12.92	0.0	No		17.0226500566251				ShowChoice	Mixed
23.0	1	356.333	0.016	404.93	-4.0	-4.0	18.2387	1.0	955.0	1.5	Certain	4.1	-12.92	0.0	No		17.0226500566251				ShowResult	Mixed
23.0	1	357.349	0.016	405.946	-4.0	-4.0	18.2387	8.0	955.0	1.5	Certain	4.1	-12.92	0.0	No		17.0226500566251				ISITrial	Mixed
24.0	1	365.379	0.03	413.976	10.32	5.16	19.5287	3.0	955.0	2.0	Outcome2	12.9	10.32	3255.0	Yes	2.0	-2.5762551906379803	1.295	366.674		GetAnswer	Loss
24.0	1	366.696	0.022	415.293	10.32	5.16	19.5287	4.0	955.0	2.0	Outcome2	12.9	10.32	3255.0	Yes		-2.5762551906379803				ShowChoice	Loss
24.0	1	370.711	0.015	419.308	10.32	5.16	19.5287	1.0	955.0	2.0	Outcome2	12.9	10.32	3255.0	Yes		-2.5762551906379803				ShowResult	Loss
24.0	1	371.727	0.016	420.324	10.32	5.16	19.5287	2.0	955.0	2.0	Outcome2	12.9	10.32	3255.0	Yes		-2.5762551906379803				ISITrial	Loss
24.0	1	377.025	0.027	425.622	10.32	5.16	19.5287	0.706	955.0	2.0	Outcome2	12.9	10.32	3255.0	Yes		-2.5762551906379803			576.0	TrialHappiness	Loss
24.0	1	381.041	4.016	429.638	10.32	5.16	19.5287	5.02	955.0	2.0	Outcome2	12.9	10.32	3255.0	Yes		-2.5762551906379803				ISIRate	Loss
25.0	1	386.089	0.028	434.686	13.3	-1.96	21.1912	3.0	955.0	2.48	Outcome2	-3.93	13.3	0.0	No	2.0	17.233295583239	2.278	388.367		GetAnswer	Loss
25.0	1	388.388	0.02	436.985	13.3	-1.96	21.1912	4.0	955.0	2.48	Outcome2	-3.93	13.3	0.0	No		17.233295583239				ShowChoice	Loss
25.0	1	392.403	0.015	441.0	13.3	-1.96	21.1912	1.0	955.0	2.48	Outcome2	-3.93	13.3	0.0	No		17.233295583239				ShowResult	Loss
25.0	1	393.42	0.017	442.017	13.3	-1.96	21.1912	3.749	955.0	2.48	Outcome2	-3.93	13.3	0.0	No		17.233295583239				ISITrial	Loss
26.0	1	397.202	0.033	445.799	-2.68	-2.68	20.8562	3.0	955.0	5.0	Certain	-5.36	12.3	0.0	No	4.0	17.662514156285397	1.621	398.823		GetAnswer	Loss
26.0	1	398.834	0.011	447.431	-2.68	-2.68	20.8562	4.0	955.0	5.0	Certain	-5.36	12.3	0.0	No		17.662514156285397				ShowChoice	Loss
26.0	1	402.85	0.016	451.447	-2.68	-2.68	20.8562	1.0	955.0	5.0	Certain	-5.36	12.3	0.0	No		17.662514156285397				ShowResult	Loss
26.0	1	403.866	0.016	452.463	-2.68	-2.68	20.8562	7.834	955.0	5.0	Certain	-5.36	12.3	0.0	No		17.662514156285397				ISITrial	Loss
27.0	1	411.73	0.03	460.327	2.0	2.0	21.1062	3.0	955.0	2.48	Certain	-6.79	11.3	2549.75	Yes	4.0	18.091732729331802	1.582	413.312		GetAnswer	Loss
27.0	1	413.329	0.017	461.926	2.0	2.0	21.1062	4.0	955.0	2.48	Certain	-6.79	11.3	2549.75	Yes		18.091732729331802				ShowChoice	Loss
27.0	1	417.345	0.016	465.942	2.0	2.0	21.1062	1.0	955.0	2.48	Certain	-6.79	11.3	2549.75	Yes		18.091732729331802				ShowResult	Loss
27.0	1	418.361	0.016	466.958	2.0	2.0	21.1062	4.225	955.0	2.48	Certain	-6.79	11.3	2549.75	Yes		18.091732729331802				ISITrial	Loss
27.0	1	425.175	0.016	473.772	2.0	2.0	21.1062	0.624	955.0	2.48	Certain	-6.79	11.3	2549.75	Yes		18.091732729331802			560.0	TrialHappiness	Loss
27.0	1	429.19	4.015	477.787	2.0	2.0	21.1062	2.199	955.0	2.48	Certain	-6.79	11.3	2549.75	Yes		18.091732729331802				ISIRate	Loss
	1	431.406	0.017	480.003				-0.001								{SPACE}		79.73	511.136		Rest	
	1	511.162	0.026	559.759				4.0													BlockHappyPreview	
	1	515.177	0.015	563.774				1.897												564.0	BlockStartHappiness	
	1	525.607	0.023	574.204				-0.001								5.0		4.041	529.648		ScanWait	
	2	0.024	0.024	578.269				10.0													GetReady	
28.0	2	10.037	0.013	588.282	0.0	0.0	21.1062	3.0	70.0	3.6	Certain	1.48	-0.53	0.0	No	4.0	2.00699168556311	1.467	11.504		GetAnswer	Gain
28.0	2	11.52	0.015	589.765	0.0	0.0	21.1062	4.0	70.0	3.6	Certain	1.48	-0.53	0.0	No		2.00699168556311				ShowChoice	Gain
28.0	2	15.535	0.015	593.78	0.0	0.0	21.1062	1.0	70.0	3.6	Certain	1.48	-0.53	0.0	No		2.00699168556311				ShowResult	Gain
28.0	2	16.552	0.017	594.797	0.0	0.0	21.1062	3.575	70.0	3.6	Certain	1.48	-0.53	0.0	No		2.00699168556311				ISITrial	Gain
29.0	2	20.15	0.023	598.395	-4.0	-4.0	20.6062	3.0	70.0	0.2	Certain	0.5	-8.46	3529.0	Yes	4.0	-8.96145124716553	1.733	21.883		GetAnswer	Mixed
29.0	2	21.9	0.017	600.145	-4.0	-4.0	20.6062	4.0	70.0	0.2	Certain	0.5	-8.46	3529.0	Yes		-8.96145124716553				ShowChoice	Mixed
29.0	2	25.915	0.015	604.16	-4.0	-4.0	20.6062	1.0	70.0	0.2	Certain	0.5	-8.46	3529.0	Yes		-8.96145124716553				ShowResult	Mixed
29.0	2	26.931	0.016	605.176	-4.0	-4.0	20.6062	3.955	70.0	0.2	Certain	0.5	-8.46	3529.0	Yes		-8.96145124716553				ISITrial	Mixed
29.0	2	34.445	0.019	612.69	-4.0	-4.0	20.6062	3.004	70.0	0.2	Certain	0.5	-8.46	3529.0	Yes		-8.96145124716553			492.0	TrialHappiness	Mixed
29.0	2	38.461	4.016	616.706	-4.0	-4.0	20.6062	6.116	70.0	0.2	Certain	0.5	-8.46	3529.0	Yes		-8.96145124716553				ISIRate	Mixed
30.0	2	44.609	0.032	622.854	-0.2	-0.1	20.5812	3.0	70.0	4.2	Outcome2	8.1	-0.2	0.0	No	2.0	-8.29705215419501	1.574	46.183		GetAnswer	Gain
30.0	2	46.208	0.025	624.453	-0.2	-0.1	20.5812	4.0	70.0	4.2	Outcome2	8.1	-0.2	0.0	No		-8.29705215419501				ShowChoice	Gain
30.0	2	50.223	0.015	628.468	-0.2	-0.1	20.5812	1.0	70.0	4.2	Outcome2	8.1	-0.2	0.0	No		-8.29705215419501				ShowResult	Gain
30.0	2	51.24	0.017	629.485	-0.2	-0.1	20.5812	4.453	70.0	4.2	Outcome2	8.1	-0.2	0.0	No		-8.29705215419501				ISITrial	Gain
31.0	2	55.721	0.028	633.966	0.32	0.16	20.6212	3.0	70.0	2.22	Outcome2	9.1	0.32	2503.25	Yes	2.0	-8.775510204081629	1.898	57.619		GetAnswer	Gain
31.0	2	57.637	0.018	635.882	0.32	0.16	20.6212	4.0	70.0	2.22	Outcome2	9.1	0.32	2503.25	Yes		-8.775510204081629				ShowChoice	Gain
31.0	2	61.653	0.016	639.898	0.32	0.16	20.6212	1.0	70.0	2.22	Outcome2	9.1	0.32	2503.25	Yes		-8.775510204081629				ShowResult	Gain
31.0	2	62.669	0.016	640.914	0.32	0.16	20.6212	4.786	70.0	2.22	Outcome2	9.1	0.32	2503.25	Yes		-8.775510204081629				ISITrial	Gain
31.0	2	70.0	0.03	648.245	0.32	0.16	20.6212	0.872	70.0	2.22	Outcome2	9.1	0.32	2503.25	Yes	4{-4}	-8.775510204081629	0.872	70.872	424.0	TrialHappiness	Gain
31.0	2	74.015	4.015	652.26	0.32	0.16	20.6212	2.013	70.0	2.22	Outcome2	9.1	0.32	2503.25	Yes		-8.775510204081629				ISIRate	Gain
32.0	2	76.048	0.02	654.293	2.62	2.0	20.9487	3.0	70.0	1.68	Outcome2	1.01	2.62	0.0	No	2.0	1.61130007558579	1.802	77.85		GetAnswer	Loss
32.0	2	77.864	0.014	656.109	2.62	2.0	20.9487	4.0	70.0	1.68	Outcome2	1.01	2.62	0.0	No		1.61130007558579				ShowChoice	Loss
32.0	2	81.879	0.015	660.124	2.62	2.0	20.9487	1.0	70.0	1.68	Outcome2	1.01	2.62	0.0	No		1.61130007558579				ShowResult	Loss
32.0	2	82.895	0.016	661.14	2.62	2.0	20.9487	2.0	70.0	1.68	Outcome2	1.01	2.62	0.0	No		1.61130007558579				ISITrial	Loss
33.0	2	84.911	0.016	663.156	1.0	1.0	21.0737	3.0	70.0	3.16	Certain	5.7	-2.8	0.0	No	4.0	-8.49886621315193	1.463	86.374		GetAnswer	Gain
33.0	2	86.394	0.02	664.639	1.0	1.0	21.0737	4.0	70.0	3.16	Certain	5.7	-2.8	0.0	No		-8.49886621315193				ShowChoice	Gain
33.0	2	90.409	0.015	668.654	1.0	1.0	21.0737	1.0	70.0	3.16	Certain	5.7	-2.8	0.0	No		-8.49886621315193				ShowResult	Gain
33.0	2	91.426	0.017	669.671	1.0	1.0	21.0737	5.099	70.0	3.16	Certain	5.7	-2.8	0.0	No		-8.49886621315193				ISITrial	Gain
34.0	2	96.54	0.015	674.785	-1.0	-1.0	20.9487	3.0	70.0	0.52	Certain	-0.22	-1.9	3231.5	Yes	4.0	1.6781934996220702	2.457	98.997		GetAnswer	Mixed
34.0	2	99.023	0.026	677.268	-1.0	-1.0	20.9487	4.0	70.0	0.52	Certain	-0.22	-1.9	3231.5	Yes		1.6781934996220702				ShowChoice	Mixed
34.0	2	103.038	0.015	681.283	-1.0	-1.0	20.9487	1.0	70.0	0.52	Certain	-0.22	-1.9	3231.5	Yes		1.6781934996220702				ShowResult	Mixed
34.0	2	104.054	0.016	682.299	-1.0	-1.0	20.9487	4.784	70.0	0.52	Certain	-0.22	-1.9	3231.5	Yes		1.6781934996220702				ISITrial	Mixed
34.0	2	112.102	0.017	690.347	-1.0	-1.0	20.9487	1.376	70.0	0.52	Certain	-0.22	-1.9	3231.5	Yes		1.6781934996220702			436.0	TrialHappiness	Mixed
34.0	2	116.117	4.015	694.362	-1.0	-1.0	20.9487	4.926	70.0	0.52	Certain	-0.22	-1.9	3231.5	Yes		1.6781934996220702				ISIRate	Mixed
35.0	2	121.065	0.022	699.31	0.0	0.0	20.9487	3.0	70.0	1.5	Certain	-1.24	0.52	0.0	No	4.0	1.76039304610733	1.743	122.808		GetAnswer	Mixed
35.0	2	122.831	0.023	701.076	0.0	0.0	20.9487	4.0	70.0	1.5	Certain	-1.24	0.52	0.0	No		1.76039304610733				ShowChoice	Mixed
35.0	2	126.846	0.015	705.091	0.0	0.0	20.9487	1.0	70.0	1.5	Certain	-1.24	0.52	0.0	No		1.76039304610733				ShowResult	Mixed
35.0	2	127.863	0.017	706.108	0.0	0.0	20.9487	2.098	70.0	1.5	Certain	-1.24	0.52	0.0	No		1.76039304610733				ISITrial	Mixed
36.0	2	129.979	0.018	708.224	-6.0	-6.0	20.1987	3.0	70.0	0.4	Certain	-11.02	-1.1	3335.75	Yes	4.0	-9.92063492063492	2.858	132.837		GetAnswer	Mixed
36.0	2	132.861	0.024	711.106	-6.0	-6.0	20.1987	4.0	70.0	0.4	Certain	-11.02	-1.1	3335.75	Yes		-9.92063492063492				ShowChoice	Mixed
36.0	2	136.876	0.015	715.121	-6.0	-6.0	20.1987	1.0	70.0	0.4	Certain	-11.02	-1.1	3335.75	Yes		-9.92063492063492				ShowResult	Mixed
36.0	2	137.893	0.017	716.138	-6.0	-6.0	20.1987	5.156	70.0	0.4	Certain	-11.02	-1.1	3335.75	Yes		-9.92063492063492				ISITrial	Mixed
36.0	2	146.44	0.03	724.685	-6.0	-6.0	20.1987	1.794	70.0	0.4	Certain	-11.02	-1.1	3335.75	Yes		-9.92063492063492			428.0	TrialHappiness	Mixed
36.0	2	150.455	4.015	728.7	-6.0	-6.0	20.1987	5.343	70.0	0.4	Certain	-11.02	-1.1	3335.75	Yes		-9.92063492063492				ISIRate	Mixed
37.0	2	155.82	0.022	734.065	-5.0	-5.0	19.5737	3.0	70.0	1.5	Certain	0.1	-10.1	0.0	No	4.0	-10.199546485260802	2.051	157.871		GetAnswer	Mixed
37.0	2	157.886	0.015	736.131	-5.0	-5.0	19.5737	4.0	70.0	1.5	Certain	0.1	-10.1	0.0	No		-10.199546485260802				ShowChoice	Mixed
37.0	2	161.901	0.015	740.146	-5.0	-5.0	19.5737	1.0	70.0	1.5	Certain	0.1	-10.1	0.0	No		-10.199546485260802				ShowResult	Mixed
37.0	2	162.917	0.016	741.162	-5.0	-5.0	19.5737	3.598	70.0	1.5	Certain	0.1	-10.1	0.0	No		-10.199546485260802				ISITrial	Mixed
38.0	2	166.533	0.018	744.778	3.09	1.54	19.96	3.0	70.0	3.16	Outcome1	3.09	13.7	0.0	No	2.0	-10.6054421768707	1.325	167.858		GetAnswer	Loss
38.0	2	167.882	0.024	746.127	3.09	1.54	19.96	4.0	70.0	3.16	Outcome1	3.09	13.7	0.0	No		-10.6054421768707				ShowChoice	Loss
38.0	2	171.897	0.015	750.142	3.09	1.54	19.96	1.0	70.0	3.16	Outcome1	3.09	13.7	0.0	No		-10.6054421768707				ShowResult	Loss
38.0	2	172.914	0.017	751.159	3.09	1.54	19.96	4.787	70.0	3.16	Outcome1	3.09	13.7	0.0	No		-10.6054421768707				ISITrial	Loss
39.0	2	177.729	0.028	755.974	2.42	1.0	20.2625	3.0	70.0	3.16	Outcome2	0.56	2.42	2864.25	Yes	2.0	1.8647014361300098	2.183	179.912		GetAnswer	Gain
39.0	2	179.928	0.016	758.173	2.42	1.0	20.2625	4.0	70.0	3.16	Outcome2	0.56	2.42	2864.25	Yes		1.8647014361300098				ShowChoice	Gain
39.0	2	183.943	0.015	762.188	2.42	1.0	20.2625	1.0	70.0	3.16	Outcome2	0.56	2.42	2864.25	Yes		1.8647014361300098				ShowResult	Gain
39.0	2	184.96	0.017	763.205	2.42	1.0	20.2625	2.348	70.0	3.16	Outcome2	0.56	2.42	2864.25	Yes		1.8647014361300098				ISITrial	Gain
39.0	2	190.208	0.019	768.453	2.42	1.0	20.2625	2.804	70.0	3.16	Outcome2	0.56	2.42	2864.25	Yes		1.8647014361300098			424.0	TrialHappiness	Gain
39.0	2	194.223	4.015	772.468	2.42	1.0	20.2625	3.457	70.0	3.16	Outcome2	0.56	2.42	2864.25	Yes		1.8647014361300098				ISIRate	Gain
40.0	2	197.705	0.025	775.95	-2.45	-1.23	19.9563	3.0	70.0	2.0	Outcome2	8.9	-2.45	0.0	No	2.0	-11.3492063492064	1.907	199.612		GetAnswer	Gain
40.0	2	199.638	0.026	777.883	-2.45	-1.23	19.9563	4.0	70.0	2.0	Outcome2	8.9	-2.45	0.0	No		-11.3492063492064				ShowChoice	Gain
40.0	2	203.653	0.015	781.898	-2.45	-1.23	19.9563	1.0	70.0	2.0	Outcome2	8.9	-2.45	0.0	No		-11.3492063492064				ShowResult	Gain
40.0	2	204.669	0.016	782.914	-2.45	-1.23	19.9563	3.158	70.0	2.0	Outcome2	8.9	-2.45	0.0	No		-11.3492063492064				ISITrial	Gain
41.0	2	207.852	0.025	786.097	-0.25	-0.12	19.9251	3.0	70.0	2.8	Outcome2	11.5	-0.25	4000.0	Yes	2.0	-11.750566893424	1.654	209.506		GetAnswer	Loss
41.0	2	209.518	0.012	787.763	-0.25	-0.12	19.9251	4.0	70.0	2.8	Outcome2	11.5	-0.25	4000.0	Yes		-11.750566893424				ShowChoice	Loss
41.0	2	213.533	0.015	791.778	-0.25	-0.12	19.9251	1.0	70.0	2.8	Outcome2	11.5	-0.25	4000.0	Yes		-11.750566893424				ShowResult	Loss
41.0	2	214.549	0.016	792.794	-0.25	-0.12	19.9251	4.506	70.0	2.8	Outcome2	11.5	-0.25	4000.0	Yes		-11.750566893424				ISITrial	Loss
41.0	2	223.096	0.015	801.341	-0.25	-0.12	19.9251	3.319	70.0	2.8	Outcome2	11.5	-0.25	4000.0	Yes		-11.750566893424			404.0	TrialHappiness	Loss
41.0	2	227.112	4.016	805.357	-0.25	-0.12	19.9251	8.0	70.0	2.8	Outcome2	11.5	-0.25	4000.0	Yes		-11.750566893424				ISIRate	Loss
42.0	2	235.142	0.03	813.387	-2.0	-2.0	19.6751	3.0	70.0	1.2	Certain	3.9	-7.91	0.0	No	4.0	-11.811791383220001	2.143	237.285		GetAnswer	Mixed
42.0	2	237.308	0.023	815.553	-2.0	-2.0	19.6751	4.0	70.0	1.2	Certain	3.9	-7.91	0.0	No		-11.811791383220001				ShowChoice	Mixed
42.0	2	241.323	0.015	819.568	-2.0	-2.0	19.6751	1.0	70.0	1.2	Certain	3.9	-7.91	0.0	No		-11.811791383220001				ShowResult	Mixed
42.0	2	242.34	0.017	820.585	-2.0	-2.0	19.6751	6.248	70.0	1.2	Certain	3.9	-7.91	0.0	No		-11.811791383220001				ISITrial	Mixed
43.0	2	248.604	0.016	826.849	-1.0	-1.0	19.5501	3.0	70.0	1.0	Certain	-0.08	-1.98	2775.75	Yes	4.0	1.8994708994709	2.163	250.767		GetAnswer	Mixed
43.0	2	250.787	0.02	829.032	-1.0	-1.0	19.5501	4.0	70.0	1.0	Certain	-0.08	-1.98	2775.75	Yes		1.8994708994709				ShowChoice	Mixed
43.0	2	254.802	0.015	833.047	-1.0	-1.0	19.5501	1.0	70.0	1.0	Certain	-0.08	-1.98	2775.75	Yes		1.8994708994709				ShowResult	Mixed
43.0	2	255.818	0.016	834.063	-1.0	-1.0	19.5501	4.596	70.0	1.0	Certain	-0.08	-1.98	2775.75	Yes		1.8994708994709				ISITrial	Mixed
43.0	2	263.232	0.023	841.477	-1.0	-1.0	19.5501	0.74	70.0	1.0	Certain	-0.08	-1.98	2775.75	Yes		1.8994708994709			408.0	TrialHappiness	Mixed
43.0	2	267.248	4.016	845.493	-1.0	-1.0	19.5501	3.103	70.0	1.0	Certain	-0.08	-1.98	2775.75	Yes		1.8994708994709				ISIRate	Mixed
44.0	2	270.38	0.029	848.625	-2.0	-2.0	19.3001	3.0	70.0	1.0	Certain	-8.94	3.7	0.0	No	4.0	-12.6371882086168	2.065	272.445		GetAnswer	Mixed
44.0	2	272.462	0.017	850.707	-2.0	-2.0	19.3001	4.0	70.0	1.0	Certain	-8.94	3.7	0.0	No		-12.6371882086168				ShowChoice	Mixed
44.0	2	276.478	0.016	854.723	-2.0	-2.0	19.3001	1.0	70.0	1.0	Certain	-8.94	3.7	0.0	No		-12.6371882086168				ShowResult	Mixed
44.0	2	277.494	0.016	855.739	-2.0	-2.0	19.3001	2.42	70.0	1.0	Certain	-8.94	3.7	0.0	No		-12.6371882086168				ISITrial	Mixed
45.0	2	279.943	0.029	858.188	2.52	1.0	19.6151	3.0	70.0	4.2	Outcome1	2.52	0.54	0.0	No	2.0	1.97921390778534	1.699	281.642		GetAnswer	Gain
45.0	2	281.659	0.017	859.904	2.52	1.0	19.6151	4.0	70.0	4.2	Outcome1	2.52	0.54	0.0	No		1.97921390778534				ShowChoice	Gain
45.0	2	285.674	0.015	863.919	2.52	1.0	19.6151	1.0	70.0	4.2	Outcome1	2.52	0.54	0.0	No		1.97921390778534				ShowResult	Gain
45.0	2	286.691	0.017	864.936	2.52	1.0	19.6151	3.144	70.0	4.2	Outcome1	2.52	0.54	0.0	No		1.97921390778534				ISITrial	Gain
46.0	2	289.856	0.021	868.101	-3.1	-1.55	19.2276	3.0	70.0	5.0	Outcome1	-3.1	10.3	3841.25	Yes	2.0	-13.4036281179138	2.217	292.073		GetAnswer	Gain
46.0	2	292.089	0.016	870.334	-3.1	-1.55	19.2276	4.0	70.0	5.0	Outcome1	-3.1	10.3	3841.25	Yes		-13.4036281179138				ShowChoice	Gain
46.0	2	296.104	0.015	874.349	-3.1	-1.55	19.2276	1.0	70.0	5.0	Outcome1	-3.1	10.3	3841.25	Yes		-13.4036281179138				ShowResult	Gain
46.0	2	297.12	0.016	875.365	-3.1	-1.55	19.2276	2.246	70.0	5.0	Outcome1	-3.1	10.3	3841.25	Yes		-13.4036281179138				ISITrial	Gain
46.0	2	303.252	0.025	881.497	-3.1	-1.55	19.2276	0.757	70.0	5.0	Outcome1	-3.1	10.3	3841.25	Yes	4{-4}	-13.4036281179138	0.757	304.009	408.0	TrialHappiness	Gain
46.0	2	307.267	4.015	885.512	-3.1	-1.55	19.2276	7.365	70.0	5.0	Outcome1	-3.1	10.3	3841.25	Yes		-13.4036281179138				ISIRate	Gain
47.0	2	314.664	0.032	892.909	0.0	0.0	19.2276	3.0	70.0	1.82	Certain	-0.86	1.18	0.0	No	4.0	2.04308390022676	2.631	317.295		GetAnswer	Gain
47.0	2	317.313	0.018	895.558	0.0	0.0	19.2276	4.0	70.0	1.82	Certain	-0.86	1.18	0.0	No		2.04308390022676				ShowChoice	Gain
47.0	2	321.329	0.016	899.574	0.0	0.0	19.2276	1.0	70.0	1.82	Certain	-0.86	1.18	0.0	No		2.04308390022676				ShowResult	Gain
47.0	2	322.345	0.016	900.59	0.0	0.0	19.2276	2.0	70.0	1.82	Certain	-0.86	1.18	0.0	No		2.04308390022676				ISITrial	Gain
48.0	2	324.361	0.016	902.606	-6.0	-6.0	18.4776	3.0	70.0	0.4	Certain	-13.27	0.9	2831.75	Yes	4.0	-14.1700680272109	2.158	326.519		GetAnswer	Mixed
48.0	2	326.543	0.024	904.788	-6.0	-6.0	18.4776	4.0	70.0	0.4	Certain	-13.27	0.9	2831.75	Yes		-14.1700680272109				ShowChoice	Mixed
48.0	2	330.559	0.016	908.804	-6.0	-6.0	18.4776	1.0	70.0	0.4	Certain	-13.27	0.9	2831.75	Yes		-14.1700680272109				ShowResult	Mixed
48.0	2	331.575	0.016	909.82	-6.0	-6.0	18.4776	3.692	70.0	0.4	Certain	-13.27	0.9	2831.75	Yes		-14.1700680272109				ISITrial	Mixed
48.0	2	338.139	0.017	916.384	-6.0	-6.0	18.4776	2.536	70.0	0.4	Certain	-13.27	0.9	2831.75	Yes		-14.1700680272109			404.0	TrialHappiness	Mixed
48.0	2	342.155	4.016	920.4	-6.0	-6.0	18.4776	3.327	70.0	0.4	Certain	-13.27	0.9	2831.75	Yes		-14.1700680272109				ISIRate	Mixed
49.0	2	345.504	0.022	923.749	-4.0	-4.0	17.9776	3.0	70.0	0.52	Certain	-11.39	3.1	0.0	No	4.0	-14.4852607709751	1.672	347.176		GetAnswer	Mixed
49.0	2	347.203	0.027	925.448	-4.0	-4.0	17.9776	4.0	70.0	0.52	Certain	-11.39	3.1	0.0	No		-14.4852607709751				ShowChoice	Mixed
49.0	2	351.218	0.015	929.463	-4.0	-4.0	17.9776	1.0	70.0	0.52	Certain	-11.39	3.1	0.0	No		-14.4852607709751				ShowResult	Mixed
49.0	2	352.235	0.017	930.48	-4.0	-4.0	17.9776	8.0	70.0	0.52	Certain	-11.39	3.1	0.0	No		-14.4852607709751				ISITrial	Mixed
50.0	2	360.265	0.03	938.51	0.0	0.0	17.9776	3.0	70.0	3.6	Certain	-6.96	7.9	3547.25	Yes	4.0	-14.863945578231302	1.801	362.066		GetAnswer	Gain
50.0	2	362.081	0.015	940.326	0.0	0.0	17.9776	4.0	70.0	3.6	Certain	-6.96	7.9	3547.25	Yes		-14.863945578231302				ShowChoice	Gain
50.0	2	366.096	0.015	944.341	0.0	0.0	17.9776	1.0	70.0	3.6	Certain	-6.96	7.9	3547.25	Yes		-14.863945578231302				ShowResult	Gain
50.0	2	367.113	0.017	945.358	0.0	0.0	17.9776	7.537	70.0	3.6	Certain	-6.96	7.9	3547.25	Yes		-14.863945578231302				ISITrial	Gain
50.0	2	378.242	0.018	956.487	0.0	0.0	17.9776	1.405	70.0	3.6	Certain	-6.96	7.9	3547.25	Yes		-14.863945578231302			452.0	TrialHappiness	Gain
50.0	2	382.257	4.015	960.502	0.0	0.0	17.9776	6.189	70.0	3.6	Certain	-6.96	7.9	3547.25	Yes		-14.863945578231302				ISIRate	Gain
51.0	2	388.472	0.026	966.717	-3.56	-1.78	17.5326	3.0	70.0	1.68	Outcome1	-3.56	12.5	0.0	No	2.0	-16.058956916099802	1.72	390.192		GetAnswer	Loss
51.0	2	390.205	0.013	968.45	-3.56	-1.78	17.5326	4.0	70.0	1.68	Outcome1	-3.56	12.5	0.0	No		-16.058956916099802				ShowChoice	Loss
51.0	2	394.22	0.015	972.465	-3.56	-1.78	17.5326	1.0	70.0	1.68	Outcome1	-3.56	12.5	0.0	No		-16.058956916099802				ShowResult	Loss
51.0	2	395.236	0.016	973.481	-3.56	-1.78	17.5326	5.508	70.0	1.68	Outcome1	-3.56	12.5	0.0	No		-16.058956916099802				ISITrial	Loss
52.0	2	400.768	0.024	979.013	-3.0	-3.0	17.1576	3.0	70.0	2.22	Certain	-11.39	5.1	0.0	No	4.0	-16.4920634920635	1.7	402.468		GetAnswer	Gain
52.0	2	402.484	0.016	980.729	-3.0	-3.0	17.1576	4.0	70.0	2.22	Certain	-11.39	5.1	0.0	No		-16.4920634920635				ShowChoice	Gain
52.0	2	406.499	0.015	984.744	-3.0	-3.0	17.1576	1.0	70.0	2.22	Certain	-11.39	5.1	0.0	No		-16.4920634920635				ShowResult	Gain
52.0	2	407.515	0.016	985.76	-3.0	-3.0	17.1576	5.913	70.0	2.22	Certain	-11.39	5.1	0.0	No		-16.4920634920635				ISITrial	Gain
53.0	2	413.447	0.019	991.692	-3.43	-1.72	16.7288	3.0	70.0	2.8	Outcome2	13.5	-3.43	2996.75	Yes	2.0	-16.9251700680272	2.024	415.471		GetAnswer	Loss
53.0	2	415.496	0.024	993.741	-3.43	-1.72	16.7288	4.0	70.0	2.8	Outcome2	13.5	-3.43	2996.75	Yes		-16.9251700680272				ShowChoice	Loss
53.0	2	419.511	0.015	997.756	-3.43	-1.72	16.7288	1.0	70.0	2.8	Outcome2	13.5	-3.43	2996.75	Yes		-16.9251700680272				ShowResult	Loss
53.0	2	420.527	0.016	998.772	-3.43	-1.72	16.7288	3.66	70.0	2.8	Outcome2	13.5	-3.43	2996.75	Yes		-16.9251700680272				ISITrial	Loss
53.0	2	427.225	0.019	1005.47	-3.43	-1.72	16.7288	3.827	70.0	2.8	Outcome2	13.5	-3.43	2996.75	Yes		-16.9251700680272			408.0	TrialHappiness	Loss
53.0	2	431.24	4.015	1009.485	-3.43	-1.72	16.7288	3.987	70.0	2.8	Outcome2	13.5	-3.43	2996.75	Yes		-16.9251700680272				ISIRate	Loss
54.0	2	435.256	0.029	1013.501	-4.0	-4.0	16.2288	3.0	70.0	1.68	Certain	4.5	-12.11	0.0	No	4.0	-16.609977324263	1.575	436.831		GetAnswer	Gain
54.0	2	436.855	0.024	1015.1	-4.0	-4.0	16.2288	4.0	70.0	1.68	Certain	4.5	-12.11	0.0	No		-16.609977324263				ShowChoice	Gain
54.0	2	440.87	0.015	1019.115	-4.0	-4.0	16.2288	1.0	70.0	1.68	Certain	4.5	-12.11	0.0	No		-16.609977324263				ShowResult	Gain
54.0	2	441.887	0.017	1020.132	-4.0	-4.0	16.2288	8.0	70.0	1.68	Certain	4.5	-12.11	0.0	No		-16.609977324263				ISITrial	Gain
	2	449.917	0.03	1028.162				-0.001								{SPACE}		73.368	523.285		Rest	
	2	523.308	0.023	1101.553				4.0													BlockHappyPreview	
	2	527.323	0.015	1105.568				1.434												428.0	BlockStartHappiness	
	2	533.505	0.012	1111.75				-0.001								5.0		4.693	538.198		ScanWait	
	3	0.022	0.022	1116.465				10.0													GetReady	
55.0	3	10.051	0.029	1126.494	11.1	1.08	17.6163	3.0	955.0	2.22	Outcome2	2.15	11.1	2533.25	Yes	2.0	8.9524348810872	1.397	11.448		GetAnswer	Loss
55.0	3	11.468	0.02	1127.911	11.1	1.08	17.6163	4.0	955.0	2.22	Outcome2	2.15	11.1	2533.25	Yes		8.9524348810872				ShowChoice	Loss
55.0	3	15.483	0.015	1131.926	11.1	1.08	17.6163	1.0	955.0	2.22	Outcome2	2.15	11.1	2533.25	Yes		8.9524348810872				ShowResult	Loss
55.0	3	16.499	0.016	1132.942	11.1	1.08	17.6163	7.709	955.0	2.22	Outcome2	2.15	11.1	2533.25	Yes		8.9524348810872				ISITrial	Loss
55.0	3	26.779	0.016	1143.222	11.1	1.08	17.6163	0.0	955.0	2.22	Outcome2	2.15	11.1	2533.25	Yes		8.9524348810872			512.0	TrialHappiness	Loss
55.0	3	30.794	4.015	1147.237	11.1	1.08	17.6163	2.133	955.0	2.22	Outcome2	2.15	11.1	2533.25	Yes		8.9524348810872				ISIRate	Loss
56.0	3	32.943	0.016	1149.386	7.45	3.72	18.5475	3.0	955.0	2.48	Outcome2	9.3	7.45	0.0	No	2.0	-1.84748961872405	1.398	34.341		GetAnswer	Gain
56.0	3	34.36	0.019	1150.803	7.45	3.72	18.5475	4.0	955.0	2.48	Outcome2	9.3	7.45	0.0	No		-1.84748961872405				ShowChoice	Gain
56.0	3	38.375	0.015	1154.818	7.45	3.72	18.5475	1.0	955.0	2.48	Outcome2	9.3	7.45	0.0	No		-1.84748961872405				ShowResult	Gain
56.0	3	39.391	0.016	1155.834	7.45	3.72	18.5475	4.697	955.0	2.48	Outcome2	9.3	7.45	0.0	No		-1.84748961872405				ISITrial	Gain
57.0	3	44.106	0.018	1160.549	-5.0	-5.0	17.9225	3.0	955.0	0.3	Certain	-1.3	-9.92	0.0	No	4.0	8.62400906002265	2.406	46.512		GetAnswer	Mixed
57.0	3	46.539	0.027	1162.982	-5.0	-5.0	17.9225	4.0	955.0	0.3	Certain	-1.3	-9.92	0.0	No		8.62400906002265				ShowChoice	Mixed
57.0	3	50.554	0.015	1166.997	-5.0	-5.0	17.9225	1.0	955.0	0.3	Certain	-1.3	-9.92	0.0	No		8.62400906002265				ShowResult	Mixed
57.0	3	51.57	0.016	1168.013	-5.0	-5.0	17.9225	4.291	955.0	0.3	Certain	-1.3	-9.92	0.0	No		8.62400906002265				ISITrial	Mixed
58.0	3	55.885	0.024	1172.328	13.9	2.38	19.66	3.0	955.0	3.6	Outcome2	4.77	13.9	3045.75	Yes	2.0	9.12570781426954	1.608	57.493		GetAnswer	Loss
58.0	3	57.518	0.025	1173.961	13.9	2.38	19.66	4.0	955.0	3.6	Outcome2	4.77	13.9	3045.75	Yes		9.12570781426954				ShowChoice	Loss
58.0	3	61.534	0.016	1177.977	13.9	2.38	19.66	1.0	955.0	3.6	Outcome2	4.77	13.9	3045.75	Yes		9.12570781426954				ShowResult	Loss
58.0	3	62.55	0.016	1178.993	13.9	2.38	19.66	2.037	955.0	3.6	Outcome2	4.77	13.9	3045.75	Yes		9.12570781426954				ISITrial	Loss
58.0	3	67.665	0.02	1184.108	13.9	2.38	19.66	1.587	955.0	3.6	Outcome2	4.77	13.9	3045.75	Yes		9.12570781426954			556.0	TrialHappiness	Loss
58.0	3	71.68	4.015	1188.123	13.9	2.38	19.66	4.183	955.0	3.6	Outcome2	4.77	13.9	3045.75	Yes		9.12570781426954				ISIRate	Loss
59.0	3	75.895	0.032	1192.338	5.11	2.56	20.2988	3.0	955.0	2.0	Outcome2	6.9	5.11	0.0	No	2.0	-1.7943563608909	1.322	77.217		GetAnswer	Gain
59.0	3	77.245	0.027	1193.688	5.11	2.56	20.2988	4.0	955.0	2.0	Outcome2	6.9	5.11	0.0	No		-1.7943563608909				ShowChoice	Gain
59.0	3	81.26	0.015	1197.703	5.11	2.56	20.2988	1.0	955.0	2.0	Outcome2	6.9	5.11	0.0	No		-1.7943563608909				ShowResult	Gain
59.0	3	82.276	0.016	1198.719	5.11	2.56	20.2988	5.064	955.0	2.0	Outcome2	6.9	5.11	0.0	No		-1.7943563608909				ISITrial	Gain
60.0	3	87.358	0.018	1203.801	-1.0	-1.0	20.1738	3.0	955.0	0.82	Certain	-5.83	3.5	3562.5	Yes	4.0	9.33182332955832	1.387	88.745		GetAnswer	Mixed
60.0	3	88.757	0.012	1205.2	-1.0	-1.0	20.1738	4.0	955.0	0.82	Certain	-5.83	3.5	3562.5	Yes		9.33182332955832				ShowChoice	Mixed
60.0	3	92.773	0.016	1209.216	-1.0	-1.0	20.1738	1.0	955.0	0.82	Certain	-5.83	3.5	3562.5	Yes		9.33182332955832				ShowResult	Mixed
60.0	3	93.789	0.016	1210.232	-1.0	-1.0	20.1738	8.0	955.0	0.82	Certain	-5.83	3.5	3562.5	Yes		9.33182332955832				ISITrial	Mixed
60.0	3	105.385	0.02	1221.828	-1.0	-1.0	20.1738	1.54	955.0	0.82	Certain	-5.83	3.5	3562.5	Yes	2{-2}4{-4}	9.33182332955832	1.54	106.925	568.0	TrialHappiness	Mixed
60.0	3	109.4	4.015	1225.843	-1.0	-1.0	20.1738	6.25	955.0	0.82	Certain	-5.83	3.5	3562.5	Yes		9.33182332955832				ISIRate	Mixed
61.0	3	115.681	0.031	1232.124	-3.0	-3.0	19.7988	3.0	955.0	0.52	Certain	-8.48	1.1	0.0	No	4.0	9.57984144960362	1.43	117.111		GetAnswer	Mixed
61.0	3	117.131	0.02	1233.574	-3.0	-3.0	19.7988	4.0	955.0	0.52	Certain	-8.48	1.1	0.0	No		9.57984144960362				ShowChoice	Mixed
61.0	3	121.146	0.015	1237.589	-3.0	-3.0	19.7988	1.0	955.0	0.52	Certain	-8.48	1.1	0.0	No		9.57984144960362				ShowResult	Mixed
61.0	3	122.162	0.016	1238.605	-3.0	-3.0	19.7988	4.586	955.0	0.52	Certain	-8.48	1.1	0.0	No		9.57984144960362				ISITrial	Mixed
62.0	3	126.777	0.029	1243.22	-1.0	-1.0	19.6738	3.0	955.0	0.66	Certain	-0.7	-2.56	3748.75	Yes	4.0	-1.8574933937334799	2.134	128.911		GetAnswer	Mixed
62.0	3	128.927	0.016	1245.37	-1.0	-1.0	19.6738	4.0	955.0	0.66	Certain	-0.7	-2.56	3748.75	Yes		-1.8574933937334799				ShowChoice	Mixed
62.0	3	132.942	0.015	1249.385	-1.0	-1.0	19.6738	1.0	955.0	0.66	Certain	-0.7	-2.56	3748.75	Yes		-1.8574933937334799				ShowResult	Mixed
62.0	3	133.958	0.016	1250.401	-1.0	-1.0	19.6738	5.212	955.0	0.66	Certain	-0.7	-2.56	3748.75	Yes		-1.8574933937334799				ISITrial	Mixed
62.0	3	142.955	0.016	1259.398	-1.0	-1.0	19.6738	1.946	955.0	0.66	Certain	-0.7	-2.56	3748.75	Yes		-1.8574933937334799			532.0	TrialHappiness	Mixed
62.0	3	146.97	4.015	1263.413	-1.0	-1.0	19.6738	6.995	955.0	0.66	Certain	-0.7	-2.56	3748.75	Yes		-1.8574933937334799				ISIRate	Mixed
63.0	3	153.985	0.02	1270.428	0.0	0.0	19.6738	3.0	955.0	0.66	Certain	1.3	-0.74	0.0	No	4.0	-2.04010947527369	2.002	155.987		GetAnswer	Mixed
63.0	3	156.001	0.014	1272.444	0.0	0.0	19.6738	4.0	955.0	0.66	Certain	1.3	-0.74	0.0	No		-2.04010947527369				ShowChoice	Mixed
63.0	3	160.016	0.015	1276.459	0.0	0.0	19.6738	1.0	955.0	0.66	Certain	1.3	-0.74	0.0	No		-2.04010947527369				ShowResult	Mixed
63.0	3	161.032	0.016	1277.475	0.0	0.0	19.6738	5.595	955.0	0.66	Certain	1.3	-0.74	0.0	No		-2.04010947527369				ISITrial	Mixed
64.0	3	166.647	0.02	1283.09	6.42	3.21	20.4763	3.0	955.0	1.68	Outcome2	8.5	6.42	0.0	No	2.0	-2.0800302000755	1.504	168.151		GetAnswer	Gain
64.0	3	168.18	0.029	1284.623	6.42	3.21	20.4763	4.0	955.0	1.68	Outcome2	8.5	6.42	0.0	No		-2.0800302000755				ShowChoice	Gain
64.0	3	172.195	0.015	1288.638	6.42	3.21	20.4763	1.0	955.0	1.68	Outcome2	8.5	6.42	0.0	No		-2.0800302000755				ShowResult	Gain
64.0	3	173.211	0.016	1289.654	6.42	3.21	20.4763	5.47	955.0	1.68	Outcome2	8.5	6.42	0.0	No		-2.0800302000755				ISITrial	Gain
65.0	3	178.709	0.028	1295.152	-4.0	-4.0	19.9763	3.0	955.0	0.82	Certain	1.5	-10.53	2996.75	Yes	4.0	12.0260475651189	1.535	180.244		GetAnswer	Mixed
65.0	3	180.259	0.015	1296.702	-4.0	-4.0	19.9763	4.0	955.0	0.82	Certain	1.5	-10.53	2996.75	Yes		12.0260475651189				ShowChoice	Mixed
65.0	3	184.274	0.015	1300.717	-4.0	-4.0	19.9763	1.0	955.0	0.82	Certain	1.5	-10.53	2996.75	Yes		12.0260475651189				ShowResult	Mixed
65.0	3	185.29	0.016	1301.733	-4.0	-4.0	19.9763	3.344	955.0	0.82	Certain	1.5	-10.53	2996.75	Yes		12.0260475651189				ISITrial	Mixed
65.0	3	191.671	0.018	1308.114	-4.0	-4.0	19.9763	1.593	955.0	0.82	Certain	1.5	-10.53	2996.75	Yes		12.0260475651189			532.0	TrialHappiness	Mixed
65.0	3	195.687	4.016	1312.13	-4.0	-4.0	19.9763	3.987	955.0	0.82	Certain	1.5	-10.53	2996.75	Yes		12.0260475651189				ISIRate	Mixed
66.0	3	199.702	0.028	1316.145	-2.0	-2.0	19.7263	3.0	955.0	2.0	Certain	4.3	-8.21	0.0	No	4.0	12.5050962627407	1.815	201.517		GetAnswer	Mixed
66.0	3	201.535	0.018	1317.978	-2.0	-2.0	19.7263	4.0	955.0	2.0	Certain	4.3	-8.21	0.0	No		12.5050962627407				ShowChoice	Mixed
66.0	3	205.55	0.015	1321.993	-2.0	-2.0	19.7263	1.0	955.0	2.0	Certain	4.3	-8.21	0.0	No		12.5050962627407				ShowResult	Mixed
66.0	3	206.566	0.016	1323.009	-2.0	-2.0	19.7263	3.959	955.0	2.0	Certain	4.3	-8.21	0.0	No		12.5050962627407				ISITrial	Mixed
67.0	3	210.548	0.023	1326.991	-7.0	-7.0	18.8513	3.0	955.0	0.82	Certain	-0.5	-13.48	2918.5	Yes	4.0	12.984144960362402	1.807	212.355		GetAnswer	Mixed
67.0	3	212.381	0.026	1328.824	-7.0	-7.0	18.8513	4.0	955.0	0.82	Certain	-0.5	-13.48	2918.5	Yes		12.984144960362402				ShowChoice	Mixed
67.0	3	216.396	0.015	1332.839	-7.0	-7.0	18.8513	1.0	955.0	0.82	Certain	-0.5	-13.48	2918.5	Yes		12.984144960362402				ShowResult	Mixed
67.0	3	217.412	0.016	1333.855	-7.0	-7.0	18.8513	4.199	955.0	0.82	Certain	-0.5	-13.48	2918.5	Yes		12.984144960362402				ISITrial	Mixed
67.0	3	224.577	0.031	1341.02	-7.0	-7.0	18.8513	0.0	955.0	0.82	Certain	-0.5	-13.48	2918.5	Yes		12.984144960362402			512.0	TrialHappiness	Mixed
67.0	3	228.592	4.015	1345.035	-7.0	-7.0	18.8513	3.674	955.0	0.82	Certain	-0.5	-13.48	2918.5	Yes		12.984144960362402				ISIRate	Mixed
68.0	3	232.291	0.025	1348.734	-3.0	-3.0	18.4763	3.0	955.0	0.66	Certain	-10.5	3.3	0.0	No	4.0	13.8029445073613	1.619	233.91		GetAnswer	Mixed
68.0	3	233.923	0.013	1350.366	-3.0	-3.0	18.4763	4.0	955.0	0.66	Certain	-10.5	3.3	0.0	No		13.8029445073613				ShowChoice	Mixed
68.0	3	237.939	0.016	1354.382	-3.0	-3.0	18.4763	1.0	955.0	0.66	Certain	-10.5	3.3	0.0	No		13.8029445073613				ShowResult	Mixed
68.0	3	238.955	0.016	1355.398	-3.0	-3.0	18.4763	2.185	955.0	0.66	Certain	-10.5	3.3	0.0	No		13.8029445073613				ISITrial	Mixed
69.0	3	241.171	0.031	1357.614	9.74	4.87	19.6938	3.0	955.0	4.2	Outcome2	12.1	9.74	0.0	No	2.0	-2.36268403171008	1.418	242.589		GetAnswer	Loss
69.0	3	242.604	0.015	1359.047	9.74	4.87	19.6938	4.0	955.0	4.2	Outcome2	12.1	9.74	0.0	No		-2.36268403171008				ShowChoice	Loss
69.0	3	246.619	0.015	1363.062	9.74	4.87	19.6938	1.0	955.0	4.2	Outcome2	12.1	9.74	0.0	No		-2.36268403171008				ShowResult	Loss
69.0	3	247.635	0.016	1364.078	9.74	4.87	19.6938	2.0	955.0	4.2	Outcome2	12.1	9.74	0.0	No		-2.36268403171008				ISITrial	Loss
70.0	3	249.651	0.016	1366.094	-7.0	-7.0	18.8188	3.0	955.0	1.2	Certain	-0.1	-14.91	3651.25	Yes	4.0	14.806342015855	1.639	251.29		GetAnswer	Mixed
70.0	3	251.317	0.027	1367.76	-7.0	-7.0	18.8188	4.0	955.0	1.2	Certain	-0.1	-14.91	3651.25	Yes		14.806342015855				ShowChoice	Mixed
70.0	3	255.333	0.016	1371.776	-7.0	-7.0	18.8188	1.0	955.0	1.2	Certain	-0.1	-14.91	3651.25	Yes		14.806342015855				ShowResult	Mixed
70.0	3	256.349	0.016	1372.792	-7.0	-7.0	18.8188	2.623	955.0	1.2	Certain	-0.1	-14.91	3651.25	Yes		14.806342015855				ISITrial	Mixed
70.0	3	262.68	0.031	1379.123	-7.0	-7.0	18.8188	0.554	955.0	1.2	Certain	-0.1	-14.91	3651.25	Yes		14.806342015855			492.0	TrialHappiness	Mixed
70.0	3	266.695	4.015	1383.138	-7.0	-7.0	18.8188	6.605	955.0	1.2	Certain	-0.1	-14.91	3651.25	Yes		14.806342015855				ISIRate	Mixed
71.0	3	273.326	0.026	1389.769	-9.0	-9.0	17.6938	3.0	955.0	0.2	Certain	-1.5	-17.15	0.0	No	4.0	15.6477916194791	2.043	275.369		GetAnswer	Mixed
71.0	3	275.392	0.023	1391.835	-9.0	-9.0	17.6938	4.0	955.0	0.2	Certain	-1.5	-17.15	0.0	No		15.6477916194791				ShowChoice	Mixed
71.0	3	279.408	0.016	1395.851	-9.0	-9.0	17.6938	1.0	955.0	0.2	Certain	-1.5	-17.15	0.0	No		15.6477916194791				ShowResult	Mixed
71.0	3	280.424	0.016	1396.867	-9.0	-9.0	17.6938	5.499	955.0	0.2	Certain	-1.5	-17.15	0.0	No		15.6477916194791				ISITrial	Mixed
72.0	3	285.955	0.032	1402.398	3.93	1.96	18.185	3.0	955.0	1.68	Outcome2	6.5	3.93	3080.5	Yes	2.0	-2.57115892789732	1.219	287.174		GetAnswer	Gain
72.0	3	287.188	0.014	1403.631	3.93	1.96	18.185	4.0	955.0	1.68	Outcome2	6.5	3.93	3080.5	Yes		-2.57115892789732				ShowChoice	Gain
72.0	3	291.203	0.015	1407.646	3.93	1.96	18.185	1.0	955.0	1.68	Outcome2	6.5	3.93	3080.5	Yes		-2.57115892789732				ShowResult	Gain
72.0	3	292.22	0.017	1408.663	3.93	1.96	18.185	5.672	955.0	1.68	Outcome2	6.5	3.93	3080.5	Yes		-2.57115892789732				ISITrial	Gain
72.0	3	301.017	0.019	1417.46	3.93	1.96	18.185	1.98	955.0	1.68	Outcome2	6.5	3.93	3080.5	Yes		-2.57115892789732			460.0	TrialHappiness	Gain
72.0	3	305.032	4.015	1421.475	3.93	1.96	18.185	4.322	955.0	1.68	Outcome2	6.5	3.93	3080.5	Yes		-2.57115892789732				ISIRate	Gain
73.0	3	309.38	0.026	1425.823	4.56	2.28	18.755	3.0	955.0	2.48	Outcome2	7.3	4.56	0.0	No	2.0	-2.74471498678747	1.155	310.535		GetAnswer	Gain
73.0	3	310.547	0.012	1426.99	4.56	2.28	18.755	4.0	955.0	2.48	Outcome2	7.3	4.56	0.0	No		-2.74471498678747				ShowChoice	Gain
73.0	3	314.562	0.015	1431.005	4.56	2.28	18.755	1.0	955.0	2.48	Outcome2	7.3	4.56	0.0	No		-2.74471498678747				ShowResult	Gain
73.0	3	315.578	0.016	1432.021	4.56	2.28	18.755	4.616	955.0	2.48	Outcome2	7.3	4.56	0.0	No		-2.74471498678747				ISITrial	Gain
74.0	3	320.227	0.033	1436.67	-1.0	-1.0	18.63	3.0	955.0	2.8	Certain	7.5	-10.3	3056.25	Yes	4.0	17.800679501698802	1.818	322.045		GetAnswer	Gain
74.0	3	322.059	0.014	1438.502	-1.0	-1.0	18.63	4.0	955.0	2.8	Certain	7.5	-10.3	3056.25	Yes		17.800679501698802				ShowChoice	Gain
74.0	3	326.075	0.016	1442.518	-1.0	-1.0	18.63	1.0	955.0	2.8	Certain	7.5	-10.3	3056.25	Yes		17.800679501698802				ShowResult	Gain
74.0	3	327.091	0.016	1443.534	-1.0	-1.0	18.63	3.909	955.0	2.8	Certain	7.5	-10.3	3056.25	Yes		17.800679501698802				ISITrial	Gain
74.0	3	334.105	0.026	1450.548	-1.0	-1.0	18.63	1.035	955.0	2.8	Certain	7.5	-10.3	3056.25	Yes		17.800679501698802			492.0	TrialHappiness	Gain
74.0	3	338.12	4.015	1454.563	-1.0	-1.0	18.63	4.225	955.0	2.8	Certain	7.5	-10.3	3056.25	Yes		17.800679501698802				ISIRate	Gain
75.0	3	342.369	0.024	1458.812	-6.0	-6.0	17.88	3.0	955.0	2.0	Certain	2.3	-15.52	0.0	No	4.0	17.817667044167603	1.345	343.714		GetAnswer	Mixed
75.0	3	343.735	0.021	1460.178	-6.0	-6.0	17.88	4.0	955.0	2.0	Certain	2.3	-15.52	0.0	No		17.817667044167603				ShowChoice	Mixed
75.0	3	347.75	0.015	1464.193	-6.0	-6.0	17.88	1.0	955.0	2.0	Certain	2.3	-15.52	0.0	No		17.817667044167603				ShowResult	Mixed
75.0	3	348.767	0.017	1465.21	-6.0	-6.0	17.88	4.979	955.0	2.0	Certain	2.3	-15.52	0.0	No		17.817667044167603				ISITrial	Mixed
76.0	3	353.765	0.019	1470.208	0.0	0.0	17.88	3.0	955.0	3.6	Certain	-8.44	9.9	0.0	No	4.0	18.3420158550396	1.325	355.09		GetAnswer	Gain
76.0	3	355.114	0.024	1471.557	0.0	0.0	17.88	4.0	955.0	3.6	Certain	-8.44	9.9	0.0	No		18.3420158550396				ShowChoice	Gain
76.0	3	359.13	0.016	1475.573	0.0	0.0	17.88	1.0	955.0	3.6	Certain	-8.44	9.9	0.0	No		18.3420158550396				ShowResult	Gain
76.0	3	360.146	0.016	1476.589	0.0	0.0	17.88	3.931	955.0	3.6	Certain	-8.44	9.9	0.0	No		18.3420158550396				ISITrial	Gain
77.0	3	364.095	0.018	1480.538	5.5	2.75	18.5675	3.0	955.0	5.0	Outcome1	5.5	8.3	4000.0	Yes	2.0	-2.7956776141940405	1.183	365.278		GetAnswer	Gain
77.0	3	365.294	0.016	1481.737	5.5	2.75	18.5675	4.0	955.0	5.0	Outcome1	5.5	8.3	4000.0	Yes		-2.7956776141940405				ShowChoice	Gain
77.0	3	369.309	0.015	1485.752	5.5	2.75	18.5675	1.0	955.0	5.0	Outcome1	5.5	8.3	4000.0	Yes		-2.7956776141940405				ShowResult	Gain
77.0	3	370.326	0.017	1486.769	5.5	2.75	18.5675	7.022	955.0	5.0	Outcome1	5.5	8.3	4000.0	Yes		-2.7956776141940405				ISITrial	Gain
77.0	3	381.405	0.032	1497.848	5.5	2.75	18.5675	0.0	955.0	5.0	Outcome1	5.5	8.3	4000.0	Yes		-2.7956776141940405			512.0	TrialHappiness	Gain
77.0	3	385.421	4.016	1501.864	5.5	2.75	18.5675	8.0	955.0	5.0	Outcome1	5.5	8.3	4000.0	Yes		-2.7956776141940405				ISIRate	Gain
78.0	3	393.451	0.03	1509.894	-7.0	-7.0	17.6925	3.0	955.0	1.2	Certain	-17.15	1.9	0.0	No	4.0	19.0509626274066	1.628	395.079		GetAnswer	Mixed
78.0	3	395.1	0.021	1511.543	-7.0	-7.0	17.6925	4.0	955.0	1.2	Certain	-17.15	1.9	0.0	No		19.0509626274066				ShowChoice	Mixed
78.0	3	399.116	0.016	1515.559	-7.0	-7.0	17.6925	1.0	955.0	1.2	Certain	-17.15	1.9	0.0	No		19.0509626274066				ShowResult	Mixed
78.0	3	400.132	0.016	1516.575	-7.0	-7.0	17.6925	2.078	955.0	1.2	Certain	-17.15	1.9	0.0	No		19.0509626274066				ISITrial	Mixed
79.0	3	402.231	0.021	1518.674	-8.0	-8.0	16.6925	3.0	955.0	0.66	Certain	-18.25	1.3	2729.5	Yes	4.0	19.5526613816535	1.225	403.456		GetAnswer	Mixed
79.0	3	403.481	0.025	1519.924	-8.0	-8.0	16.6925	4.0	955.0	0.66	Certain	-18.25	1.3	2729.5	Yes		19.5526613816535				ShowChoice	Mixed
79.0	3	407.496	0.015	1523.939	-8.0	-8.0	16.6925	1.0	955.0	0.66	Certain	-18.25	1.3	2729.5	Yes		19.5526613816535				ShowResult	Mixed
79.0	3	408.512	0.016	1524.955	-8.0	-8.0	16.6925	3.829	955.0	0.66	Certain	-18.25	1.3	2729.5	Yes		19.5526613816535				ISITrial	Mixed
79.0	3	415.11	0.019	1531.553	-8.0	-8.0	16.6925	1.726	955.0	0.66	Certain	-18.25	1.3	2729.5	Yes		19.5526613816535			452.0	TrialHappiness	Mixed
79.0	3	419.125	4.015	1535.568	-8.0	-8.0	16.6925	2.918	955.0	0.66	Certain	-18.25	1.3	2729.5	Yes		19.5526613816535				ISIRate	Mixed
80.0	3	422.074	0.031	1538.517	9.61	4.8	17.8938	3.0	955.0	1.82	Outcome2	12.7	9.61	0.0	No	2.0	-3.08531521328803	1.24	423.314		GetAnswer	Loss
80.0	3	423.341	0.027	1539.784	9.61	4.8	17.8938	4.0	955.0	1.82	Outcome2	12.7	9.61	0.0	No		-3.08531521328803				ShowChoice	Loss
80.0	3	427.356	0.015	1543.799	9.61	4.8	17.8938	1.0	955.0	1.82	Outcome2	12.7	9.61	0.0	No		-3.08531521328803				ShowResult	Loss
80.0	3	428.372	0.016	1544.815	9.61	4.8	17.8938	3.336	955.0	1.82	Outcome2	12.7	9.61	0.0	No		-3.08531521328803				ISITrial	Loss
81.0	3	431.738	0.03	1548.181	-11.0	-11.0	16.5188	3.0	955.0	1.2	Certain	-0.1	-21.74	3923.75	Yes	4.0	21.643261608154003	1.314	433.052		GetAnswer	Mixed
81.0	3	433.071	0.019	1549.514	-11.0	-11.0	16.5188	4.0	955.0	1.2	Certain	-0.1	-21.74	3923.75	Yes		21.643261608154003				ShowChoice	Mixed
81.0	3	437.086	0.015	1553.529	-11.0	-11.0	16.5188	1.0	955.0	1.2	Certain	-0.1	-21.74	3923.75	Yes		21.643261608154003				ShowResult	Mixed
81.0	3	438.102	0.016	1554.545	-11.0	-11.0	16.5188	3.919	955.0	1.2	Certain	-0.1	-21.74	3923.75	Yes		21.643261608154003				ISITrial	Mixed
81.0	3	445.983	0.025	1562.426	-11.0	-11.0	16.5188	1.54	955.0	1.2	Certain	-0.1	-21.74	3923.75	Yes		21.643261608154003			448.0	TrialHappiness	Mixed
81.0	3	449.998	4.015	1566.441	-11.0	-11.0	16.5188	7.695	955.0	1.2	Certain	-0.1	-21.74	3923.75	Yes		21.643261608154003				ISIRate	Mixed
	3	457.712	0.019	1574.155				3.0													CurrentEarnings	
	3	460.728	0.016	1577.171				-0.001								{SPACE}		20.797	481.525		Goodbye	
