trial_number	block	onset	onset_delay	onset_unadjusted	amount_change	certain_amount	current_amount	duration	mood_target	multiplier	outcome	outcome1_amount	outcome2_amount	question_duration	rating	response	rpe	rt	rt_time	slider_response	trial_phase	trial_type
	0	-47.089	0.019	14.828				-0.001								{SPACE}		3.191	-43.898		Welcome	
	0	-43.872	0.026	18.045				5.0													LifeHappyPreview	
	0	-38.84	0.032	23.077				2.09												592.0	LifeHappiness	
	0	-32.409	0.017	29.508				4.0													BlockHappyPreview	
	0	-28.394	0.015	33.523				0.409												532.0	BlockStartHappiness	
	0	-2.586	0.017	59.331				-0.001								5.0					ScanWait	
	1	0.013	0.013	61.93				10.0													GetReady	
1.0	1	10.043	0.03	71.96	0.0	0.0	10.0	3.0	955.0	0.4	Certain	2.9	-4.29	0.0	No	4.0	7.18573046432616	0.95	10.993		GetAnswer	Mixed
1.0	1	11.009	0.016	72.926	0.0	0.0	10.0	4.0	955.0	0.4	Certain	2.9	-4.29	0.0	No		7.18573046432616				ShowChoice	Mixed
1.0	1	15.024	0.015	76.941	0.0	0.0	10.0	1.0	955.0	0.4	Certain	2.9	-4.29	0.0	No		7.18573046432616				ShowResult	Mixed
1.0	1	16.041	0.017	77.958	0.0	0.0	10.0	2.431	955.0	0.4	Certain	2.9	-4.29	0.0	No		7.18573046432616				ISITrial	Mixed
2.0	1	18.49	0.018	80.407	-3.0	-3.0	9.625	3.0	955.0	0.2	Certain	0.5	-7.16	0.0	No	4.0	7.6647791619479095	0.933	19.423		GetAnswer	Mixed
2.0	1	19.44	0.017	81.357	-3.0	-3.0	9.625	4.0	955.0	0.2	Certain	0.5	-7.16	0.0	No		7.6647791619479095				ShowChoice	Mixed
2.0	1	23.455	0.015	85.372	-3.0	-3.0	9.625	1.0	955.0	0.2	Certain	0.5	-7.16	0.0	No		7.6647791619479095				ShowResult	Mixed
2.0	1	24.471	0.016	86.388	-3.0	-3.0	9.625	4.568	955.0	0.2	Certain	0.5	-7.16	0.0	No		7.6647791619479095				ISITrial	Mixed
3.0	1	29.07	0.031	90.987	3.3	1.65	10.0375	3.0	955.0	2.22	Outcome2	5.1	3.3	2868.0	Yes	2.0	-1.79643261608154	0.911	29.981		GetAnswer	Gain
3.0	1	30.003	0.022	91.92	3.3	1.65	10.0375	4.0	955.0	2.22	Outcome2	5.1	3.3	2868.0	Yes		-1.79643261608154				ShowChoice	Gain
3.0	1	34.018	0.015	95.935	3.3	1.65	10.0375	1.0	955.0	2.22	Outcome2	5.1	3.3	2868.0	Yes		-1.79643261608154				ShowResult	Gain
3.0	1	35.034	0.016	96.951	3.3	1.65	10.0375	3.243	955.0	2.22	Outcome2	5.1	3.3	2868.0	Yes		-1.79643261608154				ISITrial	Gain
3.0	1	41.199	0.031	103.116	3.3	1.65	10.0375	0.682	955.0	2.22	Outcome2	5.1	3.3	2868.0	Yes		-1.79643261608154			552.0	TrialHappiness	Gain
3.0	1	45.214	4.015	107.131	3.3	1.65	10.0375	3.472	955.0	2.22	Outcome2	5.1	3.3	2868.0	Yes		-1.79643261608154				ISIRate	Gain
4.0	1	48.713	0.027	110.63	9.74	4.87	11.255	3.0	955.0	2.8	Outcome2	11.5	9.74	0.0	No	2.0	-1.75519063797659	0.852	49.565		GetAnswer	Loss
4.0	1	49.579	0.014	111.496	9.74	4.87	11.255	4.0	955.0	2.8	Outcome2	11.5	9.74	0.0	No		-1.75519063797659				ShowChoice	Loss
4.0	1	53.594	0.015	115.511	9.74	4.87	11.255	1.0	955.0	2.8	Outcome2	11.5	9.74	0.0	No		-1.75519063797659				ShowResult	Loss
4.0	1	54.611	0.017	116.528	9.74	4.87	11.255	2.011	955.0	2.8	Outcome2	11.5	9.74	0.0	No		-1.75519063797659				ISITrial	Loss
5.0	1	56.643	0.021	118.56	7.5	-0.62	12.1925	3.0	955.0	2.8	Outcome1	7.5	-1.24	2582.5	Yes	2.0	8.739524348810871	1.007	57.65		GetAnswer	Gain
5.0	1	57.676	0.026	119.593	7.5	-0.62	12.1925	4.0	955.0	2.8	Outcome1	7.5	-1.24	2582.5	Yes		8.739524348810871				ShowChoice	Gain
5.0	1	61.692	0.016	123.609	7.5	-0.62	12.1925	1.0	955.0	2.8	Outcome1	7.5	-1.24	2582.5	Yes		8.739524348810871				ShowResult	Gain
5.0	1	62.708	0.016	124.625	7.5	-0.62	12.1925	5.129	955.0	2.8	Outcome1	7.5	-1.24	2582.5	Yes		8.739524348810871				ISITrial	Gain
5.0	1	70.455	0.017	132.372	7.5	-0.62	12.1925	1.009	955.0	2.8	Outcome1	7.5	-1.24	2582.5	Yes		8.739524348810871			572.0	TrialHappiness	Gain
5.0	1	74.47	4.015	136.387	7.5	-0.62	12.1925	2.33	955.0	2.8	Outcome1	7.5	-1.24	2582.5	Yes		8.739524348810871				ISIRate	Gain
6.0	1	76.82	0.02	138.737	10.3	0.72	13.48	3.0	955.0	5.0	Outcome1	10.3	1.44	0.0	No	2.0	8.856172140430349	0.781	77.601		GetAnswer	Gain
6.0	1	77.619	0.018	139.536	10.3	0.72	13.48	4.0	955.0	5.0	Outcome1	10.3	1.44	0.0	No		8.856172140430349				ShowChoice	Gain
6.0	1	81.635	0.016	143.552	10.3	0.72	13.48	1.0	955.0	5.0	Outcome1	10.3	1.44	0.0	No		8.856172140430349				ShowResult	Gain
6.0	1	82.651	0.016	144.568	10.3	0.72	13.48	6.232	955.0	5.0	Outcome1	10.3	1.44	0.0	No		8.856172140430349				ISITrial	Gain
7.0	1	88.915	0.032	150.832	0.0	0.0	13.48	3.0	955.0	2.0	Certain	-4.99	4.3	0.0	No	4.0	9.289920724801812	1.119	90.034		GetAnswer	Mixed
7.0	1	90.048	0.014	151.965	0.0	0.0	13.48	4.0	955.0	2.0	Certain	-4.99	4.3	0.0	No		9.289920724801812				ShowChoice	Mixed
7.0	1	94.064	0.016	155.981	0.0	0.0	13.48	1.0	955.0	2.0	Certain	-4.99	4.3	0.0	No		9.289920724801812				ShowResult	Mixed
7.0	1	95.08	0.016	156.997	0.0	0.0	13.48	2.305	955.0	2.0	Certain	-4.99	4.3	0.0	No		9.289920724801812				ISITrial	Mixed
8.0	1	97.412	0.027	159.329	-0.32	0.0	13.44	3.0	955.0	0.82	Outcome1	-0.32	1.5	3112.5	Yes	2.0	-1.8223858059645102	1.231	98.643		GetAnswer	Mixed
8.0	1	98.662	0.019	160.579	-0.32	0.0	13.44	4.0	955.0	0.82	Outcome1	-0.32	1.5	3112.5	Yes		-1.8223858059645102				ShowChoice	Mixed
8.0	1	102.677	0.015	164.594	-0.32	0.0	13.44	1.0	955.0	0.82	Outcome1	-0.32	1.5	3112.5	Yes		-1.8223858059645102				ShowResult	Mixed
8.0	1	103.694	0.017	165.611	-0.32	0.0	13.44	3.506	955.0	0.82	Outcome1	-0.32	1.5	3112.5	Yes		-1.8223858059645102				ISITrial	Mixed
8.0	1	110.358	0.02	172.275	-0.32	0.0	13.44	0.967	955.0	0.82	Outcome1	-0.32	1.5	3112.5	Yes		-1.8223858059645102			572.0	TrialHappiness	Mixed
8.0	1	114.373	4.015	176.29	-0.32	0.0	13.44	4.45	955.0	0.82	Outcome1	-0.32	1.5	3112.5	Yes		-1.8223858059645102				ISIRate	Mixed
9.0	1	118.855	0.032	180.772	-2.0	-2.0	13.19	3.0	955.0	0.3	Certain	-7.46	2.7	0.0	No	4.0	10.157417893544698	1.562	120.417		GetAnswer	Mixed
9.0	1	120.438	0.02	182.355	-2.0	-2.0	13.19	4.0	955.0	0.3	Certain	-7.46	2.7	0.0	No		10.157417893544698				ShowChoice	Mixed
9.0	1	124.453	0.015	186.37	-2.0	-2.0	13.19	1.0	955.0	0.3	Certain	-7.46	2.7	0.0	No		10.157417893544698				ShowResult	Mixed
9.0	1	125.469	0.016	187.386	-2.0	-2.0	13.19	2.0	955.0	0.3	Certain	-7.46	2.7	0.0	No		10.157417893544698				ISITrial	Mixed
10.0	1	127.502	0.033	189.419	-7.0	-7.0	12.315	3.0	955.0	0.2	Certain	-12.09	-1.5	4000.0	Yes	4.0	10.591166477916198	1.359	128.861		GetAnswer	Mixed
10.0	1	128.885	0.024	190.802	-7.0	-7.0	12.315	4.0	955.0	0.2	Certain	-12.09	-1.5	4000.0	Yes		10.591166477916198				ShowChoice	Mixed
10.0	1	132.9	0.015	194.817	-7.0	-7.0	12.315	1.0	955.0	0.2	Certain	-12.09	-1.5	4000.0	Yes		10.591166477916198				ShowResult	Mixed
10.0	1	133.916	0.016	195.833	-7.0	-7.0	12.315	2.0	955.0	0.2	Certain	-12.09	-1.5	4000.0	Yes		10.591166477916198				ISITrial	Mixed
10.0	1	139.964	0.032	201.881	-7.0	-7.0	12.315	0.782	955.0	0.2	Certain	-12.09	-1.5	4000.0	Yes		10.591166477916198			552.0	TrialHappiness	Mixed
10.0	1	143.979	4.015	205.896	-7.0	-7.0	12.315	8.0	955.0	0.2	Certain	-12.09	-1.5	4000.0	Yes		10.591166477916198				ISIRate	Mixed
11.0	1	152.01	0.031	213.927	9.7	-0.83	13.5275	3.0	955.0	3.16	Outcome2	-1.66	9.7	0.0	No	2.0	11.364665911664801	1.257	153.267		GetAnswer	Gain
11.0	1	153.293	0.026	215.21	9.7	-0.83	13.5275	4.0	955.0	3.16	Outcome2	-1.66	9.7	0.0	No		11.364665911664801				ShowChoice	Gain
11.0	1	157.308	0.015	219.225	9.7	-0.83	13.5275	1.0	955.0	3.16	Outcome2	-1.66	9.7	0.0	No		11.364665911664801				ShowResult	Gain
11.0	1	158.324	0.016	220.241	9.7	-0.83	13.5275	3.324	955.0	3.16	Outcome2	-1.66	9.7	0.0	No		11.364665911664801				ISITrial	Gain
12.0	1	161.673	0.025	223.59	-1.0	-1.0	13.4025	3.0	955.0	1.5	Certain	-1.95	0.1	2618.75	Yes	4.0	-2.05001887504719	1.443	163.116		GetAnswer	Mixed
12.0	1	163.139	0.023	225.056	-1.0	-1.0	13.4025	4.0	955.0	1.5	Certain	-1.95	0.1	2618.75	Yes		-2.05001887504719				ShowChoice	Mixed
12.0	1	167.155	0.016	229.072	-1.0	-1.0	13.4025	1.0	955.0	1.5	Certain	-1.95	0.1	2618.75	Yes		-2.05001887504719				ShowResult	Mixed
12.0	1	168.171	0.016	230.088	-1.0	-1.0	13.4025	6.642	955.0	1.5	Certain	-1.95	0.1	2618.75	Yes		-2.05001887504719				ISITrial	Mixed
12.0	1	177.484	0.03	239.401	-1.0	-1.0	13.4025	0.981	955.0	1.5	Certain	-1.95	0.1	2618.75	Yes		-2.05001887504719			572.0	TrialHappiness	Mixed
12.0	1	181.5	4.016	243.417	-1.0	-1.0	13.4025	2.475	955.0	1.5	Certain	-1.95	0.1	2618.75	Yes		-2.05001887504719				ISIRate	Mixed
13.0	1	183.999	0.024	245.916	5.69	2.84	14.1138	3.0	955.0	3.16	Outcome2	7.7	5.69	0.0	No	2.0	-2.00688939222348	0.985	184.984		GetAnswer	Gain
13.0	1	184.999	0.015	246.916	5.69	2.84	14.1138	4.0	955.0	3.16	Outcome2	7.7	5.69	0.0	No		-2.00688939222348				ShowChoice	Gain
13.0	1	189.014	0.015	250.931	5.69	2.84	14.1138	1.0	955.0	3.16	Outcome2	7.7	5.69	0.0	No		-2.00688939222348				ShowResult	Gain
13.0	1	190.03	0.016	251.947	5.69	2.84	14.1138	3.48	955.0	3.16	Outcome2	7.7	5.69	0.0	No		-2.00688939222348				ISITrial	Gain
14.0	1	193.529	0.019	255.446	11.3	-0.54	15.5263	3.0	955.0	2.48	Outcome2	-1.07	11.3	0.0	No	2.0	12.3714609286523	1.084	194.613		GetAnswer	Loss
14.0	1	194.628	0.015	256.545	11.3	-0.54	15.5263	4.0	955.0	2.48	Outcome2	-1.07	11.3	0.0	No		12.3714609286523				ShowChoice	Loss
14.0	1	198.644	0.016	260.561	11.3	-0.54	15.5263	1.0	955.0	2.48	Outcome2	-1.07	11.3	0.0	No		12.3714609286523				ShowResult	Loss
14.0	1	199.66	0.016	261.577	11.3	-0.54	15.5263	5.019	955.0	2.48	Outcome2	-1.07	11.3	0.0	No		12.3714609286523				ISITrial	Loss
15.0	1	204.708	0.029	266.625	-1.0	-1.0	15.4013	3.0	955.0	1.82	Certain	4.7	-8.11	3348.5	Yes	4.0	12.8052095130238	1.572	206.28		GetAnswer	Gain
15.0	1	206.308	0.028	268.225	-1.0	-1.0	15.4013	4.0	955.0	1.82	Certain	4.7	-8.11	3348.5	Yes		12.8052095130238				ShowChoice	Gain
15.0	1	210.323	0.015	272.24	-1.0	-1.0	15.4013	1.0	955.0	1.82	Certain	4.7	-8.11	3348.5	Yes		12.8052095130238				ShowResult	Gain
15.0	1	211.339	0.016	273.256	-1.0	-1.0	15.4013	7.614	955.0	1.82	Certain	4.7	-8.11	3348.5	Yes		12.8052095130238				ISITrial	Gain
15.0	1	222.335	0.017	284.252	-1.0	-1.0	15.4013	1.132	955.0	1.82	Certain	4.7	-8.11	3348.5	Yes		12.8052095130238			572.0	TrialHappiness	Gain
15.0	1	226.351	4.016	288.268	-1.0	-1.0	15.4013	5.394	955.0	1.82	Certain	4.7	-8.11	3348.5	Yes		12.8052095130238				ISIRate	Gain
16.0	1	231.766	0.021	293.683	0.0	0.0	15.4013	3.0	955.0	4.2	Certain	6.1	-7.14	0.0	No	4.0	13.238958097395198	1.079	232.845		GetAnswer	Gain
16.0	1	232.865	0.02	294.782	0.0	0.0	15.4013	4.0	955.0	4.2	Certain	6.1	-7.14	0.0	No		13.238958097395198				ShowChoice	Gain
16.0	1	236.88	0.015	298.797	0.0	0.0	15.4013	1.0	955.0	4.2	Certain	6.1	-7.14	0.0	No		13.238958097395198				ShowResult	Gain
16.0	1	237.897	0.017	299.814	0.0	0.0	15.4013	3.008	955.0	4.2	Certain	6.1	-7.14	0.0	No		13.238958097395198				ISITrial	Gain
17.0	1	240.929	0.024	302.846	3.35	1.68	15.8201	3.0	955.0	2.8	Outcome2	5.5	3.35	3041.5	Yes	2.0	-2.15147225368063	1.079	242.008		GetAnswer	Gain
17.0	1	242.029	0.021	303.946	3.35	1.68	15.8201	4.0	955.0	2.8	Outcome2	5.5	3.35	3041.5	Yes		-2.15147225368063				ShowChoice	Gain
17.0	1	246.044	0.015	307.961	3.35	1.68	15.8201	1.0	955.0	2.8	Outcome2	5.5	3.35	3041.5	Yes		-2.15147225368063				ShowResult	Gain
17.0	1	247.06	0.016	308.977	3.35	1.68	15.8201	3.566	955.0	2.8	Outcome2	5.5	3.35	3041.5	Yes		-2.15147225368063				ISITrial	Gain
17.0	1	253.708	0.024	315.625	3.35	1.68	15.8201	1.044	955.0	2.8	Outcome2	5.5	3.35	3041.5	Yes		-2.15147225368063			572.0	TrialHappiness	Gain
17.0	1	257.723	4.015	319.64	3.35	1.68	15.8201	4.166	955.0	2.8	Outcome2	5.5	3.35	3041.5	Yes		-2.15147225368063				ISIRate	Gain
18.0	1	261.922	0.033	323.839	13.5	-0.3	17.5076	3.0	955.0	2.8	Outcome2	-0.61	13.5	0.0	No	2.0	14.106455266138198	1.195	263.117		GetAnswer	Loss
18.0	1	263.138	0.021	325.055	13.5	-0.3	17.5076	4.0	955.0	2.8	Outcome2	-0.61	13.5	0.0	No		14.106455266138198				ShowChoice	Loss
18.0	1	267.153	0.015	329.07	13.5	-0.3	17.5076	1.0	955.0	2.8	Outcome2	-0.61	13.5	0.0	No		14.106455266138198				ShowResult	Loss
18.0	1	268.17	0.017	330.087	13.5	-0.3	17.5076	6.787	955.0	2.8	Outcome2	-0.61	13.5	0.0	No		14.106455266138198				ISITrial	Loss
19.0	1	274.984	0.027	336.901	8.48	4.24	18.5676	3.0	955.0	1.82	Outcome2	10.7	8.48	0.0	No	2.0	-2.22376368440921	0.924	275.908		GetAnswer	Loss
19.0	1	275.933	0.025	337.85	8.48	4.24	18.5676	4.0	955.0	1.82	Outcome2	10.7	8.48	0.0	No		-2.22376368440921				ShowChoice	Loss
19.0	1	279.949	0.016	341.866	8.48	4.24	18.5676	1.0	955.0	1.82	Outcome2	10.7	8.48	0.0	No		-2.22376368440921				ShowResult	Loss
19.0	1	280.965	0.016	342.882	8.48	4.24	18.5676	2.0	955.0	1.82	Outcome2	10.7	8.48	0.0	No		-2.22376368440921				ISITrial	Loss
20.0	1	282.998	0.033	344.915	-7.0	-7.0	17.6926	3.0	955.0	2.0	Certain	-14.67	0.3	2921.25	Yes	4.0	14.9739524348811	1.343	284.341		GetAnswer	Mixed
20.0	1	284.364	0.023	346.281	-7.0	-7.0	17.6926	4.0	955.0	2.0	Certain	-14.67	0.3	2921.25	Yes		14.9739524348811				ShowChoice	Mixed
20.0	1	288.379	0.015	350.296	-7.0	-7.0	17.6926	1.0	955.0	2.0	Certain	-14.67	0.3	2921.25	Yes		14.9739524348811				ShowResult	Mixed
20.0	1	289.395	0.016	351.312	-7.0	-7.0	17.6926	8.0	955.0	2.0	Certain	-14.67	0.3	2921.25	Yes		14.9739524348811				ISITrial	Mixed
20.0	1	300.375	0.028	362.292	-7.0	-7.0	17.6926	2.26	955.0	2.0	Certain	-14.67	0.3	2921.25	Yes		14.9739524348811			580.0	TrialHappiness	Mixed
20.0	1	304.39	4.015	366.307	-7.0	-7.0	17.6926	3.685	955.0	2.0	Certain	-14.67	0.3	2921.25	Yes		14.9739524348811				ISIRate	Mixed
21.0	1	308.106	0.031	370.023	8.24	4.12	18.7226	3.0	955.0	1.68	Outcome2	10.5	8.24	0.0	No	2.0	-2.2635900339750896	0.939	309.045		GetAnswer	Loss
21.0	1	309.072	0.027	370.989	8.24	4.12	18.7226	4.0	955.0	1.68	Outcome2	10.5	8.24	0.0	No		-2.2635900339750896				ShowChoice	Loss
21.0	1	313.087	0.015	375.004	8.24	4.12	18.7226	1.0	955.0	1.68	Outcome2	10.5	8.24	0.0	No		-2.2635900339750896				ShowResult	Loss
21.0	1	314.103	0.016	376.02	8.24	4.12	18.7226	3.555	955.0	1.68	Outcome2	10.5	8.24	0.0	No		-2.2635900339750896				ISITrial	Loss
22.0	1	317.686	0.028	379.603	12.1	-1.8	20.2351	3.0	955.0	4.2	Outcome2	-3.6	12.1	3219.5	Yes	2.0	15.6964892412231	1.171	318.857		GetAnswer	Loss
22.0	1	318.885	0.028	380.802	12.1	-1.8	20.2351	4.0	955.0	4.2	Outcome2	-3.6	12.1	3219.5	Yes		15.6964892412231				ShowChoice	Loss
22.0	1	322.9	0.015	384.817	12.1	-1.8	20.2351	1.0	955.0	4.2	Outcome2	-3.6	12.1	3219.5	Yes		15.6964892412231				ShowResult	Loss
22.0	1	323.917	0.017	385.834	12.1	-1.8	20.2351	6.793	955.0	4.2	Outcome2	-3.6	12.1	3219.5	Yes		15.6964892412231				ISITrial	Loss
22.0	1	333.98	0.029	395.897	12.1	-1.8	20.2351	1.178	955.0	4.2	Outcome2	-3.6	12.1	3219.5	Yes		15.6964892412231			592.0	TrialHappiness	Loss
22.0	1	337.995	4.015	399.912	12.1	-1.8	20.2351	4.878	955.0	4.2	Outcome2	-3.6	12.1	3219.5	Yes		15.6964892412231				ISIRate	Loss
23.0	1	342.893	0.02	404.81	9.5	1.0	21.4226	3.0	955.0	2.8	Outcome2	-6.42	9.5	0.0	No	2.0	15.9173272933182	1.159	344.052		GetAnswer	Gain
23.0	1	344.076	0.024	405.993	9.5	1.0	21.4226	4.0	955.0	2.8	Outcome2	-6.42	9.5	0.0	No		15.9173272933182				ShowChoice	Gain
23.0	1	348.092	0.016	410.009	9.5	1.0	21.4226	1.0	955.0	2.8	Outcome2	-6.42	9.5	0.0	No		15.9173272933182				ShowResult	Gain
23.0	1	349.108	0.016	411.025	9.5	1.0	21.4226	8.0	955.0	2.8	Outcome2	-6.42	9.5	0.0	No		15.9173272933182				ISITrial	Gain
24.0	1	357.138	0.03	419.055	12.9	-1.72	23.0351	3.0	955.0	2.0	Outcome2	-3.43	12.9	3255.0	Yes	2.0	16.3284258210646	1.113	358.251		GetAnswer	Loss
24.0	1	358.271	0.02	420.188	12.9	-1.72	23.0351	4.0	955.0	2.0	Outcome2	-3.43	12.9	3255.0	Yes		16.3284258210646				ShowChoice	Loss
24.0	1	362.287	0.016	424.204	12.9	-1.72	23.0351	1.0	955.0	2.0	Outcome2	-3.43	12.9	3255.0	Yes		16.3284258210646				ShowResult	Loss
24.0	1	363.303	0.016	425.22	12.9	-1.72	23.0351	2.0	955.0	2.0	Outcome2	-3.43	12.9	3255.0	Yes		16.3284258210646				ISITrial	Loss
24.0	1	368.601	0.027	430.518	12.9	-1.72	23.0351	1.085	955.0	2.0	Outcome2	-3.43	12.9	3255.0	Yes		16.3284258210646			592.0	TrialHappiness	Loss
24.0	1	372.616	4.015	434.533	12.9	-1.72	23.0351	5.02	955.0	2.0	Outcome2	-3.43	12.9	3255.0	Yes		16.3284258210646				ISIRate	Loss
25.0	1	377.665	0.029	439.582	4.35	2.17	23.5789	3.0	955.0	1.82	Outcome1	4.35	6.7	0.0	No	2.0	-2.35419026047565	1.085	378.75		GetAnswer	Gain
25.0	1	378.764	0.014	440.681	4.35	2.17	23.5789	4.0	955.0	1.82	Outcome1	4.35	6.7	0.0	No		-2.35419026047565				ShowChoice	Gain
25.0	1	382.78	0.016	444.697	4.35	2.17	23.5789	1.0	955.0	1.82	Outcome1	4.35	6.7	0.0	No		-2.35419026047565				ShowResult	Gain
25.0	1	383.796	0.016	445.713	4.35	2.17	23.5789	3.749	955.0	1.82	Outcome1	4.35	6.7	0.0	No		-2.35419026047565				ISITrial	Gain
26.0	1	387.561	0.016	449.478	12.7	-2.22	25.1664	3.0	955.0	1.82	Outcome1	12.7	-4.45	0.0	No	2.0	17.1506228765572	0.987	388.548		GetAnswer	Loss
26.0	1	388.561	0.013	450.478	12.7	-2.22	25.1664	4.0	955.0	1.82	Outcome1	12.7	-4.45	0.0	No		17.1506228765572				ShowChoice	Loss
26.0	1	392.576	0.015	454.493	12.7	-2.22	25.1664	1.0	955.0	1.82	Outcome1	12.7	-4.45	0.0	No		17.1506228765572				ShowResult	Loss
26.0	1	393.592	0.016	455.509	12.7	-2.22	25.1664	7.834	955.0	1.82	Outcome1	12.7	-4.45	0.0	No		17.1506228765572				ISITrial	Loss
27.0	1	401.456	0.03	463.373	0.0	0.0	25.1664	3.0	955.0	5.0	Certain	8.3	-9.26	2549.75	Yes	4.0	17.5617214043035	1.94	403.396		GetAnswer	Gain
27.0	1	403.422	0.026	465.339	0.0	0.0	25.1664	4.0	955.0	5.0	Certain	8.3	-9.26	2549.75	Yes		17.5617214043035				ShowChoice	Gain
27.0	1	407.438	0.016	469.355	0.0	0.0	25.1664	1.0	955.0	5.0	Certain	8.3	-9.26	2549.75	Yes		17.5617214043035				ShowResult	Gain
27.0	1	408.454	0.016	470.371	0.0	0.0	25.1664	4.225	955.0	5.0	Certain	8.3	-9.26	2549.75	Yes		17.5617214043035				ISITrial	Gain
27.0	1	415.268	0.016	477.185	0.0	0.0	25.1664	1.69	955.0	5.0	Certain	8.3	-9.26	2549.75	Yes		17.5617214043035			576.0	TrialHappiness	Gain
27.0	1	419.283	4.015	481.2	0.0	0.0	25.1664	2.199	955.0	5.0	Certain	8.3	-9.26	2549.75	Yes		17.5617214043035				ISIRate	Gain
	1	421.499	0.017	483.416				-0.001								{SPACE}		67.392	488.891		Rest	
	1	488.909	0.018	550.826				4.0													BlockHappyPreview	
	1	492.924	0.015	554.841				1.183												576.0	BlockStartHappiness	
	1	501.371	0.016	563.288				-0.001								5.0		1.847	503.218		ScanWait	
	2	0.019	0.019	565.154				10.0													GetReady	
28.0	2	10.033	0.014	575.168	-2.71	1.0	24.8276	3.0	70.0	3.6	Outcome1	-2.71	5.9	0.0	No	2.0	-8.605442176870751	1.194	11.227		GetAnswer	Gain
28.0	2	11.249	0.022	576.384	-2.71	1.0	24.8276	4.0	70.0	3.6	Outcome1	-2.71	5.9	0.0	No		-8.605442176870751				ShowChoice	Gain
28.0	2	15.264	0.015	580.399	-2.71	1.0	24.8276	1.0	70.0	3.6	Outcome1	-2.71	5.9	0.0	No		-8.605442176870751				ShowResult	Gain
28.0	2	16.28	0.016	581.415	-2.71	1.0	24.8276	3.575	70.0	3.6	Outcome1	-2.71	5.9	0.0	No		-8.605442176870751				ISITrial	Gain
29.0	2	19.879	0.024	585.014	0.0	0.0	24.8276	3.0	70.0	1.2	Certain	-1.12	0.98	3529.0	Yes	4.0	2.10355253212396	1.251	21.13		GetAnswer	Mixed
29.0	2	21.145	0.015	586.28	0.0	0.0	24.8276	4.0	70.0	1.2	Certain	-1.12	0.98	3529.0	Yes		2.10355253212396				ShowChoice	Mixed
29.0	2	25.161	0.016	590.296	0.0	0.0	24.8276	1.0	70.0	1.2	Certain	-1.12	0.98	3529.0	Yes		2.10355253212396				ShowResult	Mixed
29.0	2	26.177	0.016	591.312	0.0	0.0	24.8276	3.955	70.0	1.2	Certain	-1.12	0.98	3529.0	Yes		2.10355253212396				ISITrial	Mixed
29.0	2	33.708	0.02	598.843	0.0	0.0	24.8276	0.874	70.0	1.2	Certain	-1.12	0.98	3529.0	Yes		2.10355253212396			552.0	TrialHappiness	Mixed
29.0	2	37.723	4.015	602.858	0.0	0.0	24.8276	6.116	70.0	1.2	Certain	-1.12	0.98	3529.0	Yes		2.10355253212396				ISIRate	Mixed
30.0	2	43.871	0.032	609.006	-0.84	-0.42	24.7226	3.0	70.0	1.68	Outcome2	8.5	-0.84	0.0	No	2.0	-9.34467120181406	1.159	45.03		GetAnswer	Gain
30.0	2	45.054	0.024	610.189	-0.84	-0.42	24.7226	4.0	70.0	1.68	Outcome2	8.5	-0.84	0.0	No		-9.34467120181406				ShowChoice	Gain
30.0	2	49.069	0.015	614.204	-0.84	-0.42	24.7226	1.0	70.0	1.68	Outcome2	8.5	-0.84	0.0	No		-9.34467120181406				ShowResult	Gain
30.0	2	50.085	0.016	615.22	-0.84	-0.42	24.7226	4.453	70.0	1.68	Outcome2	8.5	-0.84	0.0	No		-9.34467120181406				ISITrial	Gain
31.0	2	54.567	0.029	619.702	-0.4	-0.4	24.6726	3.0	70.0	2.22	Certain	-0.79	9.1	2503.25	Yes	4.0	-9.89115646258503	1.462	56.029		GetAnswer	Gain
31.0	2	56.05	0.021	621.185	-0.4	-0.4	24.6726	4.0	70.0	2.22	Certain	-0.79	9.1	2503.25	Yes		-9.89115646258503				ShowChoice	Gain
31.0	2	60.065	0.015	625.2	-0.4	-0.4	24.6726	1.0	70.0	2.22	Certain	-0.79	9.1	2503.25	Yes		-9.89115646258503				ShowResult	Gain
31.0	2	61.082	0.017	626.217	-0.4	-0.4	24.6726	4.786	70.0	2.22	Certain	-0.79	9.1	2503.25	Yes		-9.89115646258503				ISITrial	Gain
31.0	2	68.412	0.029	633.547	-0.4	-0.4	24.6726	0.811	70.0	2.22	Certain	-0.79	9.1	2503.25	Yes		-9.89115646258503			552.0	TrialHappiness	Gain
31.0	2	72.428	4.016	637.563	-0.4	-0.4	24.6726	2.013	70.0	2.22	Certain	-0.79	9.1	2503.25	Yes		-9.89115646258503				ISIRate	Gain
32.0	2	74.46	0.019	639.595	2.0	2.0	24.9226	3.0	70.0	3.6	Certain	7.9	-2.54	0.0	No	4.0	-10.437641723356	1.263	75.723		GetAnswer	Gain
32.0	2	75.743	0.02	640.878	2.0	2.0	24.9226	4.0	70.0	3.6	Certain	7.9	-2.54	0.0	No		-10.437641723356				ShowChoice	Gain
32.0	2	79.758	0.015	644.893	2.0	2.0	24.9226	1.0	70.0	3.6	Certain	7.9	-2.54	0.0	No		-10.437641723356				ShowResult	Gain
32.0	2	80.775	0.017	645.91	2.0	2.0	24.9226	2.0	70.0	3.6	Certain	7.9	-2.54	0.0	No		-10.437641723356				ISITrial	Gain
33.0	2	82.791	0.016	647.926	-0.44	-0.44	24.8676	3.0	70.0	4.2	Certain	10.1	-0.88	0.0	No	4.0	-10.984126984127	1.31	84.101		GetAnswer	Gain
33.0	2	84.123	0.022	649.258	-0.44	-0.44	24.8676	4.0	70.0	4.2	Certain	10.1	-0.88	0.0	No		-10.984126984127				ShowChoice	Gain
33.0	2	88.139	0.016	653.274	-0.44	-0.44	24.8676	1.0	70.0	4.2	Certain	10.1	-0.88	0.0	No		-10.984126984127				ShowResult	Gain
33.0	2	89.155	0.016	654.29	-0.44	-0.44	24.8676	5.099	70.0	4.2	Certain	10.1	-0.88	0.0	No		-10.984126984127				ISITrial	Gain
34.0	2	94.27	0.016	659.405	2.0	2.0	25.1176	3.0	70.0	1.68	Certain	3.12	0.88	3231.5	Yes	4.0	2.2360166288737697	1.096	95.366		GetAnswer	Loss
34.0	2	95.386	0.02	660.521	2.0	2.0	25.1176	4.0	70.0	1.68	Certain	3.12	0.88	3231.5	Yes		2.2360166288737697				ShowChoice	Loss
34.0	2	99.401	0.015	664.536	2.0	2.0	25.1176	1.0	70.0	1.68	Certain	3.12	0.88	3231.5	Yes		2.2360166288737697				ShowResult	Loss
34.0	2	100.418	0.017	665.553	2.0	2.0	25.1176	4.784	70.0	1.68	Certain	3.12	0.88	3231.5	Yes		2.2360166288737697				ISITrial	Loss
34.0	2	108.465	0.017	673.6	2.0	2.0	25.1176	0.978	70.0	1.68	Certain	3.12	0.88	3231.5	Yes		2.2360166288737697			568.0	TrialHappiness	Loss
34.0	2	112.48	4.015	677.615	2.0	2.0	25.1176	4.926	70.0	1.68	Certain	3.12	0.88	3231.5	Yes		2.2360166288737697				ISIRate	Loss
35.0	2	117.429	0.023	682.564	-5.0	-5.0	24.4926	3.0	70.0	0.66	Certain	1.3	-11.05	0.0	No	4.0	-12.3492063492063	1.832	119.261		GetAnswer	Mixed
35.0	2	119.278	0.017	684.413	-5.0	-5.0	24.4926	4.0	70.0	0.66	Certain	1.3	-11.05	0.0	No		-12.3492063492063				ShowChoice	Mixed
35.0	2	123.293	0.015	688.428	-5.0	-5.0	24.4926	1.0	70.0	0.66	Certain	1.3	-11.05	0.0	No		-12.3492063492063				ShowResult	Mixed
35.0	2	124.309	0.016	689.444	-5.0	-5.0	24.4926	2.098	70.0	0.66	Certain	1.3	-11.05	0.0	No		-12.3492063492063				ISITrial	Mixed
36.0	2	126.425	0.018	691.56	-4.0	-4.0	23.9926	3.0	70.0	1.5	Certain	2.1	-10.81	3335.75	Yes	4.0	-12.9138321995465	1.653	128.078		GetAnswer	Mixed
36.0	2	128.091	0.013	693.226	-4.0	-4.0	23.9926	4.0	70.0	1.5	Certain	2.1	-10.81	3335.75	Yes		-12.9138321995465				ShowChoice	Mixed
36.0	2	132.107	0.016	697.242	-4.0	-4.0	23.9926	1.0	70.0	1.5	Certain	2.1	-10.81	3335.75	Yes		-12.9138321995465				ShowResult	Mixed
36.0	2	133.123	0.016	698.258	-4.0	-4.0	23.9926	5.156	70.0	1.5	Certain	2.1	-10.81	3335.75	Yes		-12.9138321995465				ISITrial	Mixed
36.0	2	141.67	0.029	706.805	-4.0	-4.0	23.9926	0.844	70.0	1.5	Certain	2.1	-10.81	3335.75	Yes		-12.9138321995465			552.0	TrialHappiness	Mixed
36.0	2	145.685	4.015	710.82	-4.0	-4.0	23.9926	5.343	70.0	1.5	Certain	2.1	-10.81	3335.75	Yes		-12.9138321995465				ISIRate	Mixed
37.0	2	151.05	0.022	716.185	-1.0	-1.0	23.8676	3.0	70.0	2.0	Certain	4.9	-8.31	0.0	No	4.0	-13.206349206349199	1.081	152.131		GetAnswer	Gain
37.0	2	152.15	0.019	717.285	-1.0	-1.0	23.8676	4.0	70.0	2.0	Certain	4.9	-8.31	0.0	No		-13.206349206349199				ShowChoice	Gain
37.0	2	156.165	0.015	721.3	-1.0	-1.0	23.8676	1.0	70.0	2.0	Certain	4.9	-8.31	0.0	No		-13.206349206349199				ShowResult	Gain
37.0	2	157.181	0.016	722.316	-1.0	-1.0	23.8676	3.598	70.0	2.0	Certain	4.9	-8.31	0.0	No		-13.206349206349199				ISITrial	Gain
38.0	2	160.797	0.018	725.932	0.0	0.0	23.8676	3.0	70.0	3.16	Certain	-1.0	1.42	0.0	No	4.0	2.42120181405896	1.382	162.179		GetAnswer	Gain
38.0	2	162.196	0.017	727.331	0.0	0.0	23.8676	4.0	70.0	3.16	Certain	-1.0	1.42	0.0	No		2.42120181405896				ShowChoice	Gain
38.0	2	166.212	0.016	731.347	0.0	0.0	23.8676	1.0	70.0	3.16	Certain	-1.0	1.42	0.0	No		2.42120181405896				ShowResult	Gain
38.0	2	167.228	0.016	732.363	0.0	0.0	23.8676	4.787	70.0	3.16	Certain	-1.0	1.42	0.0	No		2.42120181405896				ISITrial	Gain
39.0	2	172.043	0.028	737.178	-1.0	-1.0	23.7426	3.0	70.0	0.82	Certain	-2.59	-0.12	2864.25	Yes	4.0	2.46674225245654	1.243	173.286		GetAnswer	Mixed
39.0	2	173.309	0.023	738.444	-1.0	-1.0	23.7426	4.0	70.0	0.82	Certain	-2.59	-0.12	2864.25	Yes		2.46674225245654				ShowChoice	Mixed
39.0	2	177.324	0.015	742.459	-1.0	-1.0	23.7426	1.0	70.0	0.82	Certain	-2.59	-0.12	2864.25	Yes		2.46674225245654				ShowResult	Mixed
39.0	2	178.341	0.017	743.476	-1.0	-1.0	23.7426	2.348	70.0	0.82	Certain	-2.59	-0.12	2864.25	Yes		2.46674225245654				ISITrial	Mixed
39.0	2	183.589	0.019	748.724	-1.0	-1.0	23.7426	0.63	70.0	0.82	Certain	-2.59	-0.12	2864.25	Yes		2.46674225245654			552.0	TrialHappiness	Mixed
39.0	2	187.604	4.015	752.739	-1.0	-1.0	23.7426	3.457	70.0	0.82	Certain	-2.59	-0.12	2864.25	Yes		2.46674225245654				ISIRate	Mixed
40.0	2	191.086	0.025	756.221	2.92	1.0	24.1076	3.0	70.0	3.16	Outcome2	0.41	2.92	0.0	No	2.0	2.51228269085412	1.458	192.544		GetAnswer	Loss
40.0	2	192.569	0.025	757.704	2.92	1.0	24.1076	4.0	70.0	3.16	Outcome2	0.41	2.92	0.0	No		2.51228269085412				ShowChoice	Loss
40.0	2	196.584	0.015	761.719	2.92	1.0	24.1076	1.0	70.0	3.16	Outcome2	0.41	2.92	0.0	No		2.51228269085412				ShowResult	Loss
40.0	2	197.601	0.017	762.736	2.92	1.0	24.1076	3.158	70.0	3.16	Outcome2	0.41	2.92	0.0	No		2.51228269085412				ISITrial	Loss
41.0	2	200.783	0.024	765.918	-7.0	-7.0	23.2326	3.0	70.0	0.4	Certain	-14.49	0.9	4000.0	Yes	4.0	-15.3922902494331	1.3	202.083		GetAnswer	Mixed
41.0	2	202.099	0.016	767.234	-7.0	-7.0	23.2326	4.0	70.0	0.4	Certain	-14.49	0.9	4000.0	Yes		-15.3922902494331				ShowChoice	Mixed
41.0	2	206.114	0.015	771.249	-7.0	-7.0	23.2326	1.0	70.0	0.4	Certain	-14.49	0.9	4000.0	Yes		-15.3922902494331				ShowResult	Mixed
41.0	2	207.131	0.017	772.266	-7.0	-7.0	23.2326	4.506	70.0	0.4	Certain	-14.49	0.9	4000.0	Yes		-15.3922902494331				ISITrial	Mixed
41.0	2	215.694	0.032	780.829	-7.0	-7.0	23.2326	0.821	70.0	0.4	Certain	-14.49	0.9	4000.0	Yes		-15.3922902494331			552.0	TrialHappiness	Mixed
41.0	2	219.71	4.016	784.845	-7.0	-7.0	23.2326	8.0	70.0	0.4	Certain	-14.49	0.9	4000.0	Yes		-15.3922902494331				ISIRate	Mixed
42.0	2	227.74	0.03	792.875	-3.64	-1.82	22.7776	3.0	70.0	5.0	Outcome1	-3.64	12.3	0.0	No	2.0	-15.9387755102041	1.244	228.984		GetAnswer	Loss
42.0	2	229.006	0.022	794.141	-3.64	-1.82	22.7776	4.0	70.0	5.0	Outcome1	-3.64	12.3	0.0	No		-15.9387755102041				ShowChoice	Loss
42.0	2	233.022	0.016	798.157	-3.64	-1.82	22.7776	1.0	70.0	5.0	Outcome1	-3.64	12.3	0.0	No		-15.9387755102041				ShowResult	Loss
42.0	2	234.038	0.016	799.173	-3.64	-1.82	22.7776	6.248	70.0	5.0	Outcome1	-3.64	12.3	0.0	No		-15.9387755102041				ISITrial	Loss
43.0	2	240.302	0.016	805.437	-4.0	-4.0	22.2776	3.0	70.0	0.82	Certain	3.5	-12.99	2775.75	Yes	4.0	-16.4852607709751	1.331	241.633		GetAnswer	Mixed
43.0	2	241.652	0.019	806.787	-4.0	-4.0	22.2776	4.0	70.0	0.82	Certain	3.5	-12.99	2775.75	Yes		-16.4852607709751				ShowChoice	Mixed
43.0	2	245.667	0.015	810.802	-4.0	-4.0	22.2776	1.0	70.0	0.82	Certain	3.5	-12.99	2775.75	Yes		-16.4852607709751				ShowResult	Mixed
43.0	2	246.683	0.016	811.818	-4.0	-4.0	22.2776	4.596	70.0	0.82	Certain	3.5	-12.99	2775.75	Yes		-16.4852607709751				ISITrial	Mixed
43.0	2	254.098	0.023	819.233	-4.0	-4.0	22.2776	0.43	70.0	0.82	Certain	3.5	-12.99	2775.75	Yes		-16.4852607709751			532.0	TrialHappiness	Mixed
43.0	2	258.113	4.015	823.248	-4.0	-4.0	22.2776	3.103	70.0	0.82	Certain	3.5	-12.99	2775.75	Yes		-16.4852607709751				ISIRate	Mixed
44.0	2	261.245	0.029	826.38	0.0	0.0	22.2776	3.0	70.0	2.48	Certain	1.82	-0.79	0.0	No	4.0	2.61318972033258	1.182	262.427		GetAnswer	Gain
44.0	2	262.445	0.018	827.58	0.0	0.0	22.2776	4.0	70.0	2.48	Certain	1.82	-0.79	0.0	No		2.61318972033258				ShowChoice	Gain
44.0	2	266.46	0.015	831.595	0.0	0.0	22.2776	1.0	70.0	2.48	Certain	1.82	-0.79	0.0	No		2.61318972033258				ShowResult	Gain
44.0	2	267.476	0.016	832.611	0.0	0.0	22.2776	2.42	70.0	2.48	Certain	1.82	-0.79	0.0	No		2.61318972033258				ISITrial	Gain
45.0	2	269.925	0.029	835.06	-5.0	-5.0	21.6526	3.0	70.0	0.52	Certain	3.1	-14.12	0.0	No	4.0	-17.215419501133802	1.317	271.242		GetAnswer	Mixed
45.0	2	271.258	0.015	836.393	-5.0	-5.0	21.6526	4.0	70.0	0.52	Certain	3.1	-14.12	0.0	No		-17.215419501133802				ShowChoice	Mixed
45.0	2	275.273	0.015	840.408	-5.0	-5.0	21.6526	1.0	70.0	0.52	Certain	3.1	-14.12	0.0	No		-17.215419501133802				ShowResult	Mixed
45.0	2	276.29	0.017	841.425	-5.0	-5.0	21.6526	3.144	70.0	0.52	Certain	3.1	-14.12	0.0	No		-17.215419501133802				ISITrial	Mixed
46.0	2	279.455	0.021	844.59	-7.0	-7.0	20.7776	3.0	70.0	1.0	Certain	1.7	-16.04	3841.25	Yes	4.0	-17.739229024943302	0.922	280.377		GetAnswer	Mixed
46.0	2	280.388	0.011	845.523	-7.0	-7.0	20.7776	4.0	70.0	1.0	Certain	1.7	-16.04	3841.25	Yes		-17.739229024943302				ShowChoice	Mixed
46.0	2	284.404	0.016	849.539	-7.0	-7.0	20.7776	1.0	70.0	1.0	Certain	1.7	-16.04	3841.25	Yes		-17.739229024943302				ShowResult	Mixed
46.0	2	285.42	0.016	850.555	-7.0	-7.0	20.7776	2.246	70.0	1.0	Certain	1.7	-16.04	3841.25	Yes		-17.739229024943302				ISITrial	Mixed
46.0	2	291.551	0.024	856.686	-7.0	-7.0	20.7776	0.36	70.0	1.0	Certain	1.7	-16.04	3841.25	Yes		-17.739229024943302			532.0	TrialHappiness	Mixed
46.0	2	295.566	4.015	860.701	-7.0	-7.0	20.7776	7.365	70.0	1.0	Certain	1.7	-16.04	3841.25	Yes		-17.739229024943302				ISIRate	Mixed
47.0	2	302.947	0.016	868.082	1.0	1.0	20.9026	3.0	70.0	1.82	Certain	2.17	-0.57	0.0	No	4.0	2.74414210128496	0.923	303.87		GetAnswer	Gain
47.0	2	303.897	0.027	869.032	1.0	1.0	20.9026	4.0	70.0	1.82	Certain	2.17	-0.57	0.0	No		2.74414210128496				ShowChoice	Gain
47.0	2	307.912	0.015	873.047	1.0	1.0	20.9026	1.0	70.0	1.82	Certain	2.17	-0.57	0.0	No		2.74414210128496				ShowResult	Gain
47.0	2	308.928	0.016	874.063	1.0	1.0	20.9026	2.0	70.0	1.82	Certain	2.17	-0.57	0.0	No		2.74414210128496				ISITrial	Gain
48.0	2	310.944	0.016	876.079	-7.0	-7.0	20.0276	3.0	70.0	0.2	Certain	2.5	-16.29	2831.75	Yes	4.0	-18.7868480725624	1.065	312.009		GetAnswer	Mixed
48.0	2	312.027	0.018	877.162	-7.0	-7.0	20.0276	4.0	70.0	0.2	Certain	2.5	-16.29	2831.75	Yes		-18.7868480725624				ShowChoice	Mixed
48.0	2	316.043	0.016	881.178	-7.0	-7.0	20.0276	1.0	70.0	0.2	Certain	2.5	-16.29	2831.75	Yes		-18.7868480725624				ShowResult	Mixed
48.0	2	317.059	0.016	882.194	-7.0	-7.0	20.0276	3.692	70.0	0.2	Certain	2.5	-16.29	2831.75	Yes		-18.7868480725624				ISITrial	Mixed
48.0	2	323.623	0.017	888.758	-7.0	-7.0	20.0276	1.612	70.0	0.2	Certain	2.5	-16.29	2831.75	Yes	2{-2}2{-2}	-18.7868480725624	1.612	325.235	540.0	TrialHappiness	Mixed
48.0	2	327.639	4.016	892.774	-7.0	-7.0	20.0276	3.327	70.0	0.2	Certain	2.5	-16.29	2831.75	Yes		-18.7868480725624				ISIRate	Mixed
49.0	2	330.987	0.021	896.122	-3.18	-3.18	19.6301	3.0	70.0	2.22	Certain	-6.35	13.1	0.0	No	4.0	-19.4467120181406	0.561	331.548		GetAnswer	Loss
49.0	2	331.57	0.022	896.705	-3.18	-3.18	19.6301	4.0	70.0	2.22	Certain	-6.35	13.1	0.0	No		-19.4467120181406				ShowChoice	Loss
49.0	2	335.586	0.016	900.721	-3.18	-3.18	19.6301	1.0	70.0	2.22	Certain	-6.35	13.1	0.0	No		-19.4467120181406				ShowResult	Loss
49.0	2	336.602	0.016	901.737	-3.18	-3.18	19.6301	8.0	70.0	2.22	Certain	-6.35	13.1	0.0	No		-19.4467120181406				ISITrial	Loss
50.0	2	344.633	0.031	909.768	-1.0	-1.0	19.5051	3.0	70.0	1.0	Certain	-0.08	-2.99	3547.25	Yes	4.0	2.9083522297807995	0.608	345.241		GetAnswer	Mixed
50.0	2	345.266	0.025	910.401	-1.0	-1.0	19.5051	4.0	70.0	1.0	Certain	-0.08	-2.99	3547.25	Yes		2.9083522297807995				ShowChoice	Mixed
50.0	2	349.281	0.015	914.416	-1.0	-1.0	19.5051	1.0	70.0	1.0	Certain	-0.08	-2.99	3547.25	Yes		2.9083522297807995				ShowResult	Mixed
50.0	2	350.297	0.016	915.432	-1.0	-1.0	19.5051	7.537	70.0	1.0	Certain	-0.08	-2.99	3547.25	Yes		2.9083522297807995				ISITrial	Mixed
50.0	2	361.41	0.018	926.545	-1.0	-1.0	19.5051	0.84	70.0	1.0	Certain	-0.08	-2.99	3547.25	Yes	2{-2}	2.9083522297807995	0.84	362.25	536.0	TrialHappiness	Mixed
50.0	2	365.425	4.015	930.56	-1.0	-1.0	19.5051	6.189	70.0	1.0	Certain	-0.08	-2.99	3547.25	Yes		2.9083522297807995				ISIRate	Mixed
51.0	2	371.64	0.026	936.775	0.0	0.0	19.5051	3.0	70.0	1.68	Certain	1.12	-1.82	0.0	No	4.0	2.93650793650794	0.672	372.312		GetAnswer	Gain
51.0	2	372.323	0.011	937.458	0.0	0.0	19.5051	4.0	70.0	1.68	Certain	1.12	-1.82	0.0	No		2.93650793650794				ShowChoice	Gain
51.0	2	376.338	0.015	941.473	0.0	0.0	19.5051	1.0	70.0	1.68	Certain	1.12	-1.82	0.0	No		2.93650793650794				ShowResult	Gain
51.0	2	377.355	0.017	942.49	0.0	0.0	19.5051	5.508	70.0	1.68	Certain	1.12	-1.82	0.0	No		2.93650793650794				ISITrial	Gain
52.0	2	382.886	0.023	948.021	-7.0	-7.0	18.6301	3.0	70.0	0.66	Certain	-17.67	3.3	0.0	No	4.0	-20.9727891156463	0.79	383.676		GetAnswer	Mixed
52.0	2	383.702	0.026	948.837	-7.0	-7.0	18.6301	4.0	70.0	0.66	Certain	-17.67	3.3	0.0	No		-20.9727891156463				ShowChoice	Mixed
52.0	2	387.718	0.016	952.853	-7.0	-7.0	18.6301	1.0	70.0	0.66	Certain	-17.67	3.3	0.0	No		-20.9727891156463				ShowResult	Mixed
52.0	2	388.734	0.016	953.869	-7.0	-7.0	18.6301	5.913	70.0	0.66	Certain	-17.67	3.3	0.0	No		-20.9727891156463				ISITrial	Mixed
53.0	2	394.665	0.018	959.8	-10.0	-10.0	17.3801	3.0	70.0	0.3	Certain	0.7	-20.8	2996.75	Yes	4.0	-21.5011337868481	0.9	395.565		GetAnswer	Mixed
53.0	2	395.581	0.016	960.716	-10.0	-10.0	17.3801	4.0	70.0	0.3	Certain	0.7	-20.8	2996.75	Yes		-21.5011337868481				ShowChoice	Mixed
53.0	2	399.597	0.016	964.732	-10.0	-10.0	17.3801	1.0	70.0	0.3	Certain	0.7	-20.8	2996.75	Yes		-21.5011337868481				ShowResult	Mixed
53.0	2	400.613	0.016	965.748	-10.0	-10.0	17.3801	3.66	70.0	0.3	Certain	0.7	-20.8	2996.75	Yes		-21.5011337868481				ISITrial	Mixed
53.0	2	407.311	0.019	972.446	-10.0	-10.0	17.3801	0.0	70.0	0.3	Certain	0.7	-20.8	2996.75	Yes		-21.5011337868481			512.0	TrialHappiness	Mixed
53.0	2	411.326	4.015	976.461	-10.0	-10.0	17.3801	3.987	70.0	0.3	Certain	0.7	-20.8	2996.75	Yes		-21.5011337868481				ISIRate	Mixed
54.0	2	415.341	0.028	980.476	0.0	0.0	17.3801	3.0	70.0	2.22	Certain	11.1	-10.52	0.0	No	4.0	-21.6213151927438	1.25	416.591		GetAnswer	Loss
54.0	2	416.608	0.017	981.743	0.0	0.0	17.3801	4.0	70.0	2.22	Certain	11.1	-10.52	0.0	No		-21.6213151927438				ShowChoice	Loss
54.0	2	420.623	0.015	985.758	0.0	0.0	17.3801	1.0	70.0	2.22	Certain	11.1	-10.52	0.0	No		-21.6213151927438				ShowResult	Loss
54.0	2	421.639	0.016	986.774	0.0	0.0	17.3801	8.0	70.0	2.22	Certain	11.1	-10.52	0.0	No		-21.6213151927438				ISITrial	Loss
	2	429.67	0.031	994.805				-0.001								4		43.551	473.221		Rest	
	2	473.238	0.016	1038.373				4.0													BlockHappyPreview	
	2	477.253	0.015	1042.388				2.651												548.0	BlockStartHappiness	
	2	509.925	0.022	1075.06				-0.001								5.0		1.943	511.868		ScanWait	
	3	0.023	0.023	1077.026				10.0													GetReady	
55.0	3	10.053	0.03	1087.056	6.5	-0.2	18.1926	3.0	955.0	1.68	Outcome1	6.5	-0.41	2533.25	Yes	2.0	6.913929784824459	1.029	11.082		GetAnswer	Gain
55.0	3	11.102	0.02	1088.105	6.5	-0.2	18.1926	4.0	955.0	1.68	Outcome1	6.5	-0.41	2533.25	Yes		6.913929784824459				ShowChoice	Gain
55.0	3	15.118	0.016	1092.121	6.5	-0.2	18.1926	1.0	955.0	1.68	Outcome1	6.5	-0.41	2533.25	Yes		6.913929784824459				ShowResult	Gain
55.0	3	16.134	0.016	1093.137	6.5	-0.2	18.1926	7.709	955.0	1.68	Outcome1	6.5	-0.41	2533.25	Yes		6.913929784824459				ISITrial	Gain
55.0	3	26.414	0.016	1103.417	6.5	-0.2	18.1926	0.706	955.0	1.68	Outcome1	6.5	-0.41	2533.25	Yes		6.913929784824459			552.0	TrialHappiness	Gain
55.0	3	30.429	4.015	1107.432	6.5	-0.2	18.1926	2.133	955.0	1.68	Outcome1	6.5	-0.41	2533.25	Yes		6.913929784824459				ISIRate	Gain
56.0	3	32.578	0.016	1109.581	8.1	0.4	19.2051	3.0	955.0	4.2	Outcome2	0.79	8.1	0.0	No	2.0	7.3069082672706696	1.172	33.75		GetAnswer	Gain
56.0	3	33.778	0.028	1110.781	8.1	0.4	19.2051	4.0	955.0	4.2	Outcome2	0.79	8.1	0.0	No		7.3069082672706696				ShowChoice	Gain
56.0	3	37.793	0.015	1114.796	8.1	0.4	19.2051	1.0	955.0	4.2	Outcome2	0.79	8.1	0.0	No		7.3069082672706696				ShowResult	Gain
56.0	3	38.809	0.016	1115.812	8.1	0.4	19.2051	4.697	955.0	4.2	Outcome2	0.79	8.1	0.0	No		7.3069082672706696				ISITrial	Gain
57.0	3	43.524	0.018	1120.527	10.9	1.57	20.5676	3.0	955.0	2.0	Outcome2	3.14	10.9	0.0	No	2.0	7.763306908267269	1.039	44.563		GetAnswer	Loss
57.0	3	44.591	0.028	1121.594	10.9	1.57	20.5676	4.0	955.0	2.0	Outcome2	3.14	10.9	0.0	No		7.763306908267269				ShowChoice	Loss
57.0	3	48.606	0.015	1125.609	10.9	1.57	20.5676	1.0	955.0	2.0	Outcome2	3.14	10.9	0.0	No		7.763306908267269				ShowResult	Loss
57.0	3	49.622	0.016	1126.625	10.9	1.57	20.5676	4.291	955.0	2.0	Outcome2	3.14	10.9	0.0	No		7.763306908267269				ISITrial	Loss
58.0	3	53.937	0.024	1130.94	6.9	-0.66	21.4301	3.0	955.0	2.0	Outcome2	-1.32	6.9	3045.75	Yes	2.0	8.21970554926387	1.06	54.997		GetAnswer	Gain
58.0	3	55.02	0.023	1132.023	6.9	-0.66	21.4301	4.0	955.0	2.0	Outcome2	-1.32	6.9	3045.75	Yes		8.21970554926387				ShowChoice	Gain
58.0	3	59.036	0.016	1136.039	6.9	-0.66	21.4301	1.0	955.0	2.0	Outcome2	-1.32	6.9	3045.75	Yes		8.21970554926387				ShowResult	Gain
58.0	3	60.052	0.016	1137.055	6.9	-0.66	21.4301	2.037	955.0	2.0	Outcome2	-1.32	6.9	3045.75	Yes		8.21970554926387				ISITrial	Gain
58.0	3	65.167	0.02	1142.17	6.9	-0.66	21.4301	0.972	955.0	2.0	Outcome2	-1.32	6.9	3045.75	Yes		8.21970554926387			572.0	TrialHappiness	Gain
58.0	3	69.182	4.015	1146.185	6.9	-0.66	21.4301	4.183	955.0	2.0	Outcome2	-1.32	6.9	3045.75	Yes		8.21970554926387				ISIRate	Gain
59.0	3	73.397	0.032	1150.4	7.1	-0.62	22.3176	3.0	955.0	2.22	Outcome1	7.1	-1.24	0.0	No	2.0	8.336353340883349	0.858	74.255		GetAnswer	Gain
59.0	3	74.28	0.025	1151.283	7.1	-0.62	22.3176	4.0	955.0	2.22	Outcome1	7.1	-1.24	0.0	No		8.336353340883349				ShowChoice	Gain
59.0	3	78.296	0.016	1155.299	7.1	-0.62	22.3176	1.0	955.0	2.22	Outcome1	7.1	-1.24	0.0	No		8.336353340883349				ShowResult	Gain
59.0	3	79.312	0.016	1156.315	7.1	-0.62	22.3176	5.064	955.0	2.22	Outcome1	7.1	-1.24	0.0	No		8.336353340883349				ISITrial	Gain
60.0	3	84.393	0.017	1161.396	-2.0	-2.0	22.0676	3.0	955.0	0.4	Certain	-1.1	-2.84	3562.5	Yes	4.0	-1.7429218573046399	1.328	85.721		GetAnswer	Mixed
60.0	3	85.743	0.022	1162.746	-2.0	-2.0	22.0676	4.0	955.0	0.4	Certain	-1.1	-2.84	3562.5	Yes		-1.7429218573046399				ShowChoice	Mixed
60.0	3	89.758	0.015	1166.761	-2.0	-2.0	22.0676	1.0	955.0	0.4	Certain	-1.1	-2.84	3562.5	Yes		-1.7429218573046399				ShowResult	Mixed
60.0	3	90.775	0.017	1167.778	-2.0	-2.0	22.0676	8.0	955.0	0.4	Certain	-1.1	-2.84	3562.5	Yes		-1.7429218573046399				ISITrial	Mixed
60.0	3	102.371	0.021	1179.374	-2.0	-2.0	22.0676	1.489	955.0	0.4	Certain	-1.1	-2.84	3562.5	Yes		-1.7429218573046399			572.0	TrialHappiness	Mixed
60.0	3	106.386	4.015	1183.389	-2.0	-2.0	22.0676	6.25	955.0	0.4	Certain	-1.1	-2.84	3562.5	Yes		-1.7429218573046399				ISIRate	Mixed
61.0	3	112.667	0.031	1189.67	-5.0	-5.0	21.4426	3.0	955.0	0.52	Certain	-10.1	-0.9	0.0	No	4.0	9.20385050962627	1.909	114.576		GetAnswer	Mixed
61.0	3	114.6	0.024	1191.603	-5.0	-5.0	21.4426	4.0	955.0	0.52	Certain	-10.1	-0.9	0.0	No		9.20385050962627				ShowChoice	Mixed
61.0	3	118.615	0.015	1195.618	-5.0	-5.0	21.4426	1.0	955.0	0.52	Certain	-10.1	-0.9	0.0	No		9.20385050962627				ShowResult	Mixed
61.0	3	119.631	0.016	1196.634	-5.0	-5.0	21.4426	4.586	955.0	0.52	Certain	-10.1	-0.9	0.0	No		9.20385050962627				ISITrial	Mixed
62.0	3	124.246	0.029	1201.249	9.9	0.13	22.6801	3.0	955.0	3.6	Outcome1	9.9	0.26	3748.75	Yes	2.0	9.637599093997741	1.033	125.279		GetAnswer	Gain
62.0	3	125.296	0.017	1202.299	9.9	0.13	22.6801	4.0	955.0	3.6	Outcome1	9.9	0.26	3748.75	Yes		9.637599093997741				ShowChoice	Gain
62.0	3	129.311	0.015	1206.314	9.9	0.13	22.6801	1.0	955.0	3.6	Outcome1	9.9	0.26	3748.75	Yes		9.637599093997741				ShowResult	Gain
62.0	3	130.327	0.016	1207.33	9.9	0.13	22.6801	5.212	955.0	3.6	Outcome1	9.9	0.26	3748.75	Yes		9.637599093997741				ISITrial	Gain
62.0	3	139.324	0.016	1216.327	9.9	0.13	22.6801	0.548	955.0	3.6	Outcome1	9.9	0.26	3748.75	Yes		9.637599093997741			552.0	TrialHappiness	Gain
62.0	3	143.34	4.016	1220.343	9.9	0.13	22.6801	6.995	955.0	3.6	Outcome1	9.9	0.26	3748.75	Yes		9.637599093997741				ISIRate	Gain
63.0	3	150.354	0.019	1227.357	-2.0	-2.0	22.4301	3.0	955.0	0.3	Certain	-3.23	-1.3	0.0	No	4.0	-1.9325217063042701	1.337	151.691		GetAnswer	Mixed
63.0	3	151.703	0.012	1228.706	-2.0	-2.0	22.4301	4.0	955.0	0.3	Certain	-3.23	-1.3	0.0	No		-1.9325217063042701				ShowChoice	Mixed
63.0	3	155.719	0.016	1232.722	-2.0	-2.0	22.4301	1.0	955.0	0.3	Certain	-3.23	-1.3	0.0	No		-1.9325217063042701				ShowResult	Mixed
63.0	3	156.735	0.016	1233.738	-2.0	-2.0	22.4301	5.595	955.0	0.3	Certain	-3.23	-1.3	0.0	No		-1.9325217063042701				ISITrial	Mixed
64.0	3	162.35	0.02	1239.353	-3.0	-3.0	22.0551	3.0	955.0	1.2	Certain	1.9	-8.97	0.0	No	4.0	10.8674971687429	1.566	163.916		GetAnswer	Mixed
64.0	3	163.932	0.015	1240.935	-3.0	-3.0	22.0551	4.0	955.0	1.2	Certain	1.9	-8.97	0.0	No		10.8674971687429				ShowChoice	Mixed
64.0	3	167.948	0.016	1244.951	-3.0	-3.0	22.0551	1.0	955.0	1.2	Certain	1.9	-8.97	0.0	No		10.8674971687429				ShowResult	Mixed
64.0	3	168.964	0.016	1245.967	-3.0	-3.0	22.0551	5.47	955.0	1.2	Certain	1.9	-8.97	0.0	No		10.8674971687429				ISITrial	Mixed
65.0	3	174.462	0.028	1251.465	4.1	-1.0	22.5676	3.0	955.0	1.5	Outcome2	-7.22	4.1	2996.75	Yes	2.0	11.323895809739499	1.498	175.96		GetAnswer	Mixed
65.0	3	175.978	0.018	1252.981	4.1	-1.0	22.5676	4.0	955.0	1.5	Outcome2	-7.22	4.1	2996.75	Yes		11.323895809739499				ShowChoice	Mixed
65.0	3	179.993	0.015	1256.996	4.1	-1.0	22.5676	1.0	955.0	1.5	Outcome2	-7.22	4.1	2996.75	Yes		11.323895809739499				ShowResult	Mixed
65.0	3	181.01	0.017	1258.013	4.1	-1.0	22.5676	3.344	955.0	1.5	Outcome2	-7.22	4.1	2996.75	Yes		11.323895809739499				ISITrial	Mixed
65.0	3	187.391	0.019	1264.394	4.1	-1.0	22.5676	0.914	955.0	1.5	Outcome2	-7.22	4.1	2996.75	Yes		11.323895809739499			572.0	TrialHappiness	Mixed
65.0	3	191.406	4.015	1268.409	4.1	-1.0	22.5676	3.987	955.0	1.5	Outcome2	-7.22	4.1	2996.75	Yes		11.323895809739499				ISIRate	Mixed
66.0	3	195.421	0.028	1272.424	11.9	0.23	24.0551	3.0	955.0	3.6	Outcome1	11.9	0.46	0.0	No	2.0	11.440543601359	0.9	196.321		GetAnswer	Loss
66.0	3	196.338	0.017	1273.341	11.9	0.23	24.0551	4.0	955.0	3.6	Outcome1	11.9	0.46	0.0	No		11.440543601359				ShowChoice	Loss
66.0	3	200.353	0.015	1277.356	11.9	0.23	24.0551	1.0	955.0	3.6	Outcome1	11.9	0.46	0.0	No		11.440543601359				ShowResult	Loss
66.0	3	201.369	0.016	1278.372	11.9	0.23	24.0551	3.959	955.0	3.6	Outcome1	11.9	0.46	0.0	No		11.440543601359				ISITrial	Loss
67.0	3	205.351	0.023	1282.354	0.3	1.0	24.0926	3.0	955.0	2.0	Outcome1	0.3	2.3	2918.5	Yes	2.0	-2.00160437901095	1.567	206.918		GetAnswer	Mixed
67.0	3	206.934	0.016	1283.937	0.3	1.0	24.0926	4.0	955.0	2.0	Outcome1	0.3	2.3	2918.5	Yes		-2.00160437901095				ShowChoice	Mixed
67.0	3	210.949	0.015	1287.952	0.3	1.0	24.0926	1.0	955.0	2.0	Outcome1	0.3	2.3	2918.5	Yes		-2.00160437901095				ShowResult	Mixed
67.0	3	211.966	0.017	1288.969	0.3	1.0	24.0926	4.199	955.0	2.0	Outcome1	0.3	2.3	2918.5	Yes		-2.00160437901095				ISITrial	Mixed
67.0	3	219.13	0.031	1296.133	0.3	1.0	24.0926	0.863	955.0	2.0	Outcome1	0.3	2.3	2918.5	Yes		-2.00160437901095			572.0	TrialHappiness	Mixed
67.0	3	223.145	4.015	1300.148	0.3	1.0	24.0926	3.674	955.0	2.0	Outcome1	0.3	2.3	2918.5	Yes		-2.00160437901095				ISIRate	Mixed
68.0	3	226.844	0.025	1303.847	8.9	2.0	25.2051	3.0	955.0	2.0	Outcome1	8.9	-3.41	0.0	No	2.0	12.3080407701019	1.302	228.146		GetAnswer	Gain
68.0	3	228.16	0.014	1305.163	8.9	2.0	25.2051	4.0	955.0	2.0	Outcome1	8.9	-3.41	0.0	No		12.3080407701019				ShowChoice	Gain
68.0	3	232.175	0.015	1309.178	8.9	2.0	25.2051	1.0	955.0	2.0	Outcome1	8.9	-3.41	0.0	No		12.3080407701019				ShowResult	Gain
68.0	3	233.192	0.017	1310.195	8.9	2.0	25.2051	2.185	955.0	2.0	Outcome1	8.9	-3.41	0.0	No		12.3080407701019				ISITrial	Gain
69.0	3	235.407	0.03	1312.41	-2.0	-2.0	24.9551	3.0	955.0	1.0	Certain	3.7	-9.04	0.0	No	4.0	12.7417893544734	1.254	236.661		GetAnswer	Mixed
69.0	3	236.674	0.013	1313.677	-2.0	-2.0	24.9551	4.0	955.0	1.0	Certain	3.7	-9.04	0.0	No		12.7417893544734				ShowChoice	Mixed
69.0	3	240.689	0.015	1317.692	-2.0	-2.0	24.9551	1.0	955.0	1.0	Certain	3.7	-9.04	0.0	No		12.7417893544734				ShowResult	Mixed
69.0	3	241.705	0.016	1318.708	-2.0	-2.0	24.9551	2.0	955.0	1.0	Certain	3.7	-9.04	0.0	No		12.7417893544734				ISITrial	Mixed
70.0	3	243.721	0.016	1320.724	0.0	0.0	24.9551	3.0	955.0	5.0	Certain	-6.88	6.3	3651.25	Yes	4.0	13.1755379388448	1.767	245.488		GetAnswer	Gain
70.0	3	245.504	0.016	1322.507	0.0	0.0	24.9551	4.0	955.0	5.0	Certain	-6.88	6.3	3651.25	Yes		13.1755379388448				ShowChoice	Gain
70.0	3	249.519	0.015	1326.522	0.0	0.0	24.9551	1.0	955.0	5.0	Certain	-6.88	6.3	3651.25	Yes		13.1755379388448				ShowResult	Gain
70.0	3	250.536	0.017	1327.539	0.0	0.0	24.9551	2.623	955.0	5.0	Certain	-6.88	6.3	3651.25	Yes		13.1755379388448				ISITrial	Gain
70.0	3	256.867	0.031	1333.87	0.0	0.0	24.9551	0.954	955.0	5.0	Certain	-6.88	6.3	3651.25	Yes		13.1755379388448			572.0	TrialHappiness	Gain
70.0	3	260.882	4.015	1337.885	0.0	0.0	24.9551	6.605	955.0	5.0	Certain	-6.88	6.3	3651.25	Yes		13.1755379388448				ISIRate	Gain
71.0	3	267.513	0.026	1344.516	13.7	0.04	26.6676	3.0	955.0	3.16	Outcome1	13.7	0.09	0.0	No	2.0	13.6092865232163	0.697	268.21		GetAnswer	Loss
71.0	3	268.229	0.019	1345.232	13.7	0.04	26.6676	4.0	955.0	3.16	Outcome1	13.7	0.09	0.0	No		13.6092865232163				ShowChoice	Loss
71.0	3	272.245	0.016	1349.248	13.7	0.04	26.6676	1.0	955.0	3.16	Outcome1	13.7	0.09	0.0	No		13.6092865232163				ShowResult	Loss
71.0	3	273.261	0.016	1350.264	13.7	0.04	26.6676	5.499	955.0	3.16	Outcome1	13.7	0.09	0.0	No		13.6092865232163				ISITrial	Loss
72.0	3	278.792	0.032	1355.795	13.9	-0.07	28.4051	3.0	955.0	3.6	Outcome2	-0.14	13.9	3080.5	Yes	2.0	14.0430351075878	1.211	280.003		GetAnswer	Loss
72.0	3	280.025	0.022	1357.028	13.9	-0.07	28.4051	4.0	955.0	3.6	Outcome2	-0.14	13.9	3080.5	Yes		14.0430351075878				ShowChoice	Loss
72.0	3	284.041	0.016	1361.044	13.9	-0.07	28.4051	1.0	955.0	3.6	Outcome2	-0.14	13.9	3080.5	Yes		14.0430351075878				ShowResult	Loss
72.0	3	285.057	0.016	1362.06	13.9	-0.07	28.4051	5.672	955.0	3.6	Outcome2	-0.14	13.9	3080.5	Yes		14.0430351075878				ISITrial	Loss
72.0	3	293.854	0.019	1370.857	13.9	-0.07	28.4051	0.91	955.0	3.6	Outcome2	-0.14	13.9	3080.5	Yes		14.0430351075878			572.0	TrialHappiness	Loss
72.0	3	297.869	4.015	1374.872	13.9	-0.07	28.4051	4.322	955.0	3.6	Outcome2	-0.14	13.9	3080.5	Yes		14.0430351075878				ISIRate	Loss
73.0	3	302.218	0.027	1379.221	-8.0	-8.0	27.4051	3.0	955.0	0.66	Certain	-0.7	-15.18	0.0	No	4.0	14.4767836919592	1.5	303.718		GetAnswer	Mixed
73.0	3	303.734	0.016	1380.737	-8.0	-8.0	27.4051	4.0	955.0	0.66	Certain	-0.7	-15.18	0.0	No		14.4767836919592				ShowChoice	Mixed
73.0	3	307.749	0.015	1384.752	-8.0	-8.0	27.4051	1.0	955.0	0.66	Certain	-0.7	-15.18	0.0	No		14.4767836919592				ShowResult	Mixed
73.0	3	308.765	0.016	1385.768	-8.0	-8.0	27.4051	4.616	955.0	0.66	Certain	-0.7	-15.18	0.0	No		14.4767836919592				ISITrial	Mixed
74.0	3	313.397	0.016	1390.4	-6.0	-6.0	26.6551	3.0	955.0	0.52	Certain	1.1	-13.81	3056.25	Yes	4.0	14.9105322763307	1.256	314.653		GetAnswer	Mixed
74.0	3	314.663	0.01	1391.666	-6.0	-6.0	26.6551	4.0	955.0	0.52	Certain	1.1	-13.81	3056.25	Yes		14.9105322763307				ShowChoice	Mixed
74.0	3	318.678	0.015	1395.681	-6.0	-6.0	26.6551	1.0	955.0	0.52	Certain	1.1	-13.81	3056.25	Yes		14.9105322763307				ShowResult	Mixed
74.0	3	319.695	0.017	1396.698	-6.0	-6.0	26.6551	3.909	955.0	0.52	Certain	1.1	-13.81	3056.25	Yes		14.9105322763307				ISITrial	Mixed
74.0	3	326.709	0.026	1403.712	-6.0	-6.0	26.6551	0.628	955.0	0.52	Certain	1.1	-13.81	3056.25	Yes		14.9105322763307			552.0	TrialHappiness	Mixed
74.0	3	330.724	4.015	1407.727	-6.0	-6.0	26.6551	4.225	955.0	0.52	Certain	1.1	-13.81	3056.25	Yes		14.9105322763307				ISIRate	Mixed
75.0	3	334.973	0.024	1411.976	10.93	5.46	28.0213	3.0	955.0	2.48	Outcome1	10.93	13.3	0.0	No	2.0	-2.3719328048320096	1.055	336.028		GetAnswer	Loss
75.0	3	336.056	0.028	1413.059	10.93	5.46	28.0213	4.0	955.0	2.48	Outcome1	10.93	13.3	0.0	No		-2.3719328048320096				ShowChoice	Loss
75.0	3	340.071	0.015	1417.074	10.93	5.46	28.0213	1.0	955.0	2.48	Outcome1	10.93	13.3	0.0	No		-2.3719328048320096				ShowResult	Loss
75.0	3	341.087	0.016	1418.09	10.93	5.46	28.0213	4.979	955.0	2.48	Outcome1	10.93	13.3	0.0	No		-2.3719328048320096				ISITrial	Loss
76.0	3	346.086	0.02	1423.089	2.89	1.44	28.3825	3.0	955.0	2.48	Outcome1	2.89	5.3	0.0	No	2.0	-2.40996602491506	1.248	347.334		GetAnswer	Gain
76.0	3	347.352	0.018	1424.355	2.89	1.44	28.3825	4.0	955.0	2.48	Outcome1	2.89	5.3	0.0	No		-2.40996602491506				ShowChoice	Gain
76.0	3	351.367	0.015	1428.37	2.89	1.44	28.3825	1.0	955.0	2.48	Outcome1	2.89	5.3	0.0	No		-2.40996602491506				ShowResult	Gain
76.0	3	352.383	0.016	1429.386	2.89	1.44	28.3825	3.931	955.0	2.48	Outcome1	2.89	5.3	0.0	No		-2.40996602491506				ISITrial	Gain
77.0	3	356.332	0.018	1433.335	-8.0	-8.0	27.3825	3.0	955.0	1.2	Certain	-16.7	-0.1	4000.0	Yes	4.0	16.596828992072503	1.086	357.418		GetAnswer	Mixed
77.0	3	357.432	0.014	1434.435	-8.0	-8.0	27.3825	4.0	955.0	1.2	Certain	-16.7	-0.1	4000.0	Yes		16.596828992072503				ShowChoice	Mixed
77.0	3	361.447	0.015	1438.45	-8.0	-8.0	27.3825	1.0	955.0	1.2	Certain	-16.7	-0.1	4000.0	Yes		16.596828992072503				ShowResult	Mixed
77.0	3	362.463	0.016	1439.466	-8.0	-8.0	27.3825	7.022	955.0	1.2	Certain	-16.7	-0.1	4000.0	Yes		16.596828992072503				ISITrial	Mixed
77.0	3	373.543	0.032	1450.546	-8.0	-8.0	27.3825	0.914	955.0	1.2	Certain	-16.7	-0.1	4000.0	Yes		16.596828992072503			572.0	TrialHappiness	Mixed
77.0	3	377.558	4.015	1454.561	-8.0	-8.0	27.3825	8.0	955.0	1.2	Certain	-16.7	-0.1	4000.0	Yes		16.596828992072503				ISIRate	Mixed
78.0	3	385.588	0.03	1462.591	9.3	1.0	28.545	3.0	955.0	2.48	Outcome1	9.3	-7.41	0.0	No	2.0	16.713476783692	1.244	386.832		GetAnswer	Gain
78.0	3	386.855	0.023	1463.858	9.3	1.0	28.545	4.0	955.0	2.48	Outcome1	9.3	-7.41	0.0	No		16.713476783692				ShowChoice	Gain
78.0	3	390.87	0.015	1467.873	9.3	1.0	28.545	1.0	955.0	2.48	Outcome1	9.3	-7.41	0.0	No		16.713476783692				ShowResult	Gain
78.0	3	391.886	0.016	1468.889	9.3	1.0	28.545	2.078	955.0	2.48	Outcome1	9.3	-7.41	0.0	No		16.713476783692				ISITrial	Gain
79.0	3	393.985	0.021	1470.988	11.1	2.0	29.9325	3.0	955.0	2.22	Outcome2	-6.05	11.1	2729.5	Yes	2.0	17.1472253680634	1.32	395.305		GetAnswer	Loss
79.0	3	395.318	0.013	1472.321	11.1	2.0	29.9325	4.0	955.0	2.22	Outcome2	-6.05	11.1	2729.5	Yes		17.1472253680634				ShowChoice	Loss
79.0	3	399.334	0.016	1476.337	11.1	2.0	29.9325	1.0	955.0	2.22	Outcome2	-6.05	11.1	2729.5	Yes		17.1472253680634				ShowResult	Loss
79.0	3	400.35	0.016	1477.353	11.1	2.0	29.9325	3.829	955.0	2.22	Outcome2	-6.05	11.1	2729.5	Yes		17.1472253680634				ISITrial	Loss
79.0	3	406.948	0.019	1483.951	11.1	2.0	29.9325	0.932	955.0	2.22	Outcome2	-6.05	11.1	2729.5	Yes	2{-2}2{-2}2{-2}	17.1472253680634	0.932	407.88	572.0	TrialHappiness	Loss
79.0	3	410.963	4.015	1487.966	11.1	2.0	29.9325	2.918	955.0	2.22	Outcome2	-6.05	11.1	2729.5	Yes		17.1472253680634				ISIRate	Loss
80.0	3	413.912	0.031	1490.915	-4.0	-4.0	29.4325	3.0	955.0	1.82	Certain	4.7	-12.88	0.0	No	4.0	17.5809739524349	1.656	415.568		GetAnswer	Gain
80.0	3	415.595	0.026	1492.598	-4.0	-4.0	29.4325	4.0	955.0	1.82	Certain	4.7	-12.88	0.0	No		17.5809739524349				ShowChoice	Gain
80.0	3	419.61	0.015	1496.613	-4.0	-4.0	29.4325	1.0	955.0	1.82	Certain	4.7	-12.88	0.0	No		17.5809739524349				ShowResult	Gain
80.0	3	420.626	0.016	1497.629	-4.0	-4.0	29.4325	3.336	955.0	1.82	Certain	4.7	-12.88	0.0	No		17.5809739524349				ISITrial	Gain
81.0	3	423.992	0.03	1500.995	-4.0	-4.0	28.9325	3.0	955.0	2.0	Certain	4.3	-13.71	3923.75	Yes	4.0	18.0147225368063	1.144	425.136		GetAnswer	Mixed
81.0	3	425.158	0.022	1502.161	-4.0	-4.0	28.9325	4.0	955.0	2.0	Certain	4.3	-13.71	3923.75	Yes		18.0147225368063				ShowChoice	Mixed
81.0	3	429.173	0.015	1506.176	-4.0	-4.0	28.9325	1.0	955.0	2.0	Certain	4.3	-13.71	3923.75	Yes		18.0147225368063				ShowResult	Mixed
81.0	3	430.19	0.017	1507.193	-4.0	-4.0	28.9325	3.919	955.0	2.0	Certain	4.3	-13.71	3923.75	Yes		18.0147225368063				ISITrial	Mixed
81.0	3	438.07	0.025	1515.073	-4.0	-4.0	28.9325	0.719	955.0	2.0	Certain	4.3	-13.71	3923.75	Yes		18.0147225368063			552.0	TrialHappiness	Mixed
81.0	3	442.085	4.015	1519.088	-4.0	-4.0	28.9325	7.695	955.0	2.0	Certain	4.3	-13.71	3923.75	Yes		18.0147225368063				ISIRate	Mixed
	3	449.799	0.019	1526.802				3.0													CurrentEarnings	
	3	452.815	0.016	1529.818				-0.001								{SPACE}		23.914	476.729		Goodbye	
