trial_number	block	onset	onset_delay	onset_unadjusted	amount_change	certain_amount	current_amount	duration	mood_target	multiplier	outcome	outcome1_amount	outcome2_amount	question_duration	rating	response	rpe	rt	rt_time	slider_response	trial_phase	trial_type
	0	-63.443	0.039	17.136				-0.001								{SPACE}		3.719	-59.724		Welcome	
	0	-59.699	0.025	20.88				5.0													LifeHappyPreview	
	0	-54.667	0.032	25.912				3.92												840.0	LifeHappiness	
	0	-39.856	0.028	40.723				4.0													BlockHappyPreview	
	0	-35.844	0.012	44.735				0.0												512.0	BlockStartHappiness	
	0	-2.678	0.023	77.901				-0.001								5.0					ScanWait	
	1	0.013	0.013	80.592				10.0													GetReady	
1.0	1	10.043	0.03	90.622	5.9	2.95	10.7375	3.0	955.0	3.16	Outcome2	7.7	5.9	0.0	No	2.0	-1.79775386938467	1.24	11.283		GetAnswer	Gain
1.0	1	11.314	0.031	91.893	5.9	2.95	10.7375	4.0	955.0	3.16	Outcome2	7.7	5.9	0.0	No		-1.79775386938467				ShowChoice	Gain
1.0	1	15.342	0.028	95.921	5.9	2.95	10.7375	1.0	955.0	3.16	Outcome2	7.7	5.9	0.0	No		-1.79775386938467				ShowResult	Gain
1.0	1	16.362	0.02	96.941	5.9	2.95	10.7375	2.431	955.0	3.16	Outcome2	7.7	5.9	0.0	No		-1.79775386938467				ISITrial	Gain
2.0	1	18.819	0.026	99.398	13.3	2.64	12.4	3.0	955.0	2.48	Outcome1	13.3	5.27	0.0	No	2.0	8.02718006795017	1.255	20.074		GetAnswer	Loss
2.0	1	20.09	0.016	100.669	13.3	2.64	12.4	4.0	955.0	2.48	Outcome1	13.3	5.27	0.0	No		8.02718006795017				ShowChoice	Loss
2.0	1	24.119	0.029	104.698	13.3	2.64	12.4	1.0	955.0	2.48	Outcome1	13.3	5.27	0.0	No		8.02718006795017				ShowResult	Loss
2.0	1	25.138	0.019	105.717	13.3	2.64	12.4	4.568	955.0	2.48	Outcome1	13.3	5.27	0.0	No		8.02718006795017				ISITrial	Loss
3.0	1	29.735	0.029	110.314	5.9	1.0	13.1375	3.0	955.0	3.6	Outcome2	-2.63	5.9	2868.0	Yes	2.0	8.52887882219705	2.089	31.824		GetAnswer	Gain
3.0	1	31.842	0.018	112.421	5.9	1.0	13.1375	4.0	955.0	3.6	Outcome2	-2.63	5.9	2868.0	Yes		8.52887882219705				ShowChoice	Gain
3.0	1	35.87	0.028	116.449	5.9	1.0	13.1375	1.0	955.0	3.6	Outcome2	-2.63	5.9	2868.0	Yes		8.52887882219705				ShowResult	Gain
3.0	1	36.89	0.02	117.469	5.9	1.0	13.1375	3.243	955.0	3.6	Outcome2	-2.63	5.9	2868.0	Yes		8.52887882219705				ISITrial	Gain
3.0	1	43.042	0.024	123.621	5.9	1.0	13.1375	2.531	955.0	3.6	Outcome2	-2.63	5.9	2868.0	Yes		8.52887882219705			624.0	TrialHappiness	Gain
3.0	1	47.071	4.029	127.65	5.9	1.0	13.1375	3.472	955.0	3.6	Outcome2	-2.63	5.9	2868.0	Yes		8.52887882219705				ISIRate	Gain
4.0	1	50.564	0.021	131.143	11.7	2.28	14.6	3.0	955.0	3.16	Outcome2	4.57	11.7	0.0	No	2.0	7.127972819932049	1.304	51.868		GetAnswer	Loss
4.0	1	51.885	0.017	132.464	11.7	2.28	14.6	4.0	955.0	3.16	Outcome2	4.57	11.7	0.0	No		7.127972819932049				ShowChoice	Loss
4.0	1	55.914	0.029	136.493	11.7	2.28	14.6	1.0	955.0	3.16	Outcome2	4.57	11.7	0.0	No		7.127972819932049				ShowResult	Loss
4.0	1	56.933	0.019	137.512	11.7	2.28	14.6	2.011	955.0	3.16	Outcome2	4.57	11.7	0.0	No		7.127972819932049				ISITrial	Loss
5.0	1	58.973	0.029	139.552	-3.0	-3.0	14.225	3.0	955.0	2.0	Certain	0.3	-7.2	2582.5	Yes	4.0	7.50283125707814	2.038	61.011		GetAnswer	Mixed
5.0	1	61.029	0.018	141.608	-3.0	-3.0	14.225	4.0	955.0	2.0	Certain	0.3	-7.2	2582.5	Yes		7.50283125707814				ShowChoice	Mixed
5.0	1	65.058	0.029	145.637	-3.0	-3.0	14.225	1.0	955.0	2.0	Certain	0.3	-7.2	2582.5	Yes		7.50283125707814				ShowResult	Mixed
5.0	1	66.077	0.019	146.656	-3.0	-3.0	14.225	5.129	955.0	2.0	Certain	0.3	-7.2	2582.5	Yes		7.50283125707814				ISITrial	Mixed
5.0	1	73.834	0.026	154.413	-3.0	-3.0	14.225	2.247	955.0	2.0	Certain	0.3	-7.2	2582.5	Yes		7.50283125707814			552.0	TrialHappiness	Mixed
5.0	1	77.863	4.029	158.442	-3.0	-3.0	14.225	2.33	955.0	2.0	Certain	0.3	-7.2	2582.5	Yes		7.50283125707814				ISIRate	Mixed
6.0	1	80.22	0.027	160.799	12.1	1.5	15.7375	3.0	955.0	4.2	Outcome1	12.1	3.0	0.0	No	2.0	9.100792751981881	0.963	81.183		GetAnswer	Loss
6.0	1	81.206	0.023	161.785	12.1	1.5	15.7375	4.0	955.0	4.2	Outcome1	12.1	3.0	0.0	No		9.100792751981881				ShowChoice	Loss
6.0	1	85.235	0.029	165.814	12.1	1.5	15.7375	1.0	955.0	4.2	Outcome1	12.1	3.0	0.0	No		9.100792751981881				ShowResult	Loss
6.0	1	86.254	0.019	166.833	12.1	1.5	15.7375	6.232	955.0	4.2	Outcome1	12.1	3.0	0.0	No		9.100792751981881				ISITrial	Loss
7.0	1	92.506	0.02	173.085	0.0	0.0	15.7375	3.0	955.0	0.4	Certain	-0.96	0.9	0.0	No	4.0	-1.86136277840695	2.051	94.557		GetAnswer	Mixed
7.0	1	94.579	0.021	175.158	0.0	0.0	15.7375	4.0	955.0	0.4	Certain	-0.96	0.9	0.0	No		-1.86136277840695				ShowChoice	Mixed
7.0	1	98.591	0.012	179.17	0.0	0.0	15.7375	1.0	955.0	0.4	Certain	-0.96	0.9	0.0	No		-1.86136277840695				ShowResult	Mixed
7.0	1	99.611	0.02	180.19	0.0	0.0	15.7375	2.305	955.0	0.4	Certain	-0.96	0.9	0.0	No		-1.86136277840695				ISITrial	Mixed
8.0	1	101.935	0.019	182.514	9.9	-0.06	16.975	3.0	955.0	3.6	Outcome2	-0.11	9.9	3112.5	Yes	2.0	10.013590033975099	1.816	103.751		GetAnswer	Gain
8.0	1	103.773	0.022	184.352	9.9	-0.06	16.975	4.0	955.0	3.6	Outcome2	-0.11	9.9	3112.5	Yes		10.013590033975099				ShowChoice	Gain
8.0	1	107.785	0.012	188.364	9.9	-0.06	16.975	1.0	955.0	3.6	Outcome2	-0.11	9.9	3112.5	Yes		10.013590033975099				ShowResult	Gain
8.0	1	108.805	0.02	189.384	9.9	-0.06	16.975	3.506	955.0	3.6	Outcome2	-0.11	9.9	3112.5	Yes		10.013590033975099				ISITrial	Gain
8.0	1	115.475	0.031	196.054	9.9	-0.06	16.975	2.581	955.0	3.6	Outcome2	-0.11	9.9	3112.5	Yes		10.013590033975099			672.0	TrialHappiness	Gain
8.0	1	119.504	4.029	200.083	9.9	-0.06	16.975	4.45	955.0	3.6	Outcome2	-0.11	9.9	3112.5	Yes		10.013590033975099				ISIRate	Gain
9.0	1	123.984	0.03	204.563	0.0	0.0	16.975	3.0	955.0	2.0	Certain	4.3	-4.13	0.0	No	4.0	8.431483578708951	1.589	125.573		GetAnswer	Mixed
9.0	1	125.589	0.016	206.168	0.0	0.0	16.975	4.0	955.0	2.0	Certain	4.3	-4.13	0.0	No		8.431483578708951				ShowChoice	Mixed
9.0	1	129.617	0.028	210.196	0.0	0.0	16.975	1.0	955.0	2.0	Certain	4.3	-4.13	0.0	No		8.431483578708951				ShowResult	Mixed
9.0	1	130.637	0.02	211.216	0.0	0.0	16.975	2.0	955.0	2.0	Certain	4.3	-4.13	0.0	No		8.431483578708951				ISITrial	Mixed
10.0	1	132.66	0.023	213.239	2.3	-2.0	17.2625	3.0	955.0	2.0	Outcome1	2.3	-6.45	4000.0	Yes		8.7519818799547				GetAnswer	Mixed
10.0	1	135.685	0.025	216.264	2.3	-2.0	17.2625	4.0	955.0	2.0	Outcome1	2.3	-6.45	4000.0	Yes		8.7519818799547				ShowChoice	Mixed
10.0	1	139.697	0.012	220.276	2.3	-2.0	17.2625	1.0	955.0	2.0	Outcome1	2.3	-6.45	4000.0	Yes		8.7519818799547				ShowResult	Mixed
10.0	1	140.717	0.02	221.296	2.3	-2.0	17.2625	2.0	955.0	2.0	Outcome1	2.3	-6.45	4000.0	Yes		8.7519818799547				ISITrial	Mixed
10.0	1	146.769	0.029	227.348	2.3	-2.0	17.2625	1.175	955.0	2.0	Outcome1	2.3	-6.45	4000.0	Yes		8.7519818799547			672.0	TrialHappiness	Mixed
10.0	1	150.797	4.028	231.376	2.3	-2.0	17.2625	8.0	955.0	2.0	Outcome1	2.3	-6.45	4000.0	Yes		8.7519818799547				ISIRate	Mixed
11.0	1	158.821	0.024	239.4	12.9	1.92	18.875	3.0	955.0	2.0	Outcome1	12.9	3.83	0.0	No	2.0	9.072480181200449	1.244	160.065		GetAnswer	Loss
11.0	1	160.092	0.027	240.671	12.9	1.92	18.875	4.0	955.0	2.0	Outcome1	12.9	3.83	0.0	No		9.072480181200449				ShowChoice	Loss
11.0	1	164.121	0.029	244.7	12.9	1.92	18.875	1.0	955.0	2.0	Outcome1	12.9	3.83	0.0	No		9.072480181200449				ShowResult	Loss
11.0	1	165.14	0.019	245.719	12.9	1.92	18.875	3.324	955.0	2.0	Outcome1	12.9	3.83	0.0	No		9.072480181200449				ISITrial	Loss
12.0	1	168.484	0.02	249.063	0.0	0.0	18.875	3.0	955.0	1.5	Certain	-5.29	4.1	2618.75	Yes	4.0	9.39297848244621	1.155	169.639		GetAnswer	Mixed
12.0	1	169.654	0.015	250.233	0.0	0.0	18.875	4.0	955.0	1.5	Certain	-5.29	4.1	2618.75	Yes		9.39297848244621				ShowChoice	Mixed
12.0	1	173.682	0.028	254.261	0.0	0.0	18.875	1.0	955.0	1.5	Certain	-5.29	4.1	2618.75	Yes		9.39297848244621				ShowResult	Mixed
12.0	1	174.702	0.02	255.281	0.0	0.0	18.875	6.642	955.0	1.5	Certain	-5.29	4.1	2618.75	Yes		9.39297848244621				ISITrial	Mixed
12.0	1	184.013	0.022	264.592	0.0	0.0	18.875	2.297	955.0	1.5	Certain	-5.29	4.1	2618.75	Yes		9.39297848244621			576.0	TrialHappiness	Mixed
12.0	1	188.042	4.029	268.621	0.0	0.0	18.875	2.475	955.0	1.5	Certain	-5.29	4.1	2618.75	Yes		9.39297848244621				ISIRate	Mixed
13.0	1	190.55	0.033	271.129	0.0	0.0	18.875	3.0	955.0	2.8	Certain	-5.84	5.5	0.0	No	4.0	11.3442808607022	1.405	191.955		GetAnswer	Gain
13.0	1	191.97	0.015	272.549	0.0	0.0	18.875	4.0	955.0	2.8	Certain	-5.84	5.5	0.0	No		11.3442808607022				ShowChoice	Gain
13.0	1	195.999	0.029	276.578	0.0	0.0	18.875	1.0	955.0	2.8	Certain	-5.84	5.5	0.0	No		11.3442808607022				ShowResult	Gain
13.0	1	197.019	0.02	277.598	0.0	0.0	18.875	3.48	955.0	2.8	Certain	-5.84	5.5	0.0	No		11.3442808607022				ISITrial	Gain
14.0	1	200.529	0.03	281.108	-2.88	-2.0	18.515	3.0	955.0	0.52	Outcome1	-2.88	-0.9	0.0	No	2.0	-1.98263495658739	2.005	202.534		GetAnswer	Mixed
14.0	1	202.552	0.018	283.131	-2.88	-2.0	18.515	4.0	955.0	0.52	Outcome1	-2.88	-0.9	0.0	No		-1.98263495658739				ShowChoice	Mixed
14.0	1	206.581	0.029	287.16	-2.88	-2.0	18.515	1.0	955.0	0.52	Outcome1	-2.88	-0.9	0.0	No		-1.98263495658739				ShowResult	Mixed
14.0	1	207.601	0.02	288.18	-2.88	-2.0	18.515	5.019	955.0	0.52	Outcome1	-2.88	-0.9	0.0	No		-1.98263495658739				ISITrial	Mixed
15.0	1	212.649	0.029	293.228	8.7	2.0	19.6025	3.0	955.0	1.82	Outcome2	-3.5	8.7	3348.5	Yes	2.0	12.202718006795001	2.096	214.745		GetAnswer	Gain
15.0	1	214.772	0.027	295.351	8.7	2.0	19.6025	4.0	955.0	1.82	Outcome2	-3.5	8.7	3348.5	Yes		12.202718006795001				ShowChoice	Gain
15.0	1	218.801	0.029	299.38	8.7	2.0	19.6025	1.0	955.0	1.82	Outcome2	-3.5	8.7	3348.5	Yes		12.202718006795001				ShowResult	Gain
15.0	1	219.82	0.019	300.399	8.7	2.0	19.6025	7.614	955.0	1.82	Outcome2	-3.5	8.7	3348.5	Yes		12.202718006795001				ISITrial	Gain
15.0	1	230.837	0.029	311.416	8.7	2.0	19.6025	0.891	955.0	1.82	Outcome2	-3.5	8.7	3348.5	Yes	2{-2}	12.202718006795001	0.891	231.728	568.0	TrialHappiness	Gain
15.0	1	234.865	4.028	315.444	8.7	2.0	19.6025	5.394	955.0	1.82	Outcome2	-3.5	8.7	3348.5	Yes		12.202718006795001				ISIRate	Gain
16.0	1	240.282	0.023	320.861	-7.0	-7.0	18.7275	3.0	955.0	0.66	Certain	-13.47	-0.7	0.0	No	4.0	12.767836919592302	1.308	241.59		GetAnswer	Mixed
16.0	1	241.619	0.029	322.198	-7.0	-7.0	18.7275	4.0	955.0	0.66	Certain	-13.47	-0.7	0.0	No		12.767836919592302				ShowChoice	Mixed
16.0	1	245.631	0.012	326.21	-7.0	-7.0	18.7275	1.0	955.0	0.66	Certain	-13.47	-0.7	0.0	No		12.767836919592302				ShowResult	Mixed
16.0	1	246.651	0.02	327.23	-7.0	-7.0	18.7275	3.008	955.0	0.66	Certain	-13.47	-0.7	0.0	No		12.767836919592302				ISITrial	Mixed
17.0	1	249.693	0.034	330.272	-2.0	-2.0	18.4775	3.0	955.0	1.82	Certain	4.7	-8.51	3041.5	Yes	4.0	13.2061155152888	2.461	252.154		GetAnswer	Gain
17.0	1	252.167	0.013	332.746	-2.0	-2.0	18.4775	4.0	955.0	1.82	Certain	4.7	-8.51	3041.5	Yes		13.2061155152888				ShowChoice	Gain
17.0	1	256.179	0.012	336.758	-2.0	-2.0	18.4775	1.0	955.0	1.82	Certain	4.7	-8.51	3041.5	Yes		13.2061155152888				ShowResult	Gain
17.0	1	257.199	0.02	337.778	-2.0	-2.0	18.4775	3.566	955.0	1.82	Certain	4.7	-8.51	3041.5	Yes		13.2061155152888				ISITrial	Gain
17.0	1	263.869	0.034	344.448	-2.0	-2.0	18.4775	0.692	955.0	1.82	Certain	4.7	-8.51	3041.5	Yes		13.2061155152888			440.0	TrialHappiness	Gain
17.0	1	267.897	4.028	348.476	-2.0	-2.0	18.4775	4.166	955.0	1.82	Certain	4.7	-8.51	3041.5	Yes		13.2061155152888				ISIRate	Gain
18.0	1	272.093	0.03	352.672	-8.0	-8.0	17.4775	3.0	955.0	1.5	Certain	0.1	-15.72	0.0	No	4.0	15.818799546998902	1.397	273.49		GetAnswer	Mixed
18.0	1	273.514	0.024	354.093	-8.0	-8.0	17.4775	4.0	955.0	1.5	Certain	0.1	-15.72	0.0	No		15.818799546998902				ShowChoice	Mixed
18.0	1	277.526	0.012	358.105	-8.0	-8.0	17.4775	1.0	955.0	1.5	Certain	0.1	-15.72	0.0	No		15.818799546998902				ShowResult	Mixed
18.0	1	278.546	0.02	359.125	-8.0	-8.0	17.4775	6.787	955.0	1.5	Certain	0.1	-15.72	0.0	No		15.818799546998902				ISITrial	Mixed
19.0	1	285.35	0.017	365.929	12.5	-1.95	19.04	3.0	955.0	1.68	Outcome2	-3.9	12.5	0.0	No	2.0	16.4020385050963	1.524	286.874		GetAnswer	Loss
19.0	1	286.888	0.014	367.467	12.5	-1.95	19.04	4.0	955.0	1.68	Outcome2	-3.9	12.5	0.0	No		16.4020385050963				ShowChoice	Loss
19.0	1	290.916	0.028	371.495	12.5	-1.95	19.04	1.0	955.0	1.68	Outcome2	-3.9	12.5	0.0	No		16.4020385050963				ShowResult	Loss
19.0	1	291.936	0.02	372.515	12.5	-1.95	19.04	2.0	955.0	1.68	Outcome2	-3.9	12.5	0.0	No		16.4020385050963				ISITrial	Loss
20.0	1	293.959	0.023	374.538	1.0	1.0	19.165	3.0	955.0	2.8	Certain	9.5	-7.49	2921.25	Yes	4.0	16.9852774631937	1.976	295.935		GetAnswer	Gain
20.0	1	295.948	0.013	376.527	1.0	1.0	19.165	4.0	955.0	2.8	Certain	9.5	-7.49	2921.25	Yes		16.9852774631937				ShowChoice	Gain
20.0	1	299.96	0.012	380.539	1.0	1.0	19.165	1.0	955.0	2.8	Certain	9.5	-7.49	2921.25	Yes		16.9852774631937				ShowResult	Gain
20.0	1	300.98	0.02	381.559	1.0	1.0	19.165	8.0	955.0	2.8	Certain	9.5	-7.49	2921.25	Yes		16.9852774631937				ISITrial	Gain
20.0	1	311.946	0.021	392.525	1.0	1.0	19.165	0.0	955.0	2.8	Certain	9.5	-7.49	2921.25	Yes		16.9852774631937			512.0	TrialHappiness	Gain
20.0	1	315.975	4.029	396.554	1.0	1.0	19.165	3.685	955.0	2.8	Certain	9.5	-7.49	2921.25	Yes		16.9852774631937				ISIRate	Gain
21.0	1	319.686	0.026	400.265	10.57	5.28	20.4862	3.0	955.0	2.22	Outcome1	10.57	13.1	0.0	No	2.0	-2.53274820687052	1.052	320.738		GetAnswer	Loss
21.0	1	320.755	0.017	401.334	10.57	5.28	20.4862	4.0	955.0	2.22	Outcome1	10.57	13.1	0.0	No		-2.53274820687052				ShowChoice	Loss
21.0	1	324.767	0.012	405.346	10.57	5.28	20.4862	1.0	955.0	2.22	Outcome1	10.57	13.1	0.0	No		-2.53274820687052				ShowResult	Loss
21.0	1	325.787	0.02	406.366	10.57	5.28	20.4862	3.555	955.0	2.22	Outcome1	10.57	13.1	0.0	No		-2.53274820687052				ISITrial	Loss
22.0	1	329.365	0.023	409.944	13.7	-1.58	22.1987	3.0	955.0	3.16	Outcome2	-3.15	13.7	3219.5	Yes	2.0	16.847112117780302	1.271	330.636		GetAnswer	Loss
22.0	1	330.652	0.016	411.231	13.7	-1.58	22.1987	4.0	955.0	3.16	Outcome2	-3.15	13.7	3219.5	Yes		16.847112117780302				ShowChoice	Loss
22.0	1	334.68	0.028	415.259	13.7	-1.58	22.1987	1.0	955.0	3.16	Outcome2	-3.15	13.7	3219.5	Yes		16.847112117780302				ShowResult	Loss
22.0	1	335.7	0.02	416.279	13.7	-1.58	22.1987	6.793	955.0	3.16	Outcome2	-3.15	13.7	3219.5	Yes		16.847112117780302				ISITrial	Loss
22.0	1	345.764	0.023	426.343	13.7	-1.58	22.1987	0.908	955.0	3.16	Outcome2	-3.15	13.7	3219.5	Yes		16.847112117780302			696.0	TrialHappiness	Loss
22.0	1	349.776	4.012	430.355	13.7	-1.58	22.1987	4.878	955.0	3.16	Outcome2	-3.15	13.7	3219.5	Yes		16.847112117780302				ISIRate	Loss
23.0	1	354.674	0.02	435.253	10.1	-2.06	23.4612	3.0	955.0	4.2	Outcome2	-4.12	10.1	0.0	No	2.0	14.2231030577576	1.334	356.008		GetAnswer	Gain
23.0	1	356.028	0.02	436.607	10.1	-2.06	23.4612	4.0	955.0	4.2	Outcome2	-4.12	10.1	0.0	No		14.2231030577576				ShowChoice	Gain
23.0	1	360.056	0.028	440.635	10.1	-2.06	23.4612	1.0	955.0	4.2	Outcome2	-4.12	10.1	0.0	No		14.2231030577576				ShowResult	Gain
23.0	1	361.076	0.02	441.655	10.1	-2.06	23.4612	8.0	955.0	4.2	Outcome2	-4.12	10.1	0.0	No		14.2231030577576				ISITrial	Gain
24.0	1	369.1	0.024	449.679	1.0	1.0	23.5862	3.0	955.0	2.0	Certain	8.9	-5.62	3255.0	Yes	4.0	14.5164212910532	1.343	370.443		GetAnswer	Gain
24.0	1	370.471	0.028	451.05	1.0	1.0	23.5862	4.0	955.0	2.0	Certain	8.9	-5.62	3255.0	Yes		14.5164212910532				ShowChoice	Gain
24.0	1	374.5	0.029	455.079	1.0	1.0	23.5862	1.0	955.0	2.0	Certain	8.9	-5.62	3255.0	Yes		14.5164212910532				ShowResult	Gain
24.0	1	375.519	0.019	456.098	1.0	1.0	23.5862	2.0	955.0	2.0	Certain	8.9	-5.62	3255.0	Yes		14.5164212910532				ISITrial	Gain
24.0	1	380.818	0.021	461.397	1.0	1.0	23.5862	2.164	955.0	2.0	Certain	8.9	-5.62	3255.0	Yes	2{-2}2{-2}	14.5164212910532	2.164	382.982	584.0	TrialHappiness	Gain
24.0	1	384.847	4.029	465.426	1.0	1.0	23.5862	5.02	955.0	2.0	Certain	8.9	-5.62	3255.0	Yes		14.5164212910532				ISIRate	Gain
25.0	1	389.896	0.029	470.475	11.9	-2.4	25.0737	3.0	955.0	3.6	Outcome2	-4.81	11.9	0.0	No	2.0	16.712344280860698	1.838	391.734		GetAnswer	Loss
25.0	1	391.751	0.017	472.33	11.9	-2.4	25.0737	4.0	955.0	3.6	Outcome2	-4.81	11.9	0.0	No		16.712344280860698				ShowChoice	Loss
25.0	1	395.763	0.012	476.342	11.9	-2.4	25.0737	1.0	955.0	3.6	Outcome2	-4.81	11.9	0.0	No		16.712344280860698				ShowResult	Loss
25.0	1	396.783	0.02	477.362	11.9	-2.4	25.0737	3.749	955.0	3.6	Outcome2	-4.81	11.9	0.0	No		16.712344280860698				ISITrial	Loss
26.0	1	400.561	0.029	481.14	-7.0	-7.0	24.1987	3.0	955.0	0.82	Certain	-15.63	1.5	0.0	No	4.0	17.1325028312571	2.265	402.826		GetAnswer	Mixed
26.0	1	402.851	0.025	483.43	-7.0	-7.0	24.1987	4.0	955.0	0.82	Certain	-15.63	1.5	0.0	No		17.1325028312571				ShowChoice	Mixed
26.0	1	406.863	0.012	487.442	-7.0	-7.0	24.1987	1.0	955.0	0.82	Certain	-15.63	1.5	0.0	No		17.1325028312571				ShowResult	Mixed
26.0	1	407.883	0.02	488.462	-7.0	-7.0	24.1987	7.834	955.0	0.82	Certain	-15.63	1.5	0.0	No		17.1325028312571				ISITrial	Mixed
27.0	1	415.739	0.022	496.318	-1.0	-1.0	24.0737	3.0	955.0	2.48	Certain	7.3	-10.25	2549.75	Yes	4.0	17.5526613816535	1.826	417.565		GetAnswer	Gain
27.0	1	417.578	0.013	498.157	-1.0	-1.0	24.0737	4.0	955.0	2.48	Certain	7.3	-10.25	2549.75	Yes		17.5526613816535				ShowChoice	Gain
27.0	1	421.607	0.029	502.186	-1.0	-1.0	24.0737	1.0	955.0	2.48	Certain	7.3	-10.25	2549.75	Yes		17.5526613816535				ShowResult	Gain
27.0	1	422.627	0.02	503.206	-1.0	-1.0	24.0737	4.225	955.0	2.48	Certain	7.3	-10.25	2549.75	Yes		17.5526613816535				ISITrial	Gain
27.0	1	429.447	0.024	510.026	-1.0	-1.0	24.0737	0.976	955.0	2.48	Certain	7.3	-10.25	2549.75	Yes		17.5526613816535			544.0	TrialHappiness	Gain
27.0	1	433.459	4.012	514.038	-1.0	-1.0	24.0737	2.199	955.0	2.48	Certain	7.3	-10.25	2549.75	Yes		17.5526613816535				ISIRate	Gain
	1	435.682	0.024	516.261				-0.001								{SPACE}		48.102	483.784		Rest	
	1	483.81	0.026	564.389				4.0													BlockHappyPreview	
	1	487.822	0.012	568.401				3.131												488.0	BlockStartHappiness	
	1	495.963	0.02	576.542				-0.001								5.0		1.738	497.701		ScanWait	
	2	0.017	0.017	578.297				10.0													GetReady	
28.0	2	10.047	0.03	588.327	2.88	2.0	24.4337	3.0	70.0	2.8	Outcome2	1.18	2.88	0.0	No	2.0	1.69822373393802	1.174	11.221		GetAnswer	Loss
28.0	2	11.251	0.03	589.531	2.88	2.0	24.4337	4.0	70.0	2.8	Outcome2	1.18	2.88	0.0	No		1.69822373393802				ShowChoice	Loss
28.0	2	15.279	0.028	593.559	2.88	2.0	24.4337	1.0	70.0	2.8	Outcome2	1.18	2.88	0.0	No		1.69822373393802				ShowResult	Loss
28.0	2	16.299	0.02	594.579	2.88	2.0	24.4337	3.575	70.0	2.8	Outcome2	1.18	2.88	0.0	No		1.69822373393802				ISITrial	Loss
29.0	2	19.893	0.019	598.173	-1.28	2.0	24.2737	3.0	70.0	5.0	Outcome1	-1.28	6.3	3529.0	Yes	2.0	-7.5827664399092995	1.344	21.237		GetAnswer	Gain
29.0	2	21.264	0.027	599.544	-1.28	2.0	24.2737	4.0	70.0	5.0	Outcome1	-1.28	6.3	3529.0	Yes		-7.5827664399092995				ShowChoice	Gain
29.0	2	25.276	0.012	603.556	-1.28	2.0	24.2737	1.0	70.0	5.0	Outcome1	-1.28	6.3	3529.0	Yes		-7.5827664399092995				ShowResult	Gain
29.0	2	26.295	0.019	604.575	-1.28	2.0	24.2737	3.955	70.0	5.0	Outcome1	-1.28	6.3	3529.0	Yes		-7.5827664399092995				ISITrial	Gain
29.0	2	33.835	0.032	612.115	-1.28	2.0	24.2737	0.692	70.0	5.0	Outcome1	-1.28	6.3	3529.0	Yes		-7.5827664399092995			448.0	TrialHappiness	Gain
29.0	2	37.847	4.012	616.127	-1.28	2.0	24.2737	6.116	70.0	5.0	Outcome1	-1.28	6.3	3529.0	Yes		-7.5827664399092995				ISIRate	Gain
30.0	2	43.982	0.019	622.262	2.68	2.0	24.6087	3.0	70.0	1.82	Outcome1	2.68	1.07	0.0	No	2.0	1.6147014361300098	1.968	45.95		GetAnswer	Loss
30.0	2	45.971	0.021	624.251	2.68	2.0	24.6087	4.0	70.0	1.82	Outcome1	2.68	1.07	0.0	No		1.6147014361300098				ShowChoice	Loss
30.0	2	49.983	0.012	628.263	2.68	2.0	24.6087	1.0	70.0	1.82	Outcome1	2.68	1.07	0.0	No		1.6147014361300098				ShowResult	Loss
30.0	2	51.003	0.02	629.283	2.68	2.0	24.6087	4.453	70.0	1.82	Outcome1	2.68	1.07	0.0	No		1.6147014361300098				ISITrial	Loss
31.0	2	55.483	0.027	633.763	3.18	2.0	25.0062	3.0	70.0	1.82	Outcome1	3.18	1.53	2503.25	Yes	2.0	1.6504157218442899	1.333	56.816		GetAnswer	Loss
31.0	2	56.837	0.021	635.117	3.18	2.0	25.0062	4.0	70.0	1.82	Outcome1	3.18	1.53	2503.25	Yes		1.6504157218442899				ShowChoice	Loss
31.0	2	60.849	0.012	639.129	3.18	2.0	25.0062	1.0	70.0	1.82	Outcome1	3.18	1.53	2503.25	Yes		1.6504157218442899				ShowResult	Loss
31.0	2	61.869	0.02	640.149	3.18	2.0	25.0062	4.786	70.0	1.82	Outcome1	3.18	1.53	2503.25	Yes		1.6504157218442899				ISITrial	Loss
31.0	2	69.19	0.021	647.47	3.18	2.0	25.0062	0.0	70.0	1.82	Outcome1	3.18	1.53	2503.25	Yes		1.6504157218442899			512.0	TrialHappiness	Loss
31.0	2	73.202	4.012	651.482	3.18	2.0	25.0062	2.013	70.0	1.82	Outcome1	3.18	1.53	2503.25	Yes		1.6504157218442899				ISIRate	Loss
32.0	2	75.242	0.027	653.522	-1.0	-1.0	24.8812	3.0	70.0	0.66	Certain	-6.02	3.3	0.0	No	4.0	-9.321995464852609	2.23	77.472		GetAnswer	Mixed
32.0	2	77.499	0.027	655.779	-1.0	-1.0	24.8812	4.0	70.0	0.66	Certain	-6.02	3.3	0.0	No		-9.321995464852609				ShowChoice	Mixed
32.0	2	81.511	0.012	659.791	-1.0	-1.0	24.8812	1.0	70.0	0.66	Certain	-6.02	3.3	0.0	No		-9.321995464852609				ShowResult	Mixed
32.0	2	82.53	0.019	660.81	-1.0	-1.0	24.8812	2.0	70.0	0.66	Certain	-6.02	3.3	0.0	No		-9.321995464852609				ISITrial	Mixed
33.0	2	84.553	0.023	662.833	-7.72	-3.0	23.9162	3.0	70.0	1.5	Outcome2	2.1	-7.72	0.0	No		-9.82312925170068				GetAnswer	Mixed
33.0	2	87.579	0.026	665.859	-7.72	-3.0	23.9162	4.0	70.0	1.5	Outcome2	2.1	-7.72	0.0	No		-9.82312925170068				ShowChoice	Mixed
33.0	2	91.591	0.012	669.871	-7.72	-3.0	23.9162	1.0	70.0	1.5	Outcome2	2.1	-7.72	0.0	No		-9.82312925170068				ShowResult	Mixed
33.0	2	92.61	0.019	670.89	-7.72	-3.0	23.9162	5.099	70.0	1.5	Outcome2	2.1	-7.72	0.0	No		-9.82312925170068				ISITrial	Mixed
34.0	2	97.726	0.017	676.006	-4.22	1.0	23.3887	3.0	70.0	4.2	Outcome1	-4.22	6.1	3231.5	Yes	2.0	-10.324263038548802	1.485	99.211		GetAnswer	Gain
34.0	2	99.23	0.019	677.51	-4.22	1.0	23.3887	4.0	70.0	4.2	Outcome1	-4.22	6.1	3231.5	Yes		-10.324263038548802				ShowChoice	Gain
34.0	2	103.242	0.012	681.522	-4.22	1.0	23.3887	1.0	70.0	4.2	Outcome1	-4.22	6.1	3231.5	Yes		-10.324263038548802				ShowResult	Gain
34.0	2	104.262	0.02	682.542	-4.22	1.0	23.3887	4.784	70.0	4.2	Outcome1	-4.22	6.1	3231.5	Yes		-10.324263038548802				ISITrial	Gain
34.0	2	112.319	0.027	690.599	-4.22	1.0	23.3887	3.734	70.0	4.2	Outcome1	-4.22	6.1	3231.5	Yes		-10.324263038548802			360.0	TrialHappiness	Gain
34.0	2	116.348	4.029	694.628	-4.22	1.0	23.3887	4.926	70.0	4.2	Outcome1	-4.22	6.1	3231.5	Yes		-10.324263038548802				ISIRate	Gain
35.0	2	121.296	0.022	699.576	2.26	1.13	23.6712	3.0	70.0	1.68	Outcome1	2.26	10.5	0.0	No	2.0	-8.24036281179138	0.685	121.981		GetAnswer	Loss
35.0	2	121.998	0.017	700.278	2.26	1.13	23.6712	4.0	70.0	1.68	Outcome1	2.26	10.5	0.0	No		-8.24036281179138				ShowChoice	Loss
35.0	2	126.01	0.012	704.29	2.26	1.13	23.6712	1.0	70.0	1.68	Outcome1	2.26	10.5	0.0	No		-8.24036281179138				ShowResult	Loss
35.0	2	127.03	0.02	705.31	2.26	1.13	23.6712	2.098	70.0	1.68	Outcome1	2.26	10.5	0.0	No		-8.24036281179138				ISITrial	Loss
36.0	2	129.153	0.025	707.433	-5.87	-1.0	22.9374	3.0	70.0	0.3	Outcome1	-5.87	2.7	3335.75	Yes	2.0	-8.56916099773242	1.742	130.895		GetAnswer	Mixed
36.0	2	130.908	0.013	709.188	-5.87	-1.0	22.9374	4.0	70.0	0.3	Outcome1	-5.87	2.7	3335.75	Yes		-8.56916099773242				ShowChoice	Mixed
36.0	2	134.92	0.012	713.2	-5.87	-1.0	22.9374	1.0	70.0	0.3	Outcome1	-5.87	2.7	3335.75	Yes		-8.56916099773242				ShowResult	Mixed
36.0	2	135.94	0.02	714.22	-5.87	-1.0	22.9374	5.156	70.0	0.3	Outcome1	-5.87	2.7	3335.75	Yes		-8.56916099773242				ISITrial	Mixed
36.0	2	144.482	0.024	722.762	-5.87	-1.0	22.9374	0.892	70.0	0.3	Outcome1	-5.87	2.7	3335.75	Yes		-8.56916099773242			344.0	TrialHappiness	Mixed
36.0	2	148.494	4.012	726.774	-5.87	-1.0	22.9374	5.343	70.0	0.3	Outcome1	-5.87	2.7	3335.75	Yes		-8.56916099773242				ISIRate	Mixed
37.0	2	153.86	0.023	732.14	0.0	0.0	22.9374	3.0	70.0	0.2	Certain	0.12	-1.32	0.0	No	4.0	1.4436885865457298	1.206	155.066		GetAnswer	Mixed
37.0	2	155.081	0.015	733.361	0.0	0.0	22.9374	4.0	70.0	0.2	Certain	0.12	-1.32	0.0	No		1.4436885865457298				ShowChoice	Mixed
37.0	2	159.093	0.012	737.373	0.0	0.0	22.9374	1.0	70.0	0.2	Certain	0.12	-1.32	0.0	No		1.4436885865457298				ShowResult	Mixed
37.0	2	160.112	0.019	738.392	0.0	0.0	22.9374	3.598	70.0	0.2	Certain	0.12	-1.32	0.0	No		1.4436885865457298				ISITrial	Mixed
38.0	2	163.74	0.03	742.02	1.27	0.0	23.0962	3.0	70.0	2.22	Outcome2	-0.2	1.27	0.0	No	2.0	1.46957671957672	1.643	165.383		GetAnswer	Gain
38.0	2	165.411	0.028	743.691	1.27	0.0	23.0962	4.0	70.0	2.22	Outcome2	-0.2	1.27	0.0	No		1.46957671957672				ShowChoice	Gain
38.0	2	169.423	0.012	747.703	1.27	0.0	23.0962	1.0	70.0	2.22	Outcome2	-0.2	1.27	0.0	No		1.46957671957672				ShowResult	Gain
38.0	2	170.443	0.02	748.723	1.27	0.0	23.0962	4.787	70.0	2.22	Outcome2	-0.2	1.27	0.0	No		1.46957671957672				ISITrial	Gain
39.0	2	175.258	0.028	753.538	0.0	0.0	23.0962	3.0	70.0	1.0	Certain	-1.08	0.42	2864.25	Yes	4.0	1.4954648526077101	1.497	176.755		GetAnswer	Mixed
39.0	2	176.779	0.024	755.059	0.0	0.0	23.0962	4.0	70.0	1.0	Certain	-1.08	0.42	2864.25	Yes		1.4954648526077101				ShowChoice	Mixed
39.0	2	180.791	0.012	759.071	0.0	0.0	23.0962	1.0	70.0	1.0	Certain	-1.08	0.42	2864.25	Yes		1.4954648526077101				ShowResult	Mixed
39.0	2	181.81	0.019	760.09	0.0	0.0	23.0962	2.348	70.0	1.0	Certain	-1.08	0.42	2864.25	Yes		1.4954648526077101				ISITrial	Mixed
39.0	2	187.076	0.028	765.356	0.0	0.0	23.0962	0.977	70.0	1.0	Certain	-1.08	0.42	2864.25	Yes		1.4954648526077101			448.0	TrialHappiness	Mixed
39.0	2	191.088	4.012	769.368	0.0	0.0	23.0962	3.457	70.0	1.0	Certain	-1.08	0.42	2864.25	Yes		1.4954648526077101				ISIRate	Mixed
40.0	2	194.565	0.02	772.845	-0.43	-0.22	23.0424	3.0	70.0	2.0	Outcome2	10.9	-0.43	0.0	No	2.0	-11.3265306122449	1.416	195.981		GetAnswer	Loss
40.0	2	196.003	0.022	774.283	-0.43	-0.22	23.0424	4.0	70.0	2.0	Outcome2	10.9	-0.43	0.0	No		-11.3265306122449				ShowChoice	Loss
40.0	2	200.015	0.012	778.295	-0.43	-0.22	23.0424	1.0	70.0	2.0	Outcome2	10.9	-0.43	0.0	No		-11.3265306122449				ShowResult	Loss
40.0	2	201.035	0.02	779.315	-0.43	-0.22	23.0424	3.158	70.0	2.0	Outcome2	10.9	-0.43	0.0	No		-11.3265306122449				ISITrial	Loss
41.0	2	204.211	0.018	782.491	3.08	2.0	23.4274	3.0	70.0	5.0	Outcome2	1.1	3.08	4000.0	Yes	2.0	1.97959183673469	1.044	205.255		GetAnswer	Loss
41.0	2	205.281	0.026	783.561	3.08	2.0	23.4274	4.0	70.0	5.0	Outcome2	1.1	3.08	4000.0	Yes		1.97959183673469				ShowChoice	Loss
41.0	2	209.293	0.012	787.573	3.08	2.0	23.4274	1.0	70.0	5.0	Outcome2	1.1	3.08	4000.0	Yes		1.97959183673469				ShowResult	Loss
41.0	2	210.312	0.019	788.592	3.08	2.0	23.4274	4.506	70.0	5.0	Outcome2	1.1	3.08	4000.0	Yes		1.97959183673469				ISITrial	Loss
41.0	2	218.871	0.028	797.151	3.08	2.0	23.4274	0.741	70.0	5.0	Outcome2	1.1	3.08	4000.0	Yes		1.97959183673469			448.0	TrialHappiness	Loss
41.0	2	222.883	4.012	801.163	3.08	2.0	23.4274	8.0	70.0	5.0	Outcome2	1.1	3.08	4000.0	Yes		1.97959183673469				ISIRate	Loss
42.0	2	230.907	0.024	809.187	-7.0	-7.0	22.5524	3.0	70.0	0.3	Certain	-1.3	-13.48	0.0	No	4.0	-12.1836734693878	1.831	232.738		GetAnswer	Mixed
42.0	2	232.763	0.025	811.043	-7.0	-7.0	22.5524	4.0	70.0	0.3	Certain	-1.3	-13.48	0.0	No		-12.1836734693878				ShowChoice	Mixed
42.0	2	236.775	0.012	815.055	-7.0	-7.0	22.5524	1.0	70.0	0.3	Certain	-1.3	-13.48	0.0	No		-12.1836734693878				ShowResult	Mixed
42.0	2	237.795	0.02	816.075	-7.0	-7.0	22.5524	6.248	70.0	0.3	Certain	-1.3	-13.48	0.0	No		-12.1836734693878				ISITrial	Mixed
43.0	2	244.063	0.02	822.343	-8.91	-2.0	21.4386	3.0	70.0	1.0	Outcome2	3.7	-8.91	2775.75	Yes	2.0	-12.612244897959199	1.696	245.759		GetAnswer	Mixed
43.0	2	245.785	0.026	824.065	-8.91	-2.0	21.4386	4.0	70.0	1.0	Outcome2	3.7	-8.91	2775.75	Yes		-12.612244897959199				ShowChoice	Mixed
43.0	2	249.797	0.012	828.077	-8.91	-2.0	21.4386	1.0	70.0	1.0	Outcome2	3.7	-8.91	2775.75	Yes		-12.612244897959199				ShowResult	Mixed
43.0	2	250.817	0.02	829.097	-8.91	-2.0	21.4386	4.596	70.0	1.0	Outcome2	3.7	-8.91	2775.75	Yes		-12.612244897959199				ISITrial	Mixed
43.0	2	258.222	0.015	836.502	-8.91	-2.0	21.4386	2.095	70.0	1.0	Outcome2	3.7	-8.91	2775.75	Yes		-12.612244897959199			328.0	TrialHappiness	Mixed
43.0	2	262.234	4.012	840.514	-8.91	-2.0	21.4386	3.103	70.0	1.0	Outcome2	3.7	-8.91	2775.75	Yes		-12.612244897959199				ISIRate	Mixed
44.0	2	265.36	0.023	843.64	-5.0	-5.0	20.8136	3.0	70.0	0.3	Certain	0.7	-10.3	0.0	No	4.0	-11.0	1.328	266.688		GetAnswer	Mixed
44.0	2	266.714	0.026	844.994	-5.0	-5.0	20.8136	4.0	70.0	0.3	Certain	0.7	-10.3	0.0	No		-11.0				ShowChoice	Mixed
44.0	2	270.726	0.012	849.006	-5.0	-5.0	20.8136	1.0	70.0	0.3	Certain	0.7	-10.3	0.0	No		-11.0				ShowResult	Mixed
44.0	2	271.746	0.02	850.026	-5.0	-5.0	20.8136	2.42	70.0	0.3	Certain	0.7	-10.3	0.0	No		-11.0				ISITrial	Mixed
45.0	2	274.187	0.021	852.467	0.0	0.0	20.8136	3.0	70.0	1.2	Certain	-0.64	0.98	0.0	No	4.0	1.6235827664399098	1.5	275.687		GetAnswer	Mixed
45.0	2	275.708	0.021	853.988	0.0	0.0	20.8136	4.0	70.0	1.2	Certain	-0.64	0.98	0.0	No		1.6235827664399098				ShowChoice	Mixed
45.0	2	279.72	0.012	858.0	0.0	0.0	20.8136	1.0	70.0	1.2	Certain	-0.64	0.98	0.0	No		1.6235827664399098				ShowResult	Mixed
45.0	2	280.74	0.02	859.02	0.0	0.0	20.8136	3.144	70.0	1.2	Certain	-0.64	0.98	0.0	No		1.6235827664399098				ISITrial	Mixed
46.0	2	283.916	0.032	862.196	-0.28	-1.0	20.7786	3.0	70.0	0.4	Outcome2	-1.93	-0.28	3841.25	Yes		1.64795918367347				GetAnswer	Mixed
46.0	2	286.941	0.025	865.221	-0.28	-1.0	20.7786	4.0	70.0	0.4	Outcome2	-1.93	-0.28	3841.25	Yes		1.64795918367347				ShowChoice	Mixed
46.0	2	290.953	0.012	869.233	-0.28	-1.0	20.7786	1.0	70.0	0.4	Outcome2	-1.93	-0.28	3841.25	Yes		1.64795918367347				ShowResult	Mixed
46.0	2	291.973	0.02	870.253	-0.28	-1.0	20.7786	2.246	70.0	0.4	Outcome2	-1.93	-0.28	3841.25	Yes		1.64795918367347				ISITrial	Mixed
46.0	2	298.091	0.02	876.371	-0.28	-1.0	20.7786	0.942	70.0	0.4	Outcome2	-1.93	-0.28	3841.25	Yes		1.64795918367347			328.0	TrialHappiness	Mixed
46.0	2	302.103	4.012	880.383	-0.28	-1.0	20.7786	7.365	70.0	0.4	Outcome2	-1.93	-0.28	3841.25	Yes		1.64795918367347				ISIRate	Mixed
47.0	2	309.492	0.024	887.772	-6.98	-1.0	19.9061	3.0	70.0	2.0	Outcome2	4.9	-6.98	0.0	No	2.0	-11.877551020408198	1.532	311.024		GetAnswer	Gain
47.0	2	311.047	0.023	889.327	-6.98	-1.0	19.9061	4.0	70.0	2.0	Outcome2	4.9	-6.98	0.0	No		-11.877551020408198				ShowChoice	Gain
47.0	2	315.059	0.012	893.339	-6.98	-1.0	19.9061	1.0	70.0	2.0	Outcome2	4.9	-6.98	0.0	No		-11.877551020408198				ShowResult	Gain
47.0	2	316.079	0.02	894.359	-6.98	-1.0	19.9061	2.0	70.0	2.0	Outcome2	4.9	-6.98	0.0	No		-11.877551020408198				ISITrial	Gain
48.0	2	318.101	0.022	896.381	-5.47	0.0	19.2223	3.0	70.0	1.82	Outcome2	6.7	-5.47	2831.75	Yes	2.0	-12.1700680272109	1.845	319.946		GetAnswer	Gain
48.0	2	319.974	0.028	898.254	-5.47	0.0	19.2223	4.0	70.0	1.82	Outcome2	6.7	-5.47	2831.75	Yes		-12.1700680272109				ShowChoice	Gain
48.0	2	323.986	0.012	902.266	-5.47	0.0	19.2223	1.0	70.0	1.82	Outcome2	6.7	-5.47	2831.75	Yes		-12.1700680272109				ShowResult	Gain
48.0	2	325.005	0.019	903.285	-5.47	0.0	19.2223	3.692	70.0	1.82	Outcome2	6.7	-5.47	2831.75	Yes		-12.1700680272109				ISITrial	Gain
48.0	2	331.575	0.027	909.855	-5.47	0.0	19.2223	3.1	70.0	1.82	Outcome2	6.7	-5.47	2831.75	Yes		-12.1700680272109			136.0	TrialHappiness	Gain
48.0	2	335.587	4.012	913.867	-5.47	0.0	19.2223	3.327	70.0	1.82	Outcome2	6.7	-5.47	2831.75	Yes		-12.1700680272109				ISIRate	Gain
49.0	2	338.93	0.016	917.21	-1.0	-1.0	19.0973	3.0	70.0	0.82	Certain	-5.7	3.5	0.0	No	4.0	-9.19727891156463	1.503	340.433		GetAnswer	Mixed
49.0	2	340.451	0.018	918.731	-1.0	-1.0	19.0973	4.0	70.0	0.82	Certain	-5.7	3.5	0.0	No		-9.19727891156463				ShowChoice	Mixed
49.0	2	344.463	0.012	922.743	-1.0	-1.0	19.0973	1.0	70.0	0.82	Certain	-5.7	3.5	0.0	No		-9.19727891156463				ShowResult	Mixed
49.0	2	345.483	0.02	923.763	-1.0	-1.0	19.0973	8.0	70.0	0.82	Certain	-5.7	3.5	0.0	No		-9.19727891156463				ISITrial	Mixed
50.0	2	353.507	0.024	931.787	-0.77	-0.38	19.0011	3.0	70.0	1.68	Outcome2	8.5	-0.77	3547.25	Yes	2.0	-9.27210884353742	1.3	354.807		GetAnswer	Gain
50.0	2	354.828	0.021	933.108	-0.77	-0.38	19.0011	4.0	70.0	1.68	Outcome2	8.5	-0.77	3547.25	Yes		-9.27210884353742				ShowChoice	Gain
50.0	2	358.84	0.012	937.12	-0.77	-0.38	19.0011	1.0	70.0	1.68	Outcome2	8.5	-0.77	3547.25	Yes		-9.27210884353742				ShowResult	Gain
50.0	2	359.859	0.019	938.139	-0.77	-0.38	19.0011	7.537	70.0	1.68	Outcome2	8.5	-0.77	3547.25	Yes		-9.27210884353742				ISITrial	Gain
50.0	2	370.976	0.014	949.256	-0.77	-0.38	19.0011	3.925	70.0	1.68	Outcome2	8.5	-0.77	3547.25	Yes		-9.27210884353742			140.0	TrialHappiness	Gain
50.0	2	374.988	4.012	953.268	-0.77	-0.38	19.0011	6.189	70.0	1.68	Outcome2	8.5	-0.77	3547.25	Yes		-9.27210884353742				ISIRate	Gain
51.0	2	381.207	0.03	959.487	-0.32	-0.16	18.9611	3.0	70.0	2.22	Outcome1	-0.32	9.1	0.0	No	2.0	-9.414965986394561	1.431	382.638		GetAnswer	Gain
51.0	2	382.661	0.023	960.941	-0.32	-0.16	18.9611	4.0	70.0	2.22	Outcome1	-0.32	9.1	0.0	No		-9.414965986394561				ShowChoice	Gain
51.0	2	386.673	0.012	964.953	-0.32	-0.16	18.9611	1.0	70.0	2.22	Outcome1	-0.32	9.1	0.0	No		-9.414965986394561				ShowResult	Gain
51.0	2	387.693	0.02	965.973	-0.32	-0.16	18.9611	5.508	70.0	2.22	Outcome1	-0.32	9.1	0.0	No		-9.414965986394561				ISITrial	Gain
52.0	2	393.226	0.025	971.506	2.33	2.0	19.2523	3.0	70.0	2.48	Outcome2	1.35	2.33	0.0	No	2.0	0.976379440665155	2.005	395.231		GetAnswer	Gain
52.0	2	395.249	0.018	973.529	2.33	2.0	19.2523	4.0	70.0	2.48	Outcome2	1.35	2.33	0.0	No		0.976379440665155				ShowChoice	Gain
52.0	2	399.261	0.012	977.541	2.33	2.0	19.2523	1.0	70.0	2.48	Outcome2	1.35	2.33	0.0	No		0.976379440665155				ShowResult	Gain
52.0	2	400.28	0.019	978.56	2.33	2.0	19.2523	5.913	70.0	2.48	Outcome2	1.35	2.33	0.0	No		0.976379440665155				ISITrial	Gain
53.0	2	406.215	0.022	984.495	-3.0	-3.0	18.8773	3.0	70.0	0.66	Certain	1.3	-8.27	2996.75	Yes	4.0	-9.573696145124721	2.112	408.327		GetAnswer	Mixed
53.0	2	408.338	0.011	986.618	-3.0	-3.0	18.8773	4.0	70.0	0.66	Certain	1.3	-8.27	2996.75	Yes		-9.573696145124721				ShowChoice	Mixed
53.0	2	412.35	0.012	990.63	-3.0	-3.0	18.8773	1.0	70.0	0.66	Certain	1.3	-8.27	2996.75	Yes		-9.573696145124721				ShowResult	Mixed
53.0	2	413.369	0.019	991.649	-3.0	-3.0	18.8773	3.66	70.0	0.66	Certain	1.3	-8.27	2996.75	Yes		-9.573696145124721				ISITrial	Mixed
53.0	2	420.073	0.029	998.353	-3.0	-3.0	18.8773	1.894	70.0	0.66	Certain	1.3	-8.27	2996.75	Yes		-9.573696145124721			152.0	TrialHappiness	Mixed
53.0	2	424.102	4.029	1002.382	-3.0	-3.0	18.8773	3.987	70.0	0.66	Certain	1.3	-8.27	2996.75	Yes		-9.573696145124721				ISIRate	Mixed
54.0	2	428.114	0.025	1006.394	3.38	1.17	19.2998	3.0	70.0	2.8	Outcome2	2.34	3.38	0.0	No	2.0	1.03835978835979	1.384	429.498		GetAnswer	Loss
54.0	2	429.518	0.02	1007.798	3.38	1.17	19.2998	4.0	70.0	2.8	Outcome2	2.34	3.38	0.0	No		1.03835978835979				ShowChoice	Loss
54.0	2	433.53	0.012	1011.81	3.38	1.17	19.2998	1.0	70.0	2.8	Outcome2	2.34	3.38	0.0	No		1.03835978835979				ShowResult	Loss
54.0	2	434.549	0.019	1012.829	3.38	1.17	19.2998	8.0	70.0	2.8	Outcome2	2.34	3.38	0.0	No		1.03835978835979				ISITrial	Loss
	2	442.573	0.024	1020.853				-0.001								{SPACE}		39.034	481.607		Rest	
	2	481.624	0.017	1059.904				4.0													BlockHappyPreview	
	2	485.636	0.012	1063.916				3.333												248.0	BlockStartHappiness	
	2	491.102	0.023	1069.382				-0.001								5.0		1.266	492.368		ScanWait	
	3	0.021	0.021	1070.669				10.0													GetReady	
55.0	3	10.051	0.03	1080.699	2.5	-3.0	19.6123	3.0	955.0	0.2	Outcome1	2.5	-9.51	2533.25	Yes	2.0	12.010192525481301	1.848	11.899		GetAnswer	Mixed
55.0	3	11.923	0.024	1082.571	2.5	-3.0	19.6123	4.0	955.0	0.2	Outcome1	2.5	-9.51	2533.25	Yes		12.010192525481301				ShowChoice	Mixed
55.0	3	15.935	0.012	1086.583	2.5	-3.0	19.6123	1.0	955.0	0.2	Outcome1	2.5	-9.51	2533.25	Yes		12.010192525481301				ShowResult	Mixed
55.0	3	16.955	0.02	1087.603	2.5	-3.0	19.6123	7.709	955.0	0.2	Outcome1	2.5	-9.51	2533.25	Yes		12.010192525481301				ISITrial	Mixed
55.0	3	27.236	0.025	1097.884	2.5	-3.0	19.6123	1.645	955.0	0.2	Outcome1	2.5	-9.51	2533.25	Yes		12.010192525481301			376.0	TrialHappiness	Mixed
55.0	3	31.264	4.028	1101.912	2.5	-3.0	19.6123	2.133	955.0	0.2	Outcome1	2.5	-9.51	2533.25	Yes		12.010192525481301				ISIRate	Mixed
56.0	3	33.421	0.024	1104.069	3.28	1.64	20.0223	3.0	955.0	3.16	Outcome1	3.28	5.7	0.0	No	2.0	-2.41638354095885	1.21	34.631		GetAnswer	Gain
56.0	3	34.658	0.027	1105.306	3.28	1.64	20.0223	4.0	955.0	3.16	Outcome1	3.28	5.7	0.0	No		-2.41638354095885				ShowChoice	Gain
56.0	3	38.687	0.029	1109.335	3.28	1.64	20.0223	1.0	955.0	3.16	Outcome1	3.28	5.7	0.0	No		-2.41638354095885				ShowResult	Gain
56.0	3	39.706	0.019	1110.354	3.28	1.64	20.0223	4.697	955.0	3.16	Outcome1	3.28	5.7	0.0	No		-2.41638354095885				ISITrial	Gain
57.0	3	44.437	0.034	1115.085	-2.0	-2.0	19.7723	3.0	955.0	0.4	Certain	-8.39	2.9	0.0	No	4.0	11.2921857304643	2.426	46.863		GetAnswer	Mixed
57.0	3	46.878	0.015	1117.526	-2.0	-2.0	19.7723	4.0	955.0	0.4	Certain	-8.39	2.9	0.0	No		11.2921857304643				ShowChoice	Mixed
57.0	3	50.907	0.029	1121.555	-2.0	-2.0	19.7723	1.0	955.0	0.4	Certain	-8.39	2.9	0.0	No		11.2921857304643				ShowResult	Mixed
57.0	3	51.926	0.019	1122.574	-2.0	-2.0	19.7723	4.291	955.0	0.4	Certain	-8.39	2.9	0.0	No		11.2921857304643				ISITrial	Mixed
58.0	3	56.239	0.022	1126.887	-6.0	-6.0	19.0223	3.0	955.0	1.0	Certain	-0.3	-12.25	3045.75	Yes	4.0	11.9479048697622	2.874	59.113		GetAnswer	Mixed
58.0	3	59.131	0.018	1129.779	-6.0	-6.0	19.0223	4.0	955.0	1.0	Certain	-0.3	-12.25	3045.75	Yes		11.9479048697622				ShowChoice	Mixed
58.0	3	63.16	0.029	1133.808	-6.0	-6.0	19.0223	1.0	955.0	1.0	Certain	-0.3	-12.25	3045.75	Yes		11.9479048697622				ShowResult	Mixed
58.0	3	64.18	0.02	1134.828	-6.0	-6.0	19.0223	2.037	955.0	1.0	Certain	-0.3	-12.25	3045.75	Yes		11.9479048697622				ISITrial	Mixed
58.0	3	69.312	0.03	1139.96	-6.0	-6.0	19.0223	1.025	955.0	1.0	Certain	-0.3	-12.25	3045.75	Yes		11.9479048697622			368.0	TrialHappiness	Mixed
58.0	3	73.324	4.012	1143.972	-6.0	-6.0	19.0223	4.183	955.0	1.0	Certain	-0.3	-12.25	3045.75	Yes		11.9479048697622				ISIRate	Mixed
59.0	3	77.536	0.029	1148.184	2.69	1.34	19.3585	3.0	955.0	2.48	Outcome2	5.3	2.69	0.0	No	2.0	-2.61277840694602	1.295	78.831		GetAnswer	Gain
59.0	3	78.857	0.026	1149.505	2.69	1.34	19.3585	4.0	955.0	2.48	Outcome2	5.3	2.69	0.0	No		-2.61277840694602				ShowChoice	Gain
59.0	3	82.869	0.012	1153.517	2.69	1.34	19.3585	1.0	955.0	2.48	Outcome2	5.3	2.69	0.0	No		-2.61277840694602				ShowResult	Gain
59.0	3	83.888	0.019	1154.536	2.69	1.34	19.3585	5.064	955.0	2.48	Outcome2	5.3	2.69	0.0	No		-2.61277840694602				ISITrial	Gain
60.0	3	88.97	0.018	1159.618	13.9	0.25	21.096	3.0	955.0	3.6	Outcome2	0.5	13.9	3562.5	Yes	2.0	13.404303510758801	0.851	89.821		GetAnswer	Loss
60.0	3	89.84	0.019	1160.488	13.9	0.25	21.096	4.0	955.0	3.6	Outcome2	0.5	13.9	3562.5	Yes		13.404303510758801				ShowChoice	Loss
60.0	3	93.852	0.012	1164.5	13.9	0.25	21.096	1.0	955.0	3.6	Outcome2	0.5	13.9	3562.5	Yes		13.404303510758801				ShowResult	Loss
60.0	3	94.871	0.019	1165.519	13.9	0.25	21.096	8.0	955.0	3.6	Outcome2	0.5	13.9	3562.5	Yes		13.404303510758801				ISITrial	Loss
60.0	3	106.473	0.016	1177.121	13.9	0.25	21.096	3.116	955.0	3.6	Outcome2	0.5	13.9	3562.5	Yes		13.404303510758801			472.0	TrialHappiness	Loss
60.0	3	110.485	4.012	1181.133	13.9	0.25	21.096	6.25	955.0	3.6	Outcome2	0.5	13.9	3562.5	Yes		13.404303510758801				ISIRate	Loss
61.0	3	116.753	0.018	1187.401	1.0	1.0	21.221	3.0	955.0	2.8	Certain	7.5	-4.8	0.0	No	4.0	12.3023782559456	1.821	118.574		GetAnswer	Gain
61.0	3	118.592	0.018	1189.24	1.0	1.0	21.221	4.0	955.0	2.8	Certain	7.5	-4.8	0.0	No		12.3023782559456				ShowChoice	Gain
61.0	3	122.604	0.012	1193.252	1.0	1.0	21.221	1.0	955.0	2.8	Certain	7.5	-4.8	0.0	No		12.3023782559456				ShowResult	Gain
61.0	3	123.624	0.02	1194.272	1.0	1.0	21.221	4.586	955.0	2.8	Certain	7.5	-4.8	0.0	No		12.3023782559456				ISITrial	Gain
62.0	3	128.238	0.028	1198.886	1.9	-4.0	21.4585	3.0	955.0	1.2	Outcome1	1.9	-10.95	3748.75	Yes		12.8493771234428				GetAnswer	Mixed
62.0	3	131.263	0.025	1201.911	1.9	-4.0	21.4585	4.0	955.0	1.2	Outcome1	1.9	-10.95	3748.75	Yes		12.8493771234428				ShowChoice	Mixed
62.0	3	135.275	0.012	1205.923	1.9	-4.0	21.4585	1.0	955.0	1.2	Outcome1	1.9	-10.95	3748.75	Yes		12.8493771234428				ShowResult	Mixed
62.0	3	136.295	0.02	1206.943	1.9	-4.0	21.4585	5.212	955.0	1.2	Outcome1	1.9	-10.95	3748.75	Yes		12.8493771234428				ISITrial	Mixed
62.0	3	145.305	0.029	1215.953	1.9	-4.0	21.4585	0.0	955.0	1.2	Outcome1	1.9	-10.95	3748.75	Yes		12.8493771234428			512.0	TrialHappiness	Mixed
62.0	3	149.317	4.012	1219.965	1.9	-4.0	21.4585	6.995	955.0	1.2	Outcome1	1.9	-10.95	3748.75	Yes		12.8493771234428				ISIRate	Mixed
63.0	3	156.338	0.026	1226.986	-0.1	-6.0	21.445999999999998	3.0	955.0	1.2	Outcome1	-0.1	-12.82	0.0	No	2.0	12.7168742921857	2.186	158.524		GetAnswer	Mixed
63.0	3	158.545	0.021	1229.193	-0.1	-6.0	21.445999999999998	4.0	955.0	1.2	Outcome1	-0.1	-12.82	0.0	No		12.7168742921857				ShowChoice	Mixed
63.0	3	162.557	0.012	1233.205	-0.1	-6.0	21.445999999999998	1.0	955.0	1.2	Outcome1	-0.1	-12.82	0.0	No		12.7168742921857				ShowResult	Mixed
63.0	3	163.577	0.02	1234.225	-0.1	-6.0	21.445999999999998	5.595	955.0	1.2	Outcome1	-0.1	-12.82	0.0	No		12.7168742921857				ISITrial	Mixed
64.0	3	169.194	0.022	1239.842	8.1	1.0	22.4585	3.0	955.0	4.2	Outcome2	-5.12	8.1	0.0	No	2.0	13.2185730464326	1.105	170.299		GetAnswer	Gain
64.0	3	170.314	0.015	1240.962	8.1	1.0	22.4585	4.0	955.0	4.2	Outcome2	-5.12	8.1	0.0	No		13.2185730464326				ShowChoice	Gain
64.0	3	174.326	0.012	1244.974	8.1	1.0	22.4585	1.0	955.0	4.2	Outcome2	-5.12	8.1	0.0	No		13.2185730464326				ShowResult	Gain
64.0	3	175.345	0.019	1245.993	8.1	1.0	22.4585	5.47	955.0	4.2	Outcome2	-5.12	8.1	0.0	No		13.2185730464326				ISITrial	Gain
65.0	3	180.845	0.03	1251.493	0.0	0.0	22.4585	3.0	955.0	2.22	Certain	7.1	-6.62	2996.75	Yes	4.0	13.7202718006795	2.374	183.219		GetAnswer	Gain
65.0	3	183.236	0.017	1253.884	0.0	0.0	22.4585	4.0	955.0	2.22	Certain	7.1	-6.62	2996.75	Yes		13.7202718006795				ShowChoice	Gain
65.0	3	187.248	0.012	1257.896	0.0	0.0	22.4585	1.0	955.0	2.22	Certain	7.1	-6.62	2996.75	Yes		13.7202718006795				ShowResult	Gain
65.0	3	188.267	0.019	1258.915	0.0	0.0	22.4585	3.344	955.0	2.22	Certain	7.1	-6.62	2996.75	Yes		13.7202718006795				ISITrial	Gain
65.0	3	194.653	0.029	1265.301	0.0	0.0	22.4585	0.793	955.0	2.22	Certain	7.1	-6.62	2996.75	Yes		13.7202718006795			560.0	TrialHappiness	Gain
65.0	3	198.665	4.012	1269.313	0.0	0.0	22.4585	3.987	955.0	2.22	Certain	7.1	-6.62	2996.75	Yes		13.7202718006795				ISIRate	Gain
66.0	3	202.677	0.025	1273.325	9.7	-1.86	23.671	3.0	955.0	3.16	Outcome1	9.7	-3.71	0.0	No	2.0	13.406568516421302	1.158	203.835		GetAnswer	Gain
66.0	3	203.864	0.029	1274.512	9.7	-1.86	23.671	4.0	955.0	3.16	Outcome1	9.7	-3.71	0.0	No		13.406568516421302				ShowChoice	Gain
66.0	3	207.876	0.012	1278.524	9.7	-1.86	23.671	1.0	955.0	3.16	Outcome1	9.7	-3.71	0.0	No		13.406568516421302				ShowResult	Gain
66.0	3	208.896	0.02	1279.544	9.7	-1.86	23.671	3.959	955.0	3.16	Outcome1	9.7	-3.71	0.0	No		13.406568516421302				ISITrial	Gain
67.0	3	212.874	0.019	1283.522	8.9	4.45	24.7835	3.0	955.0	2.22	Outcome2	11.1	8.9	2918.5	Yes	2.0	-2.19828237070593	1.28	214.154		GetAnswer	Loss
67.0	3	214.178	0.024	1284.826	8.9	4.45	24.7835	4.0	955.0	2.22	Outcome2	11.1	8.9	2918.5	Yes		-2.19828237070593				ShowChoice	Loss
67.0	3	218.19	0.012	1288.838	8.9	4.45	24.7835	1.0	955.0	2.22	Outcome2	11.1	8.9	2918.5	Yes		-2.19828237070593				ShowResult	Loss
67.0	3	219.21	0.02	1289.858	8.9	4.45	24.7835	4.199	955.0	2.22	Outcome2	11.1	8.9	2918.5	Yes		-2.19828237070593				ISITrial	Loss
67.0	3	226.364	0.024	1297.012	8.9	4.45	24.7835	1.027	955.0	2.22	Outcome2	11.1	8.9	2918.5	Yes		-2.19828237070593			568.0	TrialHappiness	Loss
67.0	3	230.376	4.012	1301.024	8.9	4.45	24.7835	3.674	955.0	2.22	Outcome2	11.1	8.9	2918.5	Yes		-2.19828237070593				ISIRate	Loss
68.0	3	234.071	0.021	1304.719	8.1	4.05	25.796	3.0	955.0	5.0	Outcome1	8.1	10.3	0.0	No	2.0	-2.20309550773877	1.384	235.455		GetAnswer	Gain
68.0	3	235.475	0.02	1306.123	8.1	4.05	25.796	4.0	955.0	5.0	Outcome1	8.1	10.3	0.0	No		-2.20309550773877				ShowChoice	Gain
68.0	3	239.487	0.012	1310.135	8.1	4.05	25.796	1.0	955.0	5.0	Outcome1	8.1	10.3	0.0	No		-2.20309550773877				ShowResult	Gain
68.0	3	240.507	0.02	1311.155	8.1	4.05	25.796	2.185	955.0	5.0	Outcome1	8.1	10.3	0.0	No		-2.20309550773877				ISITrial	Gain
69.0	3	242.713	0.021	1313.361	-0.5	-8.0	25.7335	3.0	955.0	0.82	Outcome1	-0.5	-15.1	0.0	No	2.0	14.60362400906	2.08	244.793		GetAnswer	Mixed
69.0	3	244.82	0.027	1315.468	-0.5	-8.0	25.7335	4.0	955.0	0.82	Outcome1	-0.5	-15.1	0.0	No		14.60362400906				ShowChoice	Mixed
69.0	3	248.832	0.012	1319.48	-0.5	-8.0	25.7335	1.0	955.0	0.82	Outcome1	-0.5	-15.1	0.0	No		14.60362400906				ShowResult	Mixed
69.0	3	249.851	0.019	1320.499	-0.5	-8.0	25.7335	2.0	955.0	0.82	Outcome1	-0.5	-15.1	0.0	No		14.60362400906				ISITrial	Mixed
70.0	3	251.874	0.023	1322.522	-9.0	-9.0	24.6085	3.0	955.0	0.2	Certain	-1.5	-16.54	3651.25	Yes	4.0	15.041902604756501	1.881	253.755		GetAnswer	Mixed
70.0	3	253.78	0.025	1324.428	-9.0	-9.0	24.6085	4.0	955.0	0.2	Certain	-1.5	-16.54	3651.25	Yes		15.041902604756501				ShowChoice	Mixed
70.0	3	257.792	0.012	1328.44	-9.0	-9.0	24.6085	1.0	955.0	0.2	Certain	-1.5	-16.54	3651.25	Yes		15.041902604756501				ShowResult	Mixed
70.0	3	258.812	0.02	1329.46	-9.0	-9.0	24.6085	2.623	955.0	0.2	Certain	-1.5	-16.54	3651.25	Yes		15.041902604756501				ISITrial	Mixed
70.0	3	265.13	0.026	1335.778	-9.0	-9.0	24.6085	3.874	955.0	0.2	Certain	-1.5	-16.54	3651.25	Yes		15.041902604756501			472.0	TrialHappiness	Mixed
70.0	3	269.142	4.012	1339.79	-9.0	-9.0	24.6085	6.605	955.0	0.2	Certain	-1.5	-16.54	3651.25	Yes		15.041902604756501				ISIRate	Mixed
71.0	3	275.779	0.032	1346.427	11.3	2.0	26.021	3.0	955.0	2.48	Outcome2	-5.81	11.3	0.0	No	2.0	17.1109852774632	1.428	277.207		GetAnswer	Loss
71.0	3	277.233	0.026	1347.881	11.3	2.0	26.021	4.0	955.0	2.48	Outcome2	-5.81	11.3	0.0	No		17.1109852774632				ShowChoice	Loss
71.0	3	281.245	0.012	1351.893	11.3	2.0	26.021	1.0	955.0	2.48	Outcome2	-5.81	11.3	0.0	No		17.1109852774632				ShowResult	Loss
71.0	3	282.265	0.02	1352.913	11.3	2.0	26.021	5.499	955.0	2.48	Outcome2	-5.81	11.3	0.0	No		17.1109852774632				ISITrial	Loss
72.0	3	287.781	0.017	1358.429	-5.0	-5.0	25.396	3.0	955.0	0.52	Certain	-14.56	3.1	3080.5	Yes	4.0	17.6579841449604	2.349	290.13		GetAnswer	Mixed
72.0	3	290.155	0.025	1360.803	-5.0	-5.0	25.396	4.0	955.0	0.52	Certain	-14.56	3.1	3080.5	Yes		17.6579841449604				ShowChoice	Mixed
72.0	3	294.167	0.012	1364.815	-5.0	-5.0	25.396	1.0	955.0	0.52	Certain	-14.56	3.1	3080.5	Yes		17.6579841449604				ShowResult	Mixed
72.0	3	295.187	0.02	1365.835	-5.0	-5.0	25.396	5.672	955.0	0.52	Certain	-14.56	3.1	3080.5	Yes		17.6579841449604				ISITrial	Mixed
72.0	3	303.98	0.029	1374.628	-5.0	-5.0	25.396	1.376	955.0	0.52	Certain	-14.56	3.1	3080.5	Yes		17.6579841449604			608.0	TrialHappiness	Mixed
72.0	3	307.992	4.012	1378.64	-5.0	-5.0	25.396	4.322	955.0	0.52	Certain	-14.56	3.1	3080.5	Yes		17.6579841449604				ISIRate	Mixed
73.0	3	312.338	0.024	1382.986	8.3	0.0	26.4335	3.0	955.0	5.0	Outcome2	-7.59	8.3	0.0	No	2.0	15.894677236693099	1.37	313.708		GetAnswer	Gain
73.0	3	313.726	0.018	1384.374	8.3	0.0	26.4335	4.0	955.0	5.0	Outcome2	-7.59	8.3	0.0	No		15.894677236693099				ShowChoice	Gain
73.0	3	317.738	0.012	1388.386	8.3	0.0	26.4335	1.0	955.0	5.0	Outcome2	-7.59	8.3	0.0	No		15.894677236693099				ShowResult	Gain
73.0	3	318.757	0.019	1389.405	8.3	0.0	26.4335	4.616	955.0	5.0	Outcome2	-7.59	8.3	0.0	No		15.894677236693099				ISITrial	Gain
74.0	3	323.405	0.032	1394.053	6.9	-1.0	27.296	3.0	955.0	2.0	Outcome1	6.9	-9.39	3056.25	Yes	2.0	16.287655719139302	1.386	324.791		GetAnswer	Gain
74.0	3	324.809	0.018	1395.457	6.9	-1.0	27.296	4.0	955.0	2.0	Outcome1	6.9	-9.39	3056.25	Yes		16.287655719139302				ShowChoice	Gain
74.0	3	328.821	0.012	1399.469	6.9	-1.0	27.296	1.0	955.0	2.0	Outcome1	6.9	-9.39	3056.25	Yes		16.287655719139302				ShowResult	Gain
74.0	3	329.841	0.02	1400.489	6.9	-1.0	27.296	3.909	955.0	2.0	Outcome1	6.9	-9.39	3056.25	Yes		16.287655719139302				ISITrial	Gain
74.0	3	336.845	0.02	1407.493	6.9	-1.0	27.296	3.919	955.0	2.0	Outcome1	6.9	-9.39	3056.25	Yes		16.287655719139302			800.0	TrialHappiness	Gain
74.0	3	340.857	4.012	1411.505	6.9	-1.0	27.296	4.225	955.0	2.0	Outcome1	6.9	-9.39	3056.25	Yes		16.287655719139302				ISIRate	Gain
75.0	3	345.103	0.021	1415.751	6.5	0.0	28.1085	3.0	955.0	1.68	Outcome1	6.5	-6.92	0.0	No	2.0	13.4190260475651	1.068	346.171		GetAnswer	Gain
75.0	3	346.189	0.018	1416.837	6.5	0.0	28.1085	4.0	955.0	1.68	Outcome1	6.5	-6.92	0.0	No		13.4190260475651				ShowChoice	Gain
75.0	3	350.201	0.012	1420.849	6.5	0.0	28.1085	1.0	955.0	1.68	Outcome1	6.5	-6.92	0.0	No		13.4190260475651				ShowResult	Gain
75.0	3	351.221	0.02	1421.869	6.5	0.0	28.1085	4.979	955.0	1.68	Outcome1	6.5	-6.92	0.0	No		13.4190260475651				ISITrial	Gain
76.0	3	356.219	0.019	1426.867	-2.0	-2.0	27.8585	3.0	955.0	1.68	Certain	4.5	-9.09	0.0	No	4.0	13.59456398641	1.541	357.76		GetAnswer	Gain
76.0	3	357.774	0.014	1428.422	-2.0	-2.0	27.8585	4.0	955.0	1.68	Certain	4.5	-9.09	0.0	No		13.59456398641				ShowChoice	Gain
76.0	3	361.786	0.012	1432.434	-2.0	-2.0	27.8585	1.0	955.0	1.68	Certain	4.5	-9.09	0.0	No		13.59456398641				ShowResult	Gain
76.0	3	362.806	0.02	1433.454	-2.0	-2.0	27.8585	3.931	955.0	1.68	Certain	4.5	-9.09	0.0	No		13.59456398641				ISITrial	Gain
77.0	3	366.768	0.031	1437.416	1.1	-6.0	27.996	3.0	955.0	0.52	Outcome2	-12.67	1.1	4000.0	Yes		13.770101925254801				GetAnswer	Mixed
77.0	3	369.793	0.025	1440.441	1.1	-6.0	27.996	4.0	955.0	0.52	Outcome2	-12.67	1.1	4000.0	Yes		13.770101925254801				ShowChoice	Mixed
77.0	3	373.805	0.012	1444.453	1.1	-6.0	27.996	1.0	955.0	0.52	Outcome2	-12.67	1.1	4000.0	Yes		13.770101925254801				ShowResult	Mixed
77.0	3	374.825	0.02	1445.473	1.1	-6.0	27.996	7.022	955.0	0.52	Outcome2	-12.67	1.1	4000.0	Yes		13.770101925254801				ISITrial	Mixed
77.0	3	385.891	0.028	1456.539	1.1	-6.0	27.996	1.176	955.0	0.52	Outcome2	-12.67	1.1	4000.0	Yes		13.770101925254801			800.0	TrialHappiness	Mixed
77.0	3	389.903	4.012	1460.551	1.1	-6.0	27.996	8.0	955.0	0.52	Outcome2	-12.67	1.1	4000.0	Yes		13.770101925254801				ISIRate	Mixed
78.0	3	397.927	0.024	1468.575	7.9	1.0	28.9835	3.0	955.0	3.6	Outcome2	-6.05	7.9	0.0	No	2.0	13.945639864099698	2.406	400.333		GetAnswer	Gain
78.0	3	400.351	0.018	1470.999	7.9	1.0	28.9835	4.0	955.0	3.6	Outcome2	-6.05	7.9	0.0	No		13.945639864099698				ShowChoice	Gain
78.0	3	404.363	0.012	1475.011	7.9	1.0	28.9835	1.0	955.0	3.6	Outcome2	-6.05	7.9	0.0	No		13.945639864099698				ShowResult	Gain
78.0	3	405.383	0.02	1476.031	7.9	1.0	28.9835	2.078	955.0	3.6	Outcome2	-6.05	7.9	0.0	No		13.945639864099698				ISITrial	Gain
79.0	3	407.489	0.028	1478.137	8.11	4.06	29.9973	3.0	955.0	3.16	Outcome2	9.7	8.11	2729.5	Yes	2.0	-1.5863533408833501	0.945	408.434		GetAnswer	Gain
79.0	3	408.459	0.025	1479.107	8.11	4.06	29.9973	4.0	955.0	3.16	Outcome2	9.7	8.11	2729.5	Yes		-1.5863533408833501				ShowChoice	Gain
79.0	3	412.471	0.012	1483.119	8.11	4.06	29.9973	1.0	955.0	3.16	Outcome2	9.7	8.11	2729.5	Yes		-1.5863533408833501				ShowResult	Gain
79.0	3	413.491	0.02	1484.139	8.11	4.06	29.9973	3.829	955.0	3.16	Outcome2	9.7	8.11	2729.5	Yes		-1.5863533408833501				ISITrial	Gain
79.0	3	420.094	0.029	1490.742	8.11	4.06	29.9973	3.599	955.0	3.16	Outcome2	9.7	8.11	2729.5	Yes		-1.5863533408833501			808.0	TrialHappiness	Gain
79.0	3	424.106	4.012	1494.754	8.11	4.06	29.9973	2.918	955.0	3.16	Outcome2	9.7	8.11	2729.5	Yes		-1.5863533408833501				ISIRate	Gain
80.0	3	427.048	0.024	1497.696	-3.0	-3.0	29.6223	3.0	955.0	1.0	Certain	-10.46	3.7	0.0	No	4.0	14.1608154020385	1.783	428.831		GetAnswer	Mixed
80.0	3	428.853	0.022	1499.501	-3.0	-3.0	29.6223	4.0	955.0	1.0	Certain	-10.46	3.7	0.0	No		14.1608154020385				ShowChoice	Mixed
80.0	3	432.865	0.012	1503.513	-3.0	-3.0	29.6223	1.0	955.0	1.0	Certain	-10.46	3.7	0.0	No		14.1608154020385				ShowResult	Mixed
80.0	3	433.885	0.02	1504.533	-3.0	-3.0	29.6223	3.336	955.0	1.0	Certain	-10.46	3.7	0.0	No		14.1608154020385				ISITrial	Mixed
81.0	3	437.245	0.024	1507.893	-4.0	-4.0	29.1223	3.0	955.0	0.4	Certain	-11.43	2.9	3923.75	Yes	4.0	14.327293318233302	1.827	439.072		GetAnswer	Mixed
81.0	3	439.084	0.012	1509.732	-4.0	-4.0	29.1223	4.0	955.0	0.4	Certain	-11.43	2.9	3923.75	Yes		14.327293318233302				ShowChoice	Mixed
81.0	3	443.096	0.012	1513.744	-4.0	-4.0	29.1223	1.0	955.0	0.4	Certain	-11.43	2.9	3923.75	Yes		14.327293318233302				ShowResult	Mixed
81.0	3	444.116	0.02	1514.764	-4.0	-4.0	29.1223	3.919	955.0	0.4	Certain	-11.43	2.9	3923.75	Yes		14.327293318233302				ISITrial	Mixed
81.0	3	452.006	0.021	1522.654	-4.0	-4.0	29.1223	1.292	955.0	0.4	Certain	-11.43	2.9	3923.75	Yes	2{-2}	14.327293318233302	1.292	453.298	712.0	TrialHappiness	Mixed
81.0	3	456.018	4.012	1526.666	-4.0	-4.0	29.1223	7.695	955.0	0.4	Certain	-11.43	2.9	3923.75	Yes		14.327293318233302				ISIRate	Mixed
	3	463.741	0.028	1534.389				3.0													CurrentEarnings	
	3	466.767	0.026	1537.415				-0.001								{SPACE}		2.925	469.692		Goodbye	
