trial_number	block	onset	onset_delay	onset_unadjusted	amount_change	certain_amount	current_amount	duration	mood_target	multiplier	outcome	outcome1_amount	outcome2_amount	question_duration	rating	response	rpe	rt	rt_time	slider_response	trial_phase	trial_type
	0	-61.337	0.013	18.589				-0.001								{SPACE}		24.582	-36.755		Welcome	
	0	-36.738	0.017	43.188				5.0													LifeHappyPreview	
	0	-31.707	0.031	48.219				3.954												408.0	LifeHappiness	
	0	-19.754	0.018	60.172				4.0													BlockHappyPreview	
	0	-15.742	0.012	64.184				1.778												416.0	BlockStartHappiness	
	0	-1.918	0.021	78.008				-0.001								5.0		1.917	-0.001		ScanWait	
	1	0.021	0.021	79.947				10.0													GetReady	
1.0	1	10.051	0.03	89.977	11.9	1.37	11.4875	3.0	955.0	3.6	Outcome1	11.9	2.74	0.0	No	2.0	9.156285390713482	1.152	11.203		GetAnswer	Loss
1.0	1	11.222	0.019	91.148	11.9	1.37	11.4875	4.0	955.0	3.6	Outcome1	11.9	2.74	0.0	No		9.156285390713482				ShowChoice	Loss
1.0	1	15.234	0.012	95.16	11.9	1.37	11.4875	1.0	955.0	3.6	Outcome1	11.9	2.74	0.0	No		9.156285390713482				ShowResult	Loss
1.0	1	16.253	0.019	96.179	11.9	1.37	11.4875	2.431	955.0	3.6	Outcome1	11.9	2.74	0.0	No		9.156285390713482				ISITrial	Loss
2.0	1	18.711	0.027	98.637	-3.0	-3.0	11.1125	3.0	955.0	0.66	Certain	-8.47	1.3	0.0	No	4.0	9.766704416761039	1.873	20.584		GetAnswer	Mixed
2.0	1	20.6	0.016	100.526	-3.0	-3.0	11.1125	4.0	955.0	0.66	Certain	-8.47	1.3	0.0	No		9.766704416761039				ShowChoice	Mixed
2.0	1	24.612	0.012	104.538	-3.0	-3.0	11.1125	1.0	955.0	0.66	Certain	-8.47	1.3	0.0	No		9.766704416761039				ShowResult	Mixed
2.0	1	25.631	0.019	105.557	-3.0	-3.0	11.1125	4.568	955.0	0.66	Certain	-8.47	1.3	0.0	No		9.766704416761039				ISITrial	Mixed
3.0	1	30.228	0.029	110.154	13.3	1.46	12.775	3.0	955.0	2.48	Outcome2	2.92	13.3	2868.0	Yes	2.0	10.3771234428086	1.383	31.611		GetAnswer	Loss
3.0	1	31.632	0.021	111.558	13.3	1.46	12.775	4.0	955.0	2.48	Outcome2	2.92	13.3	2868.0	Yes		10.3771234428086				ShowChoice	Loss
3.0	1	35.644	0.012	115.57	13.3	1.46	12.775	1.0	955.0	2.48	Outcome2	2.92	13.3	2868.0	Yes		10.3771234428086				ShowResult	Loss
3.0	1	36.664	0.02	116.59	13.3	1.46	12.775	3.243	955.0	2.48	Outcome2	2.92	13.3	2868.0	Yes		10.3771234428086				ISITrial	Loss
3.0	1	42.816	0.024	122.742	13.3	1.46	12.775	3.083	955.0	2.48	Outcome2	2.92	13.3	2868.0	Yes		10.3771234428086			424.0	TrialHappiness	Loss
3.0	1	46.828	4.012	126.754	13.3	1.46	12.775	3.472	955.0	2.48	Outcome2	2.92	13.3	2868.0	Yes		10.3771234428086				ISIRate	Loss
4.0	1	50.322	0.022	130.248	-3.0	-3.0	12.4	3.0	955.0	0.2	Certain	-8.35	2.5	0.0	No	4.0	10.8516421291053	1.636	51.958		GetAnswer	Mixed
4.0	1	51.977	0.019	131.903	-3.0	-3.0	12.4	4.0	955.0	0.2	Certain	-8.35	2.5	0.0	No		10.8516421291053				ShowChoice	Mixed
4.0	1	55.989	0.012	135.915	-3.0	-3.0	12.4	1.0	955.0	0.2	Certain	-8.35	2.5	0.0	No		10.8516421291053				ShowResult	Mixed
4.0	1	57.008	0.019	136.934	-3.0	-3.0	12.4	2.011	955.0	0.2	Certain	-8.35	2.5	0.0	No		10.8516421291053				ISITrial	Mixed
5.0	1	59.048	0.029	138.974	5.34	2.67	13.0675	3.0	955.0	3.16	Outcome2	7.7	5.34	2582.5	Yes	2.0	-2.35758776896942	1.168	60.216		GetAnswer	Gain
5.0	1	60.235	0.019	140.161	5.34	2.67	13.0675	4.0	955.0	3.16	Outcome2	7.7	5.34	2582.5	Yes		-2.35758776896942				ShowChoice	Gain
5.0	1	64.247	0.012	144.173	5.34	2.67	13.0675	1.0	955.0	3.16	Outcome2	7.7	5.34	2582.5	Yes		-2.35758776896942				ShowResult	Gain
5.0	1	65.266	0.019	145.192	5.34	2.67	13.0675	5.129	955.0	3.16	Outcome2	7.7	5.34	2582.5	Yes		-2.35758776896942				ISITrial	Gain
5.0	1	73.023	0.026	152.949	5.34	2.67	13.0675	2.989	955.0	3.16	Outcome2	7.7	5.34	2582.5	Yes		-2.35758776896942			432.0	TrialHappiness	Gain
5.0	1	77.035	4.012	156.961	5.34	2.67	13.0675	2.33	955.0	3.16	Outcome2	7.7	5.34	2582.5	Yes		-2.35758776896942				ISIRate	Gain
6.0	1	79.392	0.027	159.318	12.9	0.49	14.68	3.0	955.0	2.0	Outcome1	12.9	0.98	0.0	No	2.0	11.918459796149499	1.53	80.922		GetAnswer	Loss
6.0	1	80.946	0.024	160.872	12.9	0.49	14.68	4.0	955.0	2.0	Outcome1	12.9	0.98	0.0	No		11.918459796149499				ShowChoice	Loss
6.0	1	84.958	0.012	164.884	12.9	0.49	14.68	1.0	955.0	2.0	Outcome1	12.9	0.98	0.0	No		11.918459796149499				ShowResult	Loss
6.0	1	85.978	0.02	165.904	12.9	0.49	14.68	6.232	955.0	2.0	Outcome1	12.9	0.98	0.0	No		11.918459796149499				ISITrial	Loss
7.0	1	92.23	0.02	172.156	-3.0	-3.0	14.305	3.0	955.0	0.66	Certain	3.3	-9.21	0.0	No	4.0	12.510758776896902	1.816	94.046		GetAnswer	Mixed
7.0	1	94.069	0.023	173.995	-3.0	-3.0	14.305	4.0	955.0	0.66	Certain	3.3	-9.21	0.0	No		12.510758776896902				ShowChoice	Mixed
7.0	1	98.081	0.012	178.007	-3.0	-3.0	14.305	1.0	955.0	0.66	Certain	3.3	-9.21	0.0	No		12.510758776896902				ShowResult	Mixed
7.0	1	99.101	0.02	179.027	-3.0	-3.0	14.305	2.305	955.0	0.66	Certain	3.3	-9.21	0.0	No		12.510758776896902				ISITrial	Mixed
8.0	1	101.424	0.018	181.35	10.9	-1.1	15.6675	3.0	955.0	2.0	Outcome2	-2.2	10.9	3112.5	Yes	2.0	13.1030577576444	1.675	103.099		GetAnswer	Loss
8.0	1	103.113	0.014	183.039	10.9	-1.1	15.6675	4.0	955.0	2.0	Outcome2	-2.2	10.9	3112.5	Yes		13.1030577576444				ShowChoice	Loss
8.0	1	107.125	0.012	187.051	10.9	-1.1	15.6675	1.0	955.0	2.0	Outcome2	-2.2	10.9	3112.5	Yes		13.1030577576444				ShowResult	Loss
8.0	1	108.144	0.019	188.07	10.9	-1.1	15.6675	3.506	955.0	2.0	Outcome2	-2.2	10.9	3112.5	Yes		13.1030577576444				ISITrial	Loss
8.0	1	114.814	0.03	194.74	10.9	-1.1	15.6675	0.977	955.0	2.0	Outcome2	-2.2	10.9	3112.5	Yes		13.1030577576444			448.0	TrialHappiness	Loss
8.0	1	118.826	4.012	198.752	10.9	-1.1	15.6675	4.45	955.0	2.0	Outcome2	-2.2	10.9	3112.5	Yes		13.1030577576444				ISIRate	Loss
9.0	1	123.306	0.03	203.232	-1.0	-1.0	15.5425	3.0	955.0	2.8	Certain	-7.92	5.5	0.0	No	4.0	13.4235560588901	1.586	124.892		GetAnswer	Gain
9.0	1	124.911	0.019	204.837	-1.0	-1.0	15.5425	4.0	955.0	2.8	Certain	-7.92	5.5	0.0	No		13.4235560588901				ShowChoice	Gain
9.0	1	128.923	0.012	208.849	-1.0	-1.0	15.5425	1.0	955.0	2.8	Certain	-7.92	5.5	0.0	No		13.4235560588901				ShowResult	Gain
9.0	1	129.943	0.02	209.869	-1.0	-1.0	15.5425	2.0	955.0	2.8	Certain	-7.92	5.5	0.0	No		13.4235560588901				ISITrial	Gain
10.0	1	131.965	0.022	211.891	-1.0	-1.0	15.4175	3.0	955.0	2.48	Certain	5.3	-8.7	4000.0	Yes	4.0	13.997734994337499	1.734	133.699		GetAnswer	Gain
10.0	1	133.721	0.022	213.647	-1.0	-1.0	15.4175	4.0	955.0	2.48	Certain	5.3	-8.7	4000.0	Yes		13.997734994337499				ShowChoice	Gain
10.0	1	137.733	0.012	217.659	-1.0	-1.0	15.4175	1.0	955.0	2.48	Certain	5.3	-8.7	4000.0	Yes		13.997734994337499				ShowResult	Gain
10.0	1	138.752	0.019	218.678	-1.0	-1.0	15.4175	2.0	955.0	2.48	Certain	5.3	-8.7	4000.0	Yes		13.997734994337499				ISITrial	Gain
10.0	1	144.804	0.029	224.73	-1.0	-1.0	15.4175	0.759	955.0	2.48	Certain	5.3	-8.7	4000.0	Yes		13.997734994337499			456.0	TrialHappiness	Gain
10.0	1	148.816	4.012	228.742	-1.0	-1.0	15.4175	8.0	955.0	2.48	Certain	5.3	-8.7	4000.0	Yes		13.997734994337499				ISIRate	Gain
11.0	1	156.84	0.024	236.766	-1.02	0.0	15.29	3.0	955.0	0.82	Outcome2	1.5	-1.02	0.0	No	2.0	-2.52161192902982	1.378	158.218		GetAnswer	Mixed
11.0	1	158.244	0.026	238.17	-1.02	0.0	15.29	4.0	955.0	0.82	Outcome2	1.5	-1.02	0.0	No		-2.52161192902982				ShowChoice	Mixed
11.0	1	162.256	0.012	242.182	-1.02	0.0	15.29	1.0	955.0	0.82	Outcome2	1.5	-1.02	0.0	No		-2.52161192902982				ShowResult	Mixed
11.0	1	163.276	0.02	243.202	-1.02	0.0	15.29	3.324	955.0	0.82	Outcome2	1.5	-1.02	0.0	No		-2.52161192902982				ISITrial	Mixed
12.0	1	166.619	0.019	246.545	11.1	-1.95	16.6775	3.0	955.0	2.22	Outcome1	11.1	-3.9	2618.75	Yes	2.0	15.001132502831302	1.283	167.902		GetAnswer	Loss
12.0	1	167.923	0.021	247.849	11.1	-1.95	16.6775	4.0	955.0	2.22	Outcome1	11.1	-3.9	2618.75	Yes		15.001132502831302				ShowChoice	Loss
12.0	1	171.935	0.012	251.861	11.1	-1.95	16.6775	1.0	955.0	2.22	Outcome1	11.1	-3.9	2618.75	Yes		15.001132502831302				ShowResult	Loss
12.0	1	172.955	0.02	252.881	11.1	-1.95	16.6775	6.642	955.0	2.22	Outcome1	11.1	-3.9	2618.75	Yes		15.001132502831302				ISITrial	Loss
12.0	1	182.249	0.022	262.175	11.1	-1.95	16.6775	2.538	955.0	2.22	Outcome1	11.1	-3.9	2618.75	Yes		15.001132502831302			452.0	TrialHappiness	Loss
12.0	1	186.261	4.012	266.187	11.1	-1.95	16.6775	2.475	955.0	2.22	Outcome1	11.1	-3.9	2618.75	Yes		15.001132502831302				ISIRate	Loss
13.0	1	188.752	0.016	268.678	13.5	-1.06	18.365	3.0	955.0	2.8	Outcome1	13.5	-2.13	0.0	No	2.0	15.634201585504	1.218	189.97		GetAnswer	Loss
13.0	1	189.989	0.019	269.915	13.5	-1.06	18.365	4.0	955.0	2.8	Outcome1	13.5	-2.13	0.0	No		15.634201585504				ShowChoice	Loss
13.0	1	194.001	0.012	273.927	13.5	-1.06	18.365	1.0	955.0	2.8	Outcome1	13.5	-2.13	0.0	No		15.634201585504				ShowResult	Loss
13.0	1	195.02	0.019	274.946	13.5	-1.06	18.365	3.48	955.0	2.8	Outcome1	13.5	-2.13	0.0	No		15.634201585504				ISITrial	Loss
14.0	1	198.531	0.031	278.457	10.7	2.0	19.7025	3.0	955.0	1.82	Outcome2	-5.5	10.7	0.0	No	2.0	16.2038505096263	1.211	199.742		GetAnswer	Loss
14.0	1	199.768	0.026	279.694	10.7	2.0	19.7025	4.0	955.0	1.82	Outcome2	-5.5	10.7	0.0	No		16.2038505096263				ShowChoice	Loss
14.0	1	203.78	0.012	283.706	10.7	2.0	19.7025	1.0	955.0	1.82	Outcome2	-5.5	10.7	0.0	No		16.2038505096263				ShowResult	Loss
14.0	1	204.8	0.02	284.726	10.7	2.0	19.7025	5.019	955.0	1.82	Outcome2	-5.5	10.7	0.0	No		16.2038505096263				ISITrial	Loss
15.0	1	209.848	0.029	289.774	1.17	2.0	19.8488	3.0	955.0	1.2	Outcome1	1.17	3.9	3348.5	Yes	2.0	-2.72697244243111	1.378	211.226		GetAnswer	Mixed
15.0	1	211.252	0.026	291.178	1.17	2.0	19.8488	4.0	955.0	1.2	Outcome1	1.17	3.9	3348.5	Yes		-2.72697244243111				ShowChoice	Mixed
15.0	1	215.264	0.012	295.19	1.17	2.0	19.8488	1.0	955.0	1.2	Outcome1	1.17	3.9	3348.5	Yes		-2.72697244243111				ShowResult	Mixed
15.0	1	216.284	0.02	296.21	1.17	2.0	19.8488	7.614	955.0	1.2	Outcome1	1.17	3.9	3348.5	Yes		-2.72697244243111				ISITrial	Mixed
15.0	1	227.3	0.029	307.226	1.17	2.0	19.8488	1.027	955.0	1.2	Outcome1	1.17	3.9	3348.5	Yes		-2.72697244243111			456.0	TrialHappiness	Mixed
15.0	1	231.312	4.012	311.238	1.17	2.0	19.8488	5.394	955.0	1.2	Outcome1	1.17	3.9	3348.5	Yes		-2.72697244243111				ISIRate	Mixed
16.0	1	236.728	0.022	316.654	-2.0	-2.0	19.5988	3.0	955.0	4.2	Certain	6.1	-11.18	0.0	No	4.0	17.2751981879955	1.782	238.51		GetAnswer	Gain
16.0	1	238.534	0.024	318.46	-2.0	-2.0	19.5988	4.0	955.0	4.2	Certain	6.1	-11.18	0.0	No		17.2751981879955				ShowChoice	Gain
16.0	1	242.546	0.012	322.472	-2.0	-2.0	19.5988	1.0	955.0	4.2	Certain	6.1	-11.18	0.0	No		17.2751981879955				ShowResult	Gain
16.0	1	243.565	0.019	323.491	-2.0	-2.0	19.5988	3.008	955.0	4.2	Certain	6.1	-11.18	0.0	No		17.2751981879955				ISITrial	Gain
17.0	1	246.591	0.018	326.517	-10.0	-10.0	18.3488	3.0	955.0	0.3	Certain	-19.14	-1.3	3041.5	Yes	4.0	17.840317100792802	2.007	248.598		GetAnswer	Mixed
17.0	1	248.614	0.016	328.54	-10.0	-10.0	18.3488	4.0	955.0	0.3	Certain	-19.14	-1.3	3041.5	Yes		17.840317100792802				ShowChoice	Mixed
17.0	1	252.626	0.012	332.552	-10.0	-10.0	18.3488	1.0	955.0	0.3	Certain	-19.14	-1.3	3041.5	Yes		17.840317100792802				ShowResult	Mixed
17.0	1	253.646	0.02	333.572	-10.0	-10.0	18.3488	3.566	955.0	0.3	Certain	-19.14	-1.3	3041.5	Yes		17.840317100792802				ISITrial	Mixed
17.0	1	260.282	0.017	340.208	-10.0	-10.0	18.3488	2.26	955.0	0.3	Certain	-19.14	-1.3	3041.5	Yes		17.840317100792802			452.0	TrialHappiness	Mixed
17.0	1	264.294	4.012	344.22	-10.0	-10.0	18.3488	4.166	955.0	0.3	Certain	-19.14	-1.3	3041.5	Yes		17.840317100792802				ISIRate	Mixed
18.0	1	268.49	0.03	348.416	9.7	0.0	19.5613	3.0	955.0	3.16	Outcome2	-8.77	9.7	0.0	No	2.0	18.4733861834655	1.314	269.804		GetAnswer	Gain
18.0	1	269.827	0.023	349.753	9.7	0.0	19.5613	4.0	955.0	3.16	Outcome2	-8.77	9.7	0.0	No		18.4733861834655				ShowChoice	Gain
18.0	1	273.839	0.012	353.765	9.7	0.0	19.5613	1.0	955.0	3.16	Outcome2	-8.77	9.7	0.0	No		18.4733861834655				ShowResult	Gain
18.0	1	274.859	0.02	354.785	9.7	0.0	19.5613	6.787	955.0	3.16	Outcome2	-8.77	9.7	0.0	No		18.4733861834655				ISITrial	Gain
19.0	1	281.663	0.017	361.589	6.58	3.29	20.3838	3.0	955.0	2.8	Outcome2	9.5	6.58	0.0	No	2.0	-2.91610041525104	1.23	282.893		GetAnswer	Gain
19.0	1	282.916	0.023	362.842	6.58	3.29	20.3838	4.0	955.0	2.8	Outcome2	9.5	6.58	0.0	No		-2.91610041525104				ShowChoice	Gain
19.0	1	286.928	0.012	366.854	6.58	3.29	20.3838	1.0	955.0	2.8	Outcome2	9.5	6.58	0.0	No		-2.91610041525104				ShowResult	Gain
19.0	1	287.948	0.02	367.874	6.58	3.29	20.3838	2.0	955.0	2.8	Outcome2	9.5	6.58	0.0	No		-2.91610041525104				ISITrial	Gain
20.0	1	289.971	0.023	369.897	3.54	1.77	20.8263	3.0	955.0	1.68	Outcome2	6.5	3.54	2921.25	Yes	2.0	-2.9635711589279	1.054	291.025		GetAnswer	Gain
20.0	1	291.041	0.016	370.967	3.54	1.77	20.8263	4.0	955.0	1.68	Outcome2	6.5	3.54	2921.25	Yes		-2.9635711589279				ShowChoice	Gain
20.0	1	295.053	0.012	374.979	3.54	1.77	20.8263	1.0	955.0	1.68	Outcome2	6.5	3.54	2921.25	Yes		-2.9635711589279				ShowResult	Gain
20.0	1	296.072	0.019	375.998	3.54	1.77	20.8263	8.0	955.0	1.68	Outcome2	6.5	3.54	2921.25	Yes		-2.9635711589279				ISITrial	Gain
20.0	1	307.038	0.021	386.964	3.54	1.77	20.8263	0.811	955.0	1.68	Outcome2	6.5	3.54	2921.25	Yes		-2.9635711589279			456.0	TrialHappiness	Gain
20.0	1	311.05	4.012	390.976	3.54	1.77	20.8263	3.685	955.0	1.68	Outcome2	6.5	3.54	2921.25	Yes		-2.9635711589279				ISIRate	Gain
21.0	1	314.761	0.026	394.687	1.0	1.0	20.9513	3.0	955.0	2.0	Certain	-0.69	2.3	0.0	No	4.0	-2.9948093620234104	1.717	316.478		GetAnswer	Mixed
21.0	1	316.5	0.022	396.426	1.0	1.0	20.9513	4.0	955.0	2.0	Certain	-0.69	2.3	0.0	No		-2.9948093620234104				ShowChoice	Mixed
21.0	1	320.512	0.012	400.438	1.0	1.0	20.9513	1.0	955.0	2.0	Certain	-0.69	2.3	0.0	No		-2.9948093620234104				ShowResult	Mixed
21.0	1	321.532	0.02	401.458	1.0	1.0	20.9513	3.555	955.0	2.0	Certain	-0.69	2.3	0.0	No		-2.9948093620234104				ISITrial	Mixed
22.0	1	325.109	0.022	405.035	1.0	1.0	21.0763	3.0	955.0	0.3	Certain	-0.34	2.7	3219.5	Yes	4.0	-3.0419026047565096	1.302	326.411		GetAnswer	Mixed
22.0	1	326.43	0.019	406.356	1.0	1.0	21.0763	4.0	955.0	0.3	Certain	-0.34	2.7	3219.5	Yes		-3.0419026047565096				ShowChoice	Mixed
22.0	1	330.442	0.012	410.368	1.0	1.0	21.0763	1.0	955.0	0.3	Certain	-0.34	2.7	3219.5	Yes		-3.0419026047565096				ShowResult	Mixed
22.0	1	331.461	0.019	411.387	1.0	1.0	21.0763	6.793	955.0	0.3	Certain	-0.34	2.7	3219.5	Yes		-3.0419026047565096				ISITrial	Mixed
22.0	1	341.525	0.023	421.451	1.0	1.0	21.0763	2.753	955.0	0.3	Certain	-0.34	2.7	3219.5	Yes		-3.0419026047565096			492.0	TrialHappiness	Mixed
22.0	1	345.537	4.012	425.463	1.0	1.0	21.0763	4.878	955.0	0.3	Certain	-0.34	2.7	3219.5	Yes		-3.0419026047565096				ISIRate	Mixed
23.0	1	350.435	0.02	430.361	9.76	4.88	22.2963	3.0	955.0	1.82	Outcome1	9.76	12.7	0.0	No	2.0	-2.94290298225746	1.162	351.597		GetAnswer	Loss
23.0	1	351.621	0.024	431.547	9.76	4.88	22.2963	4.0	955.0	1.82	Outcome1	9.76	12.7	0.0	No		-2.94290298225746				ShowChoice	Loss
23.0	1	355.633	0.012	435.559	9.76	4.88	22.2963	1.0	955.0	1.82	Outcome1	9.76	12.7	0.0	No		-2.94290298225746				ShowResult	Loss
23.0	1	356.653	0.02	436.579	9.76	4.88	22.2963	8.0	955.0	1.82	Outcome1	9.76	12.7	0.0	No		-2.94290298225746				ISITrial	Loss
24.0	1	364.677	0.024	444.603	5.91	2.96	23.0351	3.0	955.0	2.0	Outcome2	8.9	5.91	3255.0	Yes	2.0	-2.98659871649679	1.078	365.755		GetAnswer	Gain
24.0	1	365.78	0.025	445.706	5.91	2.96	23.0351	4.0	955.0	2.0	Outcome2	8.9	5.91	3255.0	Yes		-2.98659871649679				ShowChoice	Gain
24.0	1	369.792	0.012	449.718	5.91	2.96	23.0351	1.0	955.0	2.0	Outcome2	8.9	5.91	3255.0	Yes		-2.98659871649679				ShowResult	Gain
24.0	1	370.812	0.02	450.738	5.91	2.96	23.0351	2.0	955.0	2.0	Outcome2	8.9	5.91	3255.0	Yes		-2.98659871649679				ISITrial	Gain
24.0	1	376.111	0.021	456.037	5.91	2.96	23.0351	1.626	955.0	2.0	Outcome2	8.9	5.91	3255.0	Yes		-2.98659871649679			512.0	TrialHappiness	Gain
24.0	1	380.123	4.012	460.049	5.91	2.96	23.0351	5.02	955.0	2.0	Outcome2	8.9	5.91	3255.0	Yes		-2.98659871649679				ISIRate	Gain
25.0	1	385.172	0.029	465.098	-4.0	-4.0	22.5351	3.0	955.0	2.0	Certain	-14.44	6.9	0.0	No	4.0	21.3420158550396	2.012	387.184		GetAnswer	Gain
25.0	1	387.211	0.027	467.137	-4.0	-4.0	22.5351	4.0	955.0	2.0	Certain	-14.44	6.9	0.0	No		21.3420158550396				ShowChoice	Gain
25.0	1	391.223	0.012	471.149	-4.0	-4.0	22.5351	1.0	955.0	2.0	Certain	-14.44	6.9	0.0	No		21.3420158550396				ShowResult	Gain
25.0	1	392.243	0.02	472.169	-4.0	-4.0	22.5351	3.749	955.0	2.0	Certain	-14.44	6.9	0.0	No		21.3420158550396				ISITrial	Gain
26.0	1	396.021	0.029	475.947	7.31	3.66	23.4489	3.0	955.0	5.0	Outcome1	7.31	10.3	0.0	No	2.0	-2.99093997734994	1.364	397.385		GetAnswer	Gain
26.0	1	397.408	0.023	477.334	7.31	3.66	23.4489	4.0	955.0	5.0	Outcome1	7.31	10.3	0.0	No		-2.99093997734994				ShowChoice	Gain
26.0	1	401.42	0.012	481.346	7.31	3.66	23.4489	1.0	955.0	5.0	Outcome1	7.31	10.3	0.0	No		-2.99093997734994				ShowResult	Gain
26.0	1	402.44	0.02	482.366	7.31	3.66	23.4489	7.834	955.0	5.0	Outcome1	7.31	10.3	0.0	No		-2.99093997734994				ISITrial	Gain
27.0	1	410.297	0.023	490.223	12.5	1.0	25.0114	3.0	955.0	1.68	Outcome2	-9.85	12.5	2549.75	Yes	2.0	22.345413363533396	1.583	411.88		GetAnswer	Loss
27.0	1	411.901	0.021	491.827	12.5	1.0	25.0114	4.0	955.0	1.68	Outcome2	-9.85	12.5	2549.75	Yes		22.345413363533396				ShowChoice	Loss
27.0	1	415.913	0.012	495.839	12.5	1.0	25.0114	1.0	955.0	1.68	Outcome2	-9.85	12.5	2549.75	Yes		22.345413363533396				ShowResult	Loss
27.0	1	416.933	0.02	496.859	12.5	1.0	25.0114	4.225	955.0	1.68	Outcome2	-9.85	12.5	2549.75	Yes		22.345413363533396				ISITrial	Loss
27.0	1	423.754	0.025	503.68	12.5	1.0	25.0114	1.629	955.0	1.68	Outcome2	-9.85	12.5	2549.75	Yes		22.345413363533396			492.0	TrialHappiness	Loss
27.0	1	427.766	4.012	507.692	12.5	1.0	25.0114	2.199	955.0	1.68	Outcome2	-9.85	12.5	2549.75	Yes		22.345413363533396				ISIRate	Loss
	1	429.989	0.024	509.915				-0.001								{SPACE}		65.738	495.727		Rest	
	1	495.752	0.025	575.678				4.0													BlockHappyPreview	
	1	499.764	0.012	579.69				2.753												464.0	BlockStartHappiness	
	1	507.604	0.021	587.53				-0.001								5.0		1.337	508.941		ScanWait	
	2	0.017	0.017	588.884				10.0													GetReady	
28.0	2	10.047	0.03	598.914	-1.6	2.0	24.8114	3.0	70.0	2.22	Outcome2	5.1	-1.6	0.0	No	2.0	-6.70068027210884	1.383	11.43		GetAnswer	Gain
28.0	2	11.451	0.021	600.318	-1.6	2.0	24.8114	4.0	70.0	2.22	Outcome2	5.1	-1.6	0.0	No		-6.70068027210884				ShowChoice	Gain
28.0	2	15.463	0.012	604.33	-1.6	2.0	24.8114	1.0	70.0	2.22	Outcome2	5.1	-1.6	0.0	No		-6.70068027210884				ShowResult	Gain
28.0	2	16.483	0.02	605.35	-1.6	2.0	24.8114	3.575	70.0	2.22	Outcome2	5.1	-1.6	0.0	No		-6.70068027210884				ISITrial	Gain
29.0	2	20.077	0.019	608.944	-2.0	-2.0	24.5614	3.0	70.0	0.52	Certain	-6.05	1.1	3529.0	Yes	4.0	-7.14739229024943	1.634	21.711		GetAnswer	Mixed
29.0	2	21.732	0.021	610.599	-2.0	-2.0	24.5614	4.0	70.0	0.52	Certain	-6.05	1.1	3529.0	Yes		-7.14739229024943				ShowChoice	Mixed
29.0	2	25.744	0.012	614.611	-2.0	-2.0	24.5614	1.0	70.0	0.52	Certain	-6.05	1.1	3529.0	Yes		-7.14739229024943				ShowResult	Mixed
29.0	2	26.764	0.02	615.631	-2.0	-2.0	24.5614	3.955	70.0	0.52	Certain	-6.05	1.1	3529.0	Yes		-7.14739229024943				ISITrial	Mixed
29.0	2	34.286	0.015	623.153	-2.0	-2.0	24.5614	0.81	70.0	0.52	Certain	-6.05	1.1	3529.0	Yes	4{-4}	-7.14739229024943	0.81	35.096	480.0	TrialHappiness	Mixed
29.0	2	38.298	4.012	627.165	-2.0	-2.0	24.5614	6.116	70.0	0.52	Certain	-6.05	1.1	3529.0	Yes		-7.14739229024943				ISIRate	Mixed
30.0	2	44.433	0.019	633.3	0.83	0.42	24.6652	3.0	70.0	1.82	Outcome1	0.83	8.7	0.0	No	2.0	-7.8662131519274405	1.412	45.845		GetAnswer	Gain
30.0	2	45.871	0.026	634.738	0.83	0.42	24.6652	4.0	70.0	1.82	Outcome1	0.83	8.7	0.0	No		-7.8662131519274405				ShowChoice	Gain
30.0	2	49.883	0.012	638.75	0.83	0.42	24.6652	1.0	70.0	1.82	Outcome1	0.83	8.7	0.0	No		-7.8662131519274405				ShowResult	Gain
30.0	2	50.902	0.019	639.769	0.83	0.42	24.6652	4.453	70.0	1.82	Outcome1	0.83	8.7	0.0	No		-7.8662131519274405				ISITrial	Gain
31.0	2	55.382	0.027	644.249	2.12	1.0	24.9302	3.0	70.0	1.68	Outcome2	0.34	2.12	2503.25	Yes	2.0	1.77891156462585	1.555	56.937		GetAnswer	Gain
31.0	2	56.954	0.017	645.821	2.12	1.0	24.9302	4.0	70.0	1.68	Outcome2	0.34	2.12	2503.25	Yes		1.77891156462585				ShowChoice	Gain
31.0	2	60.966	0.012	649.833	2.12	1.0	24.9302	1.0	70.0	1.68	Outcome2	0.34	2.12	2503.25	Yes		1.77891156462585				ShowResult	Gain
31.0	2	61.985	0.019	650.852	2.12	1.0	24.9302	4.786	70.0	1.68	Outcome2	0.34	2.12	2503.25	Yes		1.77891156462585				ISITrial	Gain
31.0	2	69.307	0.021	658.174	2.12	1.0	24.9302	1.724	70.0	1.68	Outcome2	0.34	2.12	2503.25	Yes		1.77891156462585			472.0	TrialHappiness	Gain
31.0	2	73.319	4.012	662.186	2.12	1.0	24.9302	2.013	70.0	1.68	Outcome2	0.34	2.12	2503.25	Yes		1.77891156462585				ISIRate	Gain
32.0	2	75.359	0.027	664.226	-5.0	-5.0	24.3052	3.0	70.0	0.4	Certain	-1.1	-9.76	0.0	No	4.0	-8.65986394557823	2.031	77.39		GetAnswer	Mixed
32.0	2	77.415	0.025	666.282	-5.0	-5.0	24.3052	4.0	70.0	0.4	Certain	-1.1	-9.76	0.0	No		-8.65986394557823				ShowChoice	Mixed
32.0	2	81.427	0.012	670.294	-5.0	-5.0	24.3052	1.0	70.0	0.4	Certain	-1.1	-9.76	0.0	No		-8.65986394557823				ShowResult	Mixed
32.0	2	82.447	0.02	671.314	-5.0	-5.0	24.3052	2.0	70.0	0.4	Certain	-1.1	-9.76	0.0	No		-8.65986394557823				ISITrial	Mixed
33.0	2	84.469	0.022	673.336	1.58	0.0	24.5027	3.0	70.0	5.0	Outcome1	1.58	-0.24	0.0	No	2.0	1.8231292517006799	2.564	87.033		GetAnswer	Gain
33.0	2	87.06	0.027	675.927	1.58	0.0	24.5027	4.0	70.0	5.0	Outcome1	1.58	-0.24	0.0	No		1.8231292517006799				ShowChoice	Gain
33.0	2	91.072	0.012	679.939	1.58	0.0	24.5027	1.0	70.0	5.0	Outcome1	1.58	-0.24	0.0	No		1.8231292517006799				ShowResult	Gain
33.0	2	92.092	0.02	680.959	1.58	0.0	24.5027	5.099	70.0	5.0	Outcome1	1.58	-0.24	0.0	No		1.8231292517006799				ISITrial	Gain
34.0	2	97.207	0.016	686.074	-6.67	-2.0	23.6689	3.0	70.0	0.4	Outcome1	-6.67	2.9	3231.5	Yes	2.0	-9.571428571428571	2.23	99.437		GetAnswer	Mixed
34.0	2	99.464	0.027	688.331	-6.67	-2.0	23.6689	4.0	70.0	0.4	Outcome1	-6.67	2.9	3231.5	Yes		-9.571428571428571				ShowChoice	Mixed
34.0	2	103.476	0.012	692.343	-6.67	-2.0	23.6689	1.0	70.0	0.4	Outcome1	-6.67	2.9	3231.5	Yes		-9.571428571428571				ShowResult	Mixed
34.0	2	104.496	0.02	693.363	-6.67	-2.0	23.6689	4.784	70.0	0.4	Outcome1	-6.67	2.9	3231.5	Yes		-9.571428571428571				ISITrial	Mixed
34.0	2	112.553	0.028	701.42	-6.67	-2.0	23.6689	2.594	70.0	0.4	Outcome1	-6.67	2.9	3231.5	Yes	4{-4}4{-4}	-9.571428571428571	2.594	115.147	476.0	TrialHappiness	Mixed
34.0	2	116.565	4.012	705.432	-6.67	-2.0	23.6689	4.926	70.0	0.4	Outcome1	-6.67	2.9	3231.5	Yes		-9.571428571428571				ISIRate	Mixed
35.0	2	121.513	0.022	710.38	-1.0	-0.5	23.5439	3.0	70.0	2.22	Outcome1	-1.0	9.1	0.0	No	2.0	-10.095238095238098	1.475	122.988		GetAnswer	Gain
35.0	2	123.001	0.013	711.868	-1.0	-0.5	23.5439	4.0	70.0	2.22	Outcome1	-1.0	9.1	0.0	No		-10.095238095238098				ShowChoice	Gain
35.0	2	127.013	0.012	715.88	-1.0	-0.5	23.5439	1.0	70.0	2.22	Outcome1	-1.0	9.1	0.0	No		-10.095238095238098				ShowResult	Gain
35.0	2	128.033	0.02	716.9	-1.0	-0.5	23.5439	2.098	70.0	2.22	Outcome1	-1.0	9.1	0.0	No		-10.095238095238098				ISITrial	Gain
36.0	2	130.156	0.025	719.023	-8.46	-3.0	22.4864	3.0	70.0	1.5	Outcome2	2.1	-8.46	3335.75	Yes	2.0	-10.5555555555556	2.455	132.611		GetAnswer	Mixed
36.0	2	132.63	0.019	721.497	-8.46	-3.0	22.4864	4.0	70.0	1.5	Outcome2	2.1	-8.46	3335.75	Yes		-10.5555555555556				ShowChoice	Mixed
36.0	2	136.642	0.012	725.509	-8.46	-3.0	22.4864	1.0	70.0	1.5	Outcome2	2.1	-8.46	3335.75	Yes		-10.5555555555556				ShowResult	Mixed
36.0	2	137.661	0.019	726.528	-8.46	-3.0	22.4864	5.156	70.0	1.5	Outcome2	2.1	-8.46	3335.75	Yes		-10.5555555555556				ISITrial	Mixed
36.0	2	146.204	0.024	735.071	-8.46	-3.0	22.4864	0.958	70.0	1.5	Outcome2	2.1	-8.46	3335.75	Yes		-10.5555555555556			456.0	TrialHappiness	Mixed
36.0	2	150.216	4.012	739.083	-8.46	-3.0	22.4864	5.343	70.0	1.5	Outcome2	2.1	-8.46	3335.75	Yes		-10.5555555555556				ISIRate	Mixed
37.0	2	155.582	0.023	744.449	-3.0	-3.0	22.1114	3.0	70.0	1.2	Certain	1.9	-8.78	0.0	No	4.0	-10.675736961451198	1.945	157.527		GetAnswer	Mixed
37.0	2	157.537	0.01	746.404	-3.0	-3.0	22.1114	4.0	70.0	1.2	Certain	1.9	-8.78	0.0	No		-10.675736961451198				ShowChoice	Mixed
37.0	2	161.549	0.012	750.416	-3.0	-3.0	22.1114	1.0	70.0	1.2	Certain	1.9	-8.78	0.0	No		-10.675736961451198				ShowResult	Mixed
37.0	2	162.569	0.02	751.436	-3.0	-3.0	22.1114	3.598	70.0	1.2	Certain	1.9	-8.78	0.0	No		-10.675736961451198				ISITrial	Mixed
38.0	2	166.197	0.03	755.064	-5.0	-5.0	21.4864	3.0	70.0	1.2	Certain	-0.1	-11.21	0.0	No	4.0	-11.1133786848073	2.811	169.008		GetAnswer	Mixed
38.0	2	169.022	0.014	757.889	-5.0	-5.0	21.4864	4.0	70.0	1.2	Certain	-0.1	-11.21	0.0	No		-11.1133786848073				ShowChoice	Mixed
38.0	2	173.034	0.012	761.901	-5.0	-5.0	21.4864	1.0	70.0	1.2	Certain	-0.1	-11.21	0.0	No		-11.1133786848073				ShowResult	Mixed
38.0	2	174.053	0.019	762.92	-5.0	-5.0	21.4864	4.787	70.0	1.2	Certain	-0.1	-11.21	0.0	No		-11.1133786848073				ISITrial	Mixed
39.0	2	178.868	0.028	767.735	-3.45	2.0	21.0552	3.0	70.0	4.2	Outcome1	-3.45	8.1	2864.25	Yes	2.0	-11.551020408163302	1.868	180.736		GetAnswer	Gain
39.0	2	180.757	0.021	769.624	-3.45	2.0	21.0552	4.0	70.0	4.2	Outcome1	-3.45	8.1	2864.25	Yes		-11.551020408163302				ShowChoice	Gain
39.0	2	184.769	0.012	773.636	-3.45	2.0	21.0552	1.0	70.0	4.2	Outcome1	-3.45	8.1	2864.25	Yes		-11.551020408163302				ShowResult	Gain
39.0	2	185.788	0.019	774.655	-3.45	2.0	21.0552	2.348	70.0	4.2	Outcome1	-3.45	8.1	2864.25	Yes		-11.551020408163302				ISITrial	Gain
39.0	2	191.054	0.028	779.921	-3.45	2.0	21.0552	2.391	70.0	4.2	Outcome1	-3.45	8.1	2864.25	Yes		-11.551020408163302			388.0	TrialHappiness	Gain
39.0	2	195.066	4.012	783.933	-3.45	2.0	21.0552	3.457	70.0	4.2	Outcome1	-3.45	8.1	2864.25	Yes		-11.551020408163302				ISIRate	Gain
40.0	2	198.543	0.02	787.41	-4.13	1.0	20.539	3.0	70.0	1.82	Outcome2	6.7	-4.13	0.0	No	2.0	-10.8321995464853	1.734	200.277		GetAnswer	Gain
40.0	2	200.298	0.021	789.165	-4.13	1.0	20.539	4.0	70.0	1.82	Outcome2	6.7	-4.13	0.0	No		-10.8321995464853				ShowChoice	Gain
40.0	2	204.31	0.012	793.177	-4.13	1.0	20.539	1.0	70.0	1.82	Outcome2	6.7	-4.13	0.0	No		-10.8321995464853				ShowResult	Gain
40.0	2	205.33	0.02	794.197	-4.13	1.0	20.539	3.158	70.0	1.82	Outcome2	6.7	-4.13	0.0	No		-10.8321995464853				ISITrial	Gain
41.0	2	208.506	0.018	797.373	1.98	1.0	20.7865	3.0	70.0	3.6	Outcome1	1.98	0.21	4000.0	Yes	2.0	1.7739984882842	1.334	209.84		GetAnswer	Gain
41.0	2	209.86	0.02	798.727	1.98	1.0	20.7865	4.0	70.0	3.6	Outcome1	1.98	0.21	4000.0	Yes		1.7739984882842				ShowChoice	Gain
41.0	2	213.872	0.012	802.739	1.98	1.0	20.7865	1.0	70.0	3.6	Outcome1	1.98	0.21	4000.0	Yes		1.7739984882842				ShowResult	Gain
41.0	2	214.892	0.02	803.759	1.98	1.0	20.7865	4.506	70.0	3.6	Outcome1	1.98	0.21	4000.0	Yes		1.7739984882842				ISITrial	Gain
41.0	2	223.451	0.029	812.318	1.98	1.0	20.7865	2.949	70.0	3.6	Outcome1	1.98	0.21	4000.0	Yes		1.7739984882842			400.0	TrialHappiness	Gain
41.0	2	227.463	4.012	816.33	1.98	1.0	20.7865	8.0	70.0	3.6	Outcome1	1.98	0.21	4000.0	Yes		1.7739984882842				ISIRate	Gain
42.0	2	235.487	0.024	824.354	-6.0	-6.0	20.0365	3.0	70.0	1.5	Certain	0.1	-11.66	0.0	No	4.0	-11.7573696145125	1.621	237.108		GetAnswer	Mixed
42.0	2	237.125	0.017	825.992	-6.0	-6.0	20.0365	4.0	70.0	1.5	Certain	0.1	-11.66	0.0	No		-11.7573696145125				ShowChoice	Mixed
42.0	2	241.137	0.012	830.004	-6.0	-6.0	20.0365	1.0	70.0	1.5	Certain	0.1	-11.66	0.0	No		-11.7573696145125				ShowResult	Mixed
42.0	2	242.157	0.02	831.024	-6.0	-6.0	20.0365	6.248	70.0	1.5	Certain	0.1	-11.66	0.0	No		-11.7573696145125				ISITrial	Mixed
43.0	2	248.426	0.021	837.293	0.0	0.0	20.0365	3.0	70.0	3.16	Certain	-6.43	5.7	2775.75	Yes	4.0	-12.1315192743764	1.851	250.277		GetAnswer	Gain
43.0	2	250.298	0.021	839.165	0.0	0.0	20.0365	4.0	70.0	3.16	Certain	-6.43	5.7	2775.75	Yes		-12.1315192743764				ShowChoice	Gain
43.0	2	254.31	0.012	843.177	0.0	0.0	20.0365	1.0	70.0	3.16	Certain	-6.43	5.7	2775.75	Yes		-12.1315192743764				ShowResult	Gain
43.0	2	255.33	0.02	844.197	0.0	0.0	20.0365	4.596	70.0	3.16	Certain	-6.43	5.7	2775.75	Yes		-12.1315192743764				ISITrial	Gain
43.0	2	262.735	0.016	851.602	0.0	0.0	20.0365	2.1	70.0	3.16	Certain	-6.43	5.7	2775.75	Yes		-12.1315192743764			380.0	TrialHappiness	Gain
43.0	2	266.747	4.012	855.614	0.0	0.0	20.0365	3.103	70.0	3.16	Certain	-6.43	5.7	2775.75	Yes		-12.1315192743764				ISIRate	Gain
44.0	2	269.873	0.023	858.74	1.02	0.0	20.164	3.0	70.0	1.5	Outcome1	1.02	-0.81	0.0	No	2.0	1.8339002267573703	1.45	271.323		GetAnswer	Mixed
44.0	2	271.344	0.021	860.211	1.02	0.0	20.164	4.0	70.0	1.5	Outcome1	1.02	-0.81	0.0	No		1.8339002267573703				ShowChoice	Mixed
44.0	2	275.356	0.012	864.223	1.02	0.0	20.164	1.0	70.0	1.5	Outcome1	1.02	-0.81	0.0	No		1.8339002267573703				ShowResult	Mixed
44.0	2	276.376	0.02	865.243	1.02	0.0	20.164	2.42	70.0	1.5	Outcome1	1.02	-0.81	0.0	No		1.8339002267573703				ISITrial	Mixed
45.0	2	278.816	0.02	867.683	-1.02	-0.51	20.0365	3.0	70.0	2.8	Outcome1	-1.02	11.5	0.0	No	2.0	-12.5170068027211	1.594	280.41		GetAnswer	Loss
45.0	2	280.438	0.028	869.305	-1.02	-0.51	20.0365	4.0	70.0	2.8	Outcome1	-1.02	11.5	0.0	No		-12.5170068027211				ShowChoice	Loss
45.0	2	284.45	0.012	873.317	-1.02	-0.51	20.0365	1.0	70.0	2.8	Outcome1	-1.02	11.5	0.0	No		-12.5170068027211				ShowResult	Loss
45.0	2	285.47	0.02	874.337	-1.02	-0.51	20.0365	3.144	70.0	2.8	Outcome1	-1.02	11.5	0.0	No		-12.5170068027211				ISITrial	Loss
46.0	2	288.646	0.032	877.513	-5.37	1.0	19.3653	3.0	70.0	2.8	Outcome1	-5.37	7.5	3841.25	Yes	2.0	-12.8684807256236	1.435	290.081		GetAnswer	Gain
46.0	2	290.1	0.019	878.967	-5.37	1.0	19.3653	4.0	70.0	2.8	Outcome1	-5.37	7.5	3841.25	Yes		-12.8684807256236				ShowChoice	Gain
46.0	2	294.112	0.012	882.979	-5.37	1.0	19.3653	1.0	70.0	2.8	Outcome1	-5.37	7.5	3841.25	Yes		-12.8684807256236				ShowResult	Gain
46.0	2	295.132	0.02	883.999	-5.37	1.0	19.3653	2.246	70.0	2.8	Outcome1	-5.37	7.5	3841.25	Yes		-12.8684807256236				ISITrial	Gain
46.0	2	301.25	0.021	890.117	-5.37	1.0	19.3653	3.25	70.0	2.8	Outcome1	-5.37	7.5	3841.25	Yes	4{-4}4{-4}4{-4}	-12.8684807256236	3.25	304.5	408.0	TrialHappiness	Gain
46.0	2	305.262	4.012	894.129	-5.37	1.0	19.3653	7.365	70.0	2.8	Outcome1	-5.37	7.5	3841.25	Yes		-12.8684807256236				ISIRate	Gain
47.0	2	312.651	0.024	901.518	-4.4	2.0	18.8153	3.0	70.0	2.48	Outcome2	9.3	-4.4	0.0	No	2.0	-13.6961451247166	1.548	314.199		GetAnswer	Gain
47.0	2	314.222	0.023	903.089	-4.4	2.0	18.8153	4.0	70.0	2.48	Outcome2	9.3	-4.4	0.0	No		-13.6961451247166				ShowChoice	Gain
47.0	2	318.234	0.012	907.101	-4.4	2.0	18.8153	1.0	70.0	2.48	Outcome2	9.3	-4.4	0.0	No		-13.6961451247166				ShowResult	Gain
47.0	2	319.254	0.02	908.121	-4.4	2.0	18.8153	2.0	70.0	2.48	Outcome2	9.3	-4.4	0.0	No		-13.6961451247166				ISITrial	Gain
48.0	2	321.276	0.022	910.143	-14.98	-8.0	16.9428	3.0	70.0	0.52	Outcome1	-14.98	-0.9	2831.75	Yes	2.0	-14.079365079365099	2.442	323.718		GetAnswer	Mixed
48.0	2	323.734	0.016	912.601	-14.98	-8.0	16.9428	4.0	70.0	0.52	Outcome1	-14.98	-0.9	2831.75	Yes		-14.079365079365099				ShowChoice	Mixed
48.0	2	327.746	0.012	916.613	-14.98	-8.0	16.9428	1.0	70.0	0.52	Outcome1	-14.98	-0.9	2831.75	Yes		-14.079365079365099				ShowResult	Mixed
48.0	2	328.765	0.019	917.632	-14.98	-8.0	16.9428	3.692	70.0	0.52	Outcome1	-14.98	-0.9	2831.75	Yes		-14.079365079365099				ISITrial	Mixed
48.0	2	335.335	0.026	924.202	-14.98	-8.0	16.9428	1.478	70.0	0.52	Outcome1	-14.98	-0.9	2831.75	Yes		-14.079365079365099			352.0	TrialHappiness	Mixed
48.0	2	339.364	4.029	928.231	-14.98	-8.0	16.9428	3.327	70.0	0.52	Outcome1	-14.98	-0.9	2831.75	Yes		-14.079365079365099				ISIRate	Mixed
49.0	2	342.724	0.033	931.591	-1.21	-0.6	16.7916	3.0	70.0	5.0	Outcome2	12.3	-1.21	0.0	No	2.0	-13.5102040816327	1.352	344.076		GetAnswer	Loss
49.0	2	344.095	0.019	932.962	-1.21	-0.6	16.7916	4.0	70.0	5.0	Outcome2	12.3	-1.21	0.0	No		-13.5102040816327				ShowChoice	Loss
49.0	2	348.123	0.028	936.99	-1.21	-0.6	16.7916	1.0	70.0	5.0	Outcome2	12.3	-1.21	0.0	No		-13.5102040816327				ShowResult	Loss
49.0	2	349.143	0.02	938.01	-1.21	-0.6	16.7916	8.0	70.0	5.0	Outcome2	12.3	-1.21	0.0	No		-13.5102040816327				ISITrial	Loss
50.0	2	357.167	0.024	946.034	3.42	2.0	17.2191	3.0	70.0	3.16	Outcome1	3.42	1.52	3547.25	Yes	2.0	1.89852607709751	1.906	359.073		GetAnswer	Loss
50.0	2	359.089	0.016	947.956	3.42	2.0	17.2191	4.0	70.0	3.16	Outcome1	3.42	1.52	3547.25	Yes		1.89852607709751				ShowChoice	Loss
50.0	2	363.118	0.029	951.985	3.42	2.0	17.2191	1.0	70.0	3.16	Outcome1	3.42	1.52	3547.25	Yes		1.89852607709751				ShowResult	Loss
50.0	2	364.138	0.02	953.005	3.42	2.0	17.2191	7.537	70.0	3.16	Outcome1	3.42	1.52	3547.25	Yes		1.89852607709751				ISITrial	Loss
50.0	2	375.271	0.03	964.138	3.42	2.0	17.2191	0.791	70.0	3.16	Outcome1	3.42	1.52	3547.25	Yes		1.89852607709751			384.0	TrialHappiness	Loss
50.0	2	379.3	4.029	968.167	3.42	2.0	17.2191	6.189	70.0	3.16	Outcome1	3.42	1.52	3547.25	Yes		1.89852607709751				ISIRate	Loss
51.0	2	385.518	0.029	974.385	-0.18	-1.0	17.1966	3.0	70.0	0.66	Outcome1	-0.18	-2.24	0.0	No	2.0	2.0551776266062	2.182	387.7		GetAnswer	Mixed
51.0	2	387.725	0.024	976.592	-0.18	-1.0	17.1966	4.0	70.0	0.66	Outcome1	-0.18	-2.24	0.0	No		2.0551776266062				ShowChoice	Mixed
51.0	2	391.737	0.012	980.604	-0.18	-1.0	17.1966	1.0	70.0	0.66	Outcome1	-0.18	-2.24	0.0	No		2.0551776266062				ShowResult	Mixed
51.0	2	392.757	0.02	981.624	-0.18	-1.0	17.1966	5.508	70.0	0.66	Outcome1	-0.18	-2.24	0.0	No		2.0551776266062				ISITrial	Mixed
52.0	2	398.29	0.025	987.157	-3.0	-3.0	16.8216	3.0	70.0	2.0	Certain	4.3	-10.75	0.0	No	4.0	-15.049886621315201	2.264	400.554		GetAnswer	Mixed
52.0	2	400.58	0.026	989.447	-3.0	-3.0	16.8216	4.0	70.0	2.0	Certain	4.3	-10.75	0.0	No		-15.049886621315201				ShowChoice	Mixed
52.0	2	404.609	0.029	993.476	-3.0	-3.0	16.8216	1.0	70.0	2.0	Certain	4.3	-10.75	0.0	No		-15.049886621315201				ShowResult	Mixed
52.0	2	405.628	0.019	994.495	-3.0	-3.0	16.8216	5.913	70.0	2.0	Certain	4.3	-10.75	0.0	No		-15.049886621315201				ISITrial	Mixed
53.0	2	411.563	0.022	1000.43	-3.71	-1.86	16.3578	3.0	70.0	3.16	Outcome1	-3.71	11.7	2996.75	Yes	2.0	-15.40589569161	1.498	413.061		GetAnswer	Loss
53.0	2	413.084	0.023	1001.951	-3.71	-1.86	16.3578	4.0	70.0	3.16	Outcome1	-3.71	11.7	2996.75	Yes		-15.40589569161				ShowChoice	Loss
53.0	2	417.113	0.029	1005.98	-3.71	-1.86	16.3578	1.0	70.0	3.16	Outcome1	-3.71	11.7	2996.75	Yes		-15.40589569161				ShowResult	Loss
53.0	2	418.132	0.019	1006.999	-3.71	-1.86	16.3578	3.66	70.0	3.16	Outcome1	-3.71	11.7	2996.75	Yes		-15.40589569161				ISITrial	Loss
53.0	2	424.836	0.029	1013.703	-3.71	-1.86	16.3578	1.812	70.0	3.16	Outcome1	-3.71	11.7	2996.75	Yes		-15.40589569161			344.0	TrialHappiness	Loss
53.0	2	428.848	4.012	1017.715	-3.71	-1.86	16.3578	3.987	70.0	3.16	Outcome1	-3.71	11.7	2996.75	Yes		-15.40589569161				ISIRate	Loss
54.0	2	432.86	0.025	1021.727	-6.0	-6.0	15.6078	3.0	70.0	0.4	Certain	0.9	-14.18	0.0	No	4.0	-15.081632653061199	1.961	434.821		GetAnswer	Mixed
54.0	2	434.832	0.011	1023.699	-6.0	-6.0	15.6078	4.0	70.0	0.4	Certain	0.9	-14.18	0.0	No		-15.081632653061199				ShowChoice	Mixed
54.0	2	438.844	0.012	1027.711	-6.0	-6.0	15.6078	1.0	70.0	0.4	Certain	0.9	-14.18	0.0	No		-15.081632653061199				ShowResult	Mixed
54.0	2	439.864	0.02	1028.731	-6.0	-6.0	15.6078	8.0	70.0	0.4	Certain	0.9	-14.18	0.0	No		-15.081632653061199				ISITrial	Mixed
	2	447.888	0.024	1036.755				-0.001								{SPACE}		57.3	505.188		Rest	
	2	505.209	0.021	1094.076				4.0													BlockHappyPreview	
	2	509.221	0.012	1098.088				0.725												384.0	BlockStartHappiness	
	2	519.318	0.018	1108.185				-0.001								5.0		1.695	521.013		ScanWait	
	3	0.01	0.01	1109.89				10.0													GetReady	
55.0	3	10.023	0.013	1119.903	3.58	1.79	16.0553	3.0	955.0	3.6	Outcome1	3.58	5.9	2533.25	Yes	2.0	-2.31719516798792	1.155	11.178		GetAnswer	Gain
55.0	3	11.193	0.015	1121.073	3.58	1.79	16.0553	4.0	955.0	3.6	Outcome1	3.58	5.9	2533.25	Yes		-2.31719516798792				ShowChoice	Gain
55.0	3	15.205	0.012	1125.085	3.58	1.79	16.0553	1.0	955.0	3.6	Outcome1	3.58	5.9	2533.25	Yes		-2.31719516798792				ShowResult	Gain
55.0	3	16.225	0.02	1126.105	3.58	1.79	16.0553	7.709	955.0	3.6	Outcome1	3.58	5.9	2533.25	Yes		-2.31719516798792				ISITrial	Gain
55.0	3	26.506	0.025	1136.386	3.58	1.79	16.0553	3.376	955.0	3.6	Outcome1	3.58	5.9	2533.25	Yes	4{-4}4{-4}4{-4}4{-4}	-2.31719516798792	3.376	29.882	392.0	TrialHappiness	Gain
55.0	3	30.518	4.012	1140.398	3.58	1.79	16.0553	2.133	955.0	3.6	Outcome1	3.58	5.9	2533.25	Yes		-2.31719516798792				ISIRate	Gain
56.0	3	32.674	0.023	1142.554	9.9	-0.16	17.2928	3.0	955.0	3.6	Outcome1	9.9	-0.31	0.0	No	2.0	10.210645526613801	1.458	34.132		GetAnswer	Gain
56.0	3	34.145	0.013	1144.025	9.9	-0.16	17.2928	4.0	955.0	3.6	Outcome1	9.9	-0.31	0.0	No		10.210645526613801				ShowChoice	Gain
56.0	3	38.157	0.012	1148.037	9.9	-0.16	17.2928	1.0	955.0	3.6	Outcome1	9.9	-0.31	0.0	No		10.210645526613801				ShowResult	Gain
56.0	3	39.177	0.02	1149.057	9.9	-0.16	17.2928	4.697	955.0	3.6	Outcome1	9.9	-0.31	0.0	No		10.210645526613801				ISITrial	Gain
57.0	3	43.891	0.017	1153.771	10.71	5.36	18.6316	3.0	955.0	2.22	Outcome2	13.1	10.71	0.0	No	2.0	-2.3917516043790097	1.231	45.122		GetAnswer	Loss
57.0	3	45.145	0.023	1155.025	10.71	5.36	18.6316	4.0	955.0	2.22	Outcome2	13.1	10.71	0.0	No		-2.3917516043790097				ShowChoice	Loss
57.0	3	49.157	0.012	1159.037	10.71	5.36	18.6316	1.0	955.0	2.22	Outcome2	13.1	10.71	0.0	No		-2.3917516043790097				ShowResult	Loss
57.0	3	50.176	0.019	1160.056	10.71	5.36	18.6316	4.291	955.0	2.22	Outcome2	13.1	10.71	0.0	No		-2.3917516043790097				ISITrial	Loss
58.0	3	54.489	0.022	1164.369	2.26	1.13	18.9141	3.0	955.0	1.82	Outcome1	2.26	4.7	3045.75	Yes	2.0	-2.4448848622121604	1.524	56.013		GetAnswer	Gain
58.0	3	56.027	0.014	1165.907	2.26	1.13	18.9141	4.0	955.0	1.82	Outcome1	2.26	4.7	3045.75	Yes		-2.4448848622121604				ShowChoice	Gain
58.0	3	60.039	0.012	1169.919	2.26	1.13	18.9141	1.0	955.0	1.82	Outcome1	2.26	4.7	3045.75	Yes		-2.4448848622121604				ShowResult	Gain
58.0	3	61.059	0.02	1170.939	2.26	1.13	18.9141	2.037	955.0	1.82	Outcome1	2.26	4.7	3045.75	Yes		-2.4448848622121604				ISITrial	Gain
58.0	3	66.191	0.03	1176.071	2.26	1.13	18.9141	2.79	955.0	1.82	Outcome1	2.26	4.7	3045.75	Yes		-2.4448848622121604			384.0	TrialHappiness	Gain
58.0	3	70.203	4.012	1180.083	2.26	1.13	18.9141	4.183	955.0	1.82	Outcome1	2.26	4.7	3045.75	Yes		-2.4448848622121604				ISIRate	Gain
59.0	3	74.416	0.03	1184.296	1.17	2.0	19.0604	3.0	955.0	1.0	Outcome2	3.7	1.17	0.0	No	2.0	-2.530483201208	1.192	75.608		GetAnswer	Mixed
59.0	3	75.619	0.011	1185.499	1.17	2.0	19.0604	4.0	955.0	1.0	Outcome2	3.7	1.17	0.0	No		-2.530483201208				ShowChoice	Mixed
59.0	3	79.631	0.012	1189.511	1.17	2.0	19.0604	1.0	955.0	1.0	Outcome2	3.7	1.17	0.0	No		-2.530483201208				ShowResult	Mixed
59.0	3	80.651	0.02	1190.531	1.17	2.0	19.0604	5.064	955.0	1.0	Outcome2	3.7	1.17	0.0	No		-2.530483201208				ISITrial	Mixed
60.0	3	85.733	0.018	1195.613	-7.0	-7.0	18.1854	3.0	955.0	1.0	Certain	-13.21	-0.3	3562.5	Yes	4.0	12.906002265005698	2.33	88.063		GetAnswer	Mixed
60.0	3	88.073	0.01	1197.953	-7.0	-7.0	18.1854	4.0	955.0	1.0	Certain	-13.21	-0.3	3562.5	Yes		12.906002265005698				ShowChoice	Mixed
60.0	3	92.085	0.012	1201.965	-7.0	-7.0	18.1854	1.0	955.0	1.0	Certain	-13.21	-0.3	3562.5	Yes		12.906002265005698				ShowResult	Mixed
60.0	3	93.105	0.02	1202.985	-7.0	-7.0	18.1854	8.0	955.0	1.0	Certain	-13.21	-0.3	3562.5	Yes		12.906002265005698				ISITrial	Mixed
60.0	3	104.706	0.015	1214.586	-7.0	-7.0	18.1854	2.983	955.0	1.0	Certain	-13.21	-0.3	3562.5	Yes		12.906002265005698			352.0	TrialHappiness	Mixed
60.0	3	108.718	4.012	1218.598	-7.0	-7.0	18.1854	6.25	955.0	1.0	Certain	-13.21	-0.3	3562.5	Yes		12.906002265005698				ISIRate	Mixed
61.0	3	114.987	0.019	1224.867	10.1	-2.0	19.4479	3.0	955.0	4.2	Outcome1	10.1	-4.0	0.0	No	2.0	14.0962627406569	1.545	116.532		GetAnswer	Gain
61.0	3	116.558	0.026	1226.438	10.1	-2.0	19.4479	4.0	955.0	4.2	Outcome1	10.1	-4.0	0.0	No		14.0962627406569				ShowChoice	Gain
61.0	3	120.57	0.012	1230.45	10.1	-2.0	19.4479	1.0	955.0	4.2	Outcome1	10.1	-4.0	0.0	No		14.0962627406569				ShowResult	Gain
61.0	3	121.59	0.02	1231.47	10.1	-2.0	19.4479	4.586	955.0	4.2	Outcome1	10.1	-4.0	0.0	No		14.0962627406569				ISITrial	Gain
62.0	3	126.204	0.028	1236.084	0.3	-7.0	19.4854	3.0	955.0	2.0	Outcome2	-14.48	0.3	3748.75	Yes	2.0	14.779161947904901	2.251	128.455		GetAnswer	Mixed
62.0	3	128.477	0.022	1238.357	0.3	-7.0	19.4854	4.0	955.0	2.0	Outcome2	-14.48	0.3	3748.75	Yes		14.779161947904901				ShowChoice	Mixed
62.0	3	132.489	0.012	1242.369	0.3	-7.0	19.4854	1.0	955.0	2.0	Outcome2	-14.48	0.3	3748.75	Yes		14.779161947904901				ShowResult	Mixed
62.0	3	133.509	0.02	1243.389	0.3	-7.0	19.4854	5.212	955.0	2.0	Outcome2	-14.48	0.3	3748.75	Yes		14.779161947904901				ISITrial	Mixed
62.0	3	142.519	0.029	1252.399	0.3	-7.0	19.4854	1.378	955.0	2.0	Outcome2	-14.48	0.3	3748.75	Yes		14.779161947904901			304.0	TrialHappiness	Mixed
62.0	3	146.531	4.012	1256.411	0.3	-7.0	19.4854	6.995	955.0	2.0	Outcome2	-14.48	0.3	3748.75	Yes		14.779161947904901				ISIRate	Mixed
63.0	3	153.552	0.026	1263.432	9.02	4.51	20.6129	3.0	955.0	4.2	Outcome2	12.1	9.02	0.0	No	2.0	-3.07672706681767	1.223	154.775		GetAnswer	Loss
63.0	3	154.789	0.014	1264.669	9.02	4.51	20.6129	4.0	955.0	4.2	Outcome2	12.1	9.02	0.0	No		-3.07672706681767				ShowChoice	Loss
63.0	3	158.801	0.012	1268.681	9.02	4.51	20.6129	1.0	955.0	4.2	Outcome2	12.1	9.02	0.0	No		-3.07672706681767				ShowResult	Loss
63.0	3	159.821	0.02	1269.701	9.02	4.51	20.6129	5.595	955.0	4.2	Outcome2	12.1	9.02	0.0	No		-3.07672706681767				ISITrial	Loss
64.0	3	165.437	0.021	1275.317	-3.0	-3.0	20.2379	3.0	955.0	2.0	Certain	4.9	-12.11	0.0	No	4.0	17.0147225368063	2.726	168.163		GetAnswer	Gain
64.0	3	168.179	0.015	1278.059	-3.0	-3.0	20.2379	4.0	955.0	2.0	Certain	4.9	-12.11	0.0	No		17.0147225368063				ShowChoice	Gain
64.0	3	172.191	0.012	1282.071	-3.0	-3.0	20.2379	1.0	955.0	2.0	Certain	4.9	-12.11	0.0	No		17.0147225368063				ShowResult	Gain
64.0	3	173.211	0.02	1283.091	-3.0	-3.0	20.2379	5.47	955.0	2.0	Certain	4.9	-12.11	0.0	No		17.0147225368063				ISITrial	Gain
65.0	3	178.71	0.029	1288.59	0.5	-8.0	20.3004	3.0	955.0	0.2	Outcome2	-17.25	0.5	2996.75	Yes	2.0	17.7519818799547	2.996	181.706		GetAnswer	Mixed
65.0	3	181.719	0.013	1291.599	0.5	-8.0	20.3004	4.0	955.0	0.2	Outcome2	-17.25	0.5	2996.75	Yes		17.7519818799547				ShowChoice	Mixed
65.0	3	185.731	0.012	1295.611	0.5	-8.0	20.3004	1.0	955.0	0.2	Outcome2	-17.25	0.5	2996.75	Yes		17.7519818799547				ShowResult	Mixed
65.0	3	186.751	0.02	1296.631	0.5	-8.0	20.3004	3.344	955.0	0.2	Outcome2	-17.25	0.5	2996.75	Yes		17.7519818799547				ISITrial	Mixed
65.0	3	193.137	0.029	1303.017	0.5	-8.0	20.3004	2.799	955.0	0.2	Outcome2	-17.25	0.5	2996.75	Yes	4{-4}4{-4}4{-4}	17.7519818799547	2.799	195.936	320.0	TrialHappiness	Mixed
65.0	3	197.149	4.012	1307.029	0.5	-8.0	20.3004	3.987	955.0	0.2	Outcome2	-17.25	0.5	2996.75	Yes		17.7519818799547				ISIRate	Mixed
66.0	3	201.161	0.025	1311.041	10.5	1.0	21.6129	3.0	955.0	1.68	Outcome1	10.5	-7.72	0.0	No	2.0	18.2174405436014	1.672	202.833		GetAnswer	Loss
66.0	3	202.849	0.016	1312.729	10.5	1.0	21.6129	4.0	955.0	1.68	Outcome1	10.5	-7.72	0.0	No		18.2174405436014				ShowChoice	Loss
66.0	3	206.861	0.012	1316.741	10.5	1.0	21.6129	1.0	955.0	1.68	Outcome1	10.5	-7.72	0.0	No		18.2174405436014				ShowResult	Loss
66.0	3	207.881	0.02	1317.761	10.5	1.0	21.6129	3.959	955.0	1.68	Outcome1	10.5	-7.72	0.0	No		18.2174405436014				ISITrial	Loss
67.0	3	211.859	0.019	1321.739	3.5	-6.0	22.0504	3.0	955.0	0.82	Outcome1	3.5	-15.44	2918.5	Yes	2.0	18.936579841449603	2.015	213.874		GetAnswer	Mixed
67.0	3	213.899	0.025	1323.779	3.5	-6.0	22.0504	4.0	955.0	0.82	Outcome1	3.5	-15.44	2918.5	Yes		18.936579841449603				ShowChoice	Mixed
67.0	3	217.911	0.012	1327.791	3.5	-6.0	22.0504	1.0	955.0	0.82	Outcome1	3.5	-15.44	2918.5	Yes		18.936579841449603				ShowResult	Mixed
67.0	3	218.93	0.019	1328.81	3.5	-6.0	22.0504	4.199	955.0	0.82	Outcome1	3.5	-15.44	2918.5	Yes		18.936579841449603				ISITrial	Mixed
67.0	3	226.085	0.024	1335.965	3.5	-6.0	22.0504	1.829	955.0	0.82	Outcome1	3.5	-15.44	2918.5	Yes		18.936579841449603			320.0	TrialHappiness	Mixed
67.0	3	230.097	4.012	1339.977	3.5	-6.0	22.0504	3.674	955.0	0.82	Outcome1	3.5	-15.44	2918.5	Yes		18.936579841449603				ISIRate	Mixed
68.0	3	233.792	0.021	1343.672	4.5	-5.0	22.6129	3.0	955.0	1.68	Outcome2	-15.16	4.5	0.0	No	2.0	19.6557191392978	2.032	235.824		GetAnswer	Gain
68.0	3	235.848	0.024	1345.728	4.5	-5.0	22.6129	4.0	955.0	1.68	Outcome2	-15.16	4.5	0.0	No		19.6557191392978				ShowChoice	Gain
68.0	3	239.86	0.012	1349.74	4.5	-5.0	22.6129	1.0	955.0	1.68	Outcome2	-15.16	4.5	0.0	No		19.6557191392978				ShowResult	Gain
68.0	3	240.879	0.019	1350.759	4.5	-5.0	22.6129	2.185	955.0	1.68	Outcome2	-15.16	4.5	0.0	No		19.6557191392978				ISITrial	Gain
69.0	3	243.086	0.022	1352.966	11.3	1.0	24.0254	3.0	955.0	2.48	Outcome1	11.3	-9.07	0.0	No	2.0	20.374858437146102	1.9	244.986		GetAnswer	Loss
69.0	3	245.008	0.022	1354.888	11.3	1.0	24.0254	4.0	955.0	2.48	Outcome1	11.3	-9.07	0.0	No		20.374858437146102				ShowChoice	Loss
69.0	3	249.02	0.012	1358.9	11.3	1.0	24.0254	1.0	955.0	2.48	Outcome1	11.3	-9.07	0.0	No		20.374858437146102				ShowResult	Loss
69.0	3	250.04	0.02	1359.92	11.3	1.0	24.0254	2.0	955.0	2.48	Outcome1	11.3	-9.07	0.0	No		20.374858437146102				ISITrial	Loss
70.0	3	252.063	0.023	1361.943	0.0	0.0	24.0254	3.0	955.0	1.0	Certain	1.7	-1.74	3651.25	Yes	4.0	-3.4358248395621	2.692	254.755		GetAnswer	Mixed
70.0	3	254.771	0.016	1364.651	0.0	0.0	24.0254	4.0	955.0	1.0	Certain	1.7	-1.74	3651.25	Yes		-3.4358248395621				ShowChoice	Mixed
70.0	3	258.783	0.012	1368.663	0.0	0.0	24.0254	1.0	955.0	1.0	Certain	1.7	-1.74	3651.25	Yes		-3.4358248395621				ShowResult	Mixed
70.0	3	259.803	0.02	1369.683	0.0	0.0	24.0254	2.623	955.0	1.0	Certain	1.7	-1.74	3651.25	Yes		-3.4358248395621				ISITrial	Mixed
70.0	3	266.121	0.026	1376.001	0.0	0.0	24.0254	2.143	955.0	1.0	Certain	1.7	-1.74	3651.25	Yes		-3.4358248395621			324.0	TrialHappiness	Mixed
70.0	3	270.133	4.012	1380.013	0.0	0.0	24.0254	6.605	955.0	1.0	Certain	1.7	-1.74	3651.25	Yes		-3.4358248395621				ISIRate	Mixed
71.0	3	276.77	0.032	1386.65	-0.38	1.0	23.9779	3.0	955.0	0.52	Outcome2	3.1	-0.38	0.0	No	2.0	-3.4795205738014303	1.505	278.275		GetAnswer	Mixed
71.0	3	278.291	0.015	1388.171	-0.38	1.0	23.9779	4.0	955.0	0.52	Outcome2	3.1	-0.38	0.0	No		-3.4795205738014303				ShowChoice	Mixed
71.0	3	282.303	0.012	1392.183	-0.38	1.0	23.9779	1.0	955.0	0.52	Outcome2	3.1	-0.38	0.0	No		-3.4795205738014303				ShowResult	Mixed
71.0	3	283.323	0.02	1393.203	-0.38	1.0	23.9779	5.499	955.0	0.52	Outcome2	3.1	-0.38	0.0	No		-3.4795205738014303				ISITrial	Mixed
72.0	3	288.839	0.017	1398.719	-1.5	-12.0	23.7904	3.0	955.0	0.2	Outcome1	-1.5	-23.96	3080.5	Yes	2.0	22.459796149490398	2.914	291.753		GetAnswer	Mixed
72.0	3	291.765	0.012	1401.645	-1.5	-12.0	23.7904	4.0	955.0	0.2	Outcome1	-1.5	-23.96	3080.5	Yes		22.459796149490398				ShowChoice	Mixed
72.0	3	295.777	0.012	1405.657	-1.5	-12.0	23.7904	1.0	955.0	0.2	Outcome1	-1.5	-23.96	3080.5	Yes		22.459796149490398				ShowResult	Mixed
72.0	3	296.796	0.019	1406.676	-1.5	-12.0	23.7904	5.672	955.0	0.2	Outcome1	-1.5	-23.96	3080.5	Yes		22.459796149490398				ISITrial	Mixed
72.0	3	305.589	0.029	1415.469	-1.5	-12.0	23.7904	2.782	955.0	0.2	Outcome1	-1.5	-23.96	3080.5	Yes		22.459796149490398			328.0	TrialHappiness	Mixed
72.0	3	309.601	4.012	1419.481	-1.5	-12.0	23.7904	4.322	955.0	0.2	Outcome1	-1.5	-23.96	3080.5	Yes		22.459796149490398				ISIRate	Mixed
73.0	3	313.948	0.025	1423.828	13.9	2.0	25.5279	3.0	955.0	3.6	Outcome2	-9.21	13.9	0.0	No	2.0	23.1064552661382	1.818	315.766		GetAnswer	Loss
73.0	3	315.786	0.02	1425.666	13.9	2.0	25.5279	4.0	955.0	3.6	Outcome2	-9.21	13.9	0.0	No		23.1064552661382				ShowChoice	Loss
73.0	3	319.798	0.012	1429.678	13.9	2.0	25.5279	1.0	955.0	3.6	Outcome2	-9.21	13.9	0.0	No		23.1064552661382				ShowResult	Loss
73.0	3	320.818	0.02	1430.698	13.9	2.0	25.5279	4.616	955.0	3.6	Outcome2	-9.21	13.9	0.0	No		23.1064552661382				ISITrial	Loss
74.0	3	325.465	0.031	1435.345	-4.0	-4.0	25.0279	3.0	955.0	2.48	Certain	-16.52	7.3	3056.25	Yes	4.0	23.8165345413364	2.579	328.044		GetAnswer	Gain
74.0	3	328.056	0.012	1437.936	-4.0	-4.0	25.0279	4.0	955.0	2.48	Certain	-16.52	7.3	3056.25	Yes		23.8165345413364				ShowChoice	Gain
74.0	3	332.068	0.012	1441.948	-4.0	-4.0	25.0279	1.0	955.0	2.48	Certain	-16.52	7.3	3056.25	Yes		23.8165345413364				ShowResult	Gain
74.0	3	333.088	0.02	1442.968	-4.0	-4.0	25.0279	3.909	955.0	2.48	Certain	-16.52	7.3	3056.25	Yes		23.8165345413364				ISITrial	Gain
74.0	3	340.092	0.02	1449.972	-4.0	-4.0	25.0279	2.482	955.0	2.48	Certain	-16.52	7.3	3056.25	Yes		23.8165345413364			336.0	TrialHappiness	Gain
74.0	3	344.104	4.012	1453.984	-4.0	-4.0	25.0279	4.225	955.0	2.48	Certain	-16.52	7.3	3056.25	Yes		23.8165345413364				ISIRate	Gain
75.0	3	348.35	0.021	1458.23	-0.5	-12.0	24.9654	3.0	955.0	0.82	Outcome2	-24.89	-0.5	0.0	No	2.0	24.3907134767837	2.791	351.141		GetAnswer	Mixed
75.0	3	351.159	0.018	1461.039	-0.5	-12.0	24.9654	4.0	955.0	0.82	Outcome2	-24.89	-0.5	0.0	No		24.3907134767837				ShowChoice	Mixed
75.0	3	355.171	0.012	1465.051	-0.5	-12.0	24.9654	1.0	955.0	0.82	Outcome2	-24.89	-0.5	0.0	No		24.3907134767837				ShowResult	Mixed
75.0	3	356.19	0.019	1466.07	-0.5	-12.0	24.9654	4.979	955.0	0.82	Outcome2	-24.89	-0.5	0.0	No		24.3907134767837				ISITrial	Mixed
76.0	3	361.189	0.02	1471.069	3.37	1.68	25.3866	3.0	955.0	2.22	Outcome2	7.1	3.37	0.0	No	2.0	-3.72668931672329	1.728	362.917		GetAnswer	Gain
76.0	3	362.944	0.027	1472.824	3.37	1.68	25.3866	4.0	955.0	2.22	Outcome2	7.1	3.37	0.0	No		-3.72668931672329				ShowChoice	Gain
76.0	3	366.956	0.012	1476.836	3.37	1.68	25.3866	1.0	955.0	2.22	Outcome2	7.1	3.37	0.0	No		-3.72668931672329				ShowResult	Gain
76.0	3	367.976	0.02	1477.856	3.37	1.68	25.3866	3.931	955.0	2.22	Outcome2	7.1	3.37	0.0	No		-3.72668931672329				ISITrial	Gain
77.0	3	371.937	0.03	1481.817	8.3	-4.0	26.4241	3.0	955.0	5.0	Outcome2	-17.49	8.3	4000.0	Yes	2.0	25.79275198188	2.429	374.366		GetAnswer	Gain
77.0	3	374.378	0.012	1484.258	8.3	-4.0	26.4241	4.0	955.0	5.0	Outcome2	-17.49	8.3	4000.0	Yes		25.79275198188				ShowChoice	Gain
77.0	3	378.39	0.012	1488.27	8.3	-4.0	26.4241	1.0	955.0	5.0	Outcome2	-17.49	8.3	4000.0	Yes		25.79275198188				ShowResult	Gain
77.0	3	379.41	0.02	1489.29	8.3	-4.0	26.4241	7.022	955.0	5.0	Outcome2	-17.49	8.3	4000.0	Yes		25.79275198188				ISITrial	Gain
77.0	3	390.476	0.029	1500.356	8.3	-4.0	26.4241	2.665	955.0	5.0	Outcome2	-17.49	8.3	4000.0	Yes	4{-4}4{-4}4{-4}	25.79275198188	2.665	393.141	308.0	TrialHappiness	Gain
77.0	3	394.488	4.012	1504.368	8.3	-4.0	26.4241	8.0	955.0	5.0	Outcome2	-17.49	8.3	4000.0	Yes		25.79275198188				ISIRate	Gain
78.0	3	402.512	0.024	1512.392	0.7	-13.0	26.5116	3.0	955.0	0.3	Outcome2	-26.27	0.7	0.0	No		26.969422423556104				GetAnswer	Mixed
78.0	3	405.538	0.026	1515.418	0.7	-13.0	26.5116	4.0	955.0	0.3	Outcome2	-26.27	0.7	0.0	No		26.969422423556104				ShowChoice	Mixed
78.0	3	409.55	0.012	1519.43	0.7	-13.0	26.5116	1.0	955.0	0.3	Outcome2	-26.27	0.7	0.0	No		26.969422423556104				ShowResult	Mixed
78.0	3	410.569	0.019	1520.449	0.7	-13.0	26.5116	2.078	955.0	0.3	Outcome2	-26.27	0.7	0.0	No		26.969422423556104				ISITrial	Mixed
79.0	3	412.676	0.029	1522.556	-10.0	-10.0	25.2616	3.0	955.0	1.0	Certain	3.7	-24.0	2729.5	Yes	4.0	27.7021517553794	2.14	414.816		GetAnswer	Mixed
79.0	3	414.832	0.016	1524.712	-10.0	-10.0	25.2616	4.0	955.0	1.0	Certain	3.7	-24.0	2729.5	Yes		27.7021517553794				ShowChoice	Mixed
79.0	3	418.844	0.012	1528.724	-10.0	-10.0	25.2616	1.0	955.0	1.0	Certain	3.7	-24.0	2729.5	Yes		27.7021517553794				ShowResult	Mixed
79.0	3	419.864	0.02	1529.744	-10.0	-10.0	25.2616	3.829	955.0	1.0	Certain	3.7	-24.0	2729.5	Yes		27.7021517553794				ISITrial	Mixed
79.0	3	426.467	0.028	1536.347	-10.0	-10.0	25.2616	2.88	955.0	1.0	Certain	3.7	-24.0	2729.5	Yes		27.7021517553794			344.0	TrialHappiness	Mixed
79.0	3	430.479	4.012	1540.359	-10.0	-10.0	25.2616	2.918	955.0	1.0	Certain	3.7	-24.0	2729.5	Yes		27.7021517553794				ISIRate	Mixed
80.0	3	433.421	0.024	1543.301	6.1	-8.0	26.0241	3.0	955.0	4.2	Outcome2	-21.72	6.1	0.0	No	2.0	27.8233295583239	1.784	435.205		GetAnswer	Gain
80.0	3	435.226	0.021	1545.106	6.1	-8.0	26.0241	4.0	955.0	4.2	Outcome2	-21.72	6.1	0.0	No		27.8233295583239				ShowChoice	Gain
80.0	3	439.238	0.012	1549.118	6.1	-8.0	26.0241	1.0	955.0	4.2	Outcome2	-21.72	6.1	0.0	No		27.8233295583239				ShowResult	Gain
80.0	3	440.258	0.02	1550.138	6.1	-8.0	26.0241	3.336	955.0	4.2	Outcome2	-21.72	6.1	0.0	No		27.8233295583239				ISITrial	Gain
81.0	3	443.618	0.024	1553.498	5.51	2.76	26.7129	3.0	955.0	2.8	Outcome2	9.5	5.51	3923.75	Yes	2.0	-3.99084560211401	1.377	444.995		GetAnswer	Gain
81.0	3	445.022	0.027	1554.902	5.51	2.76	26.7129	4.0	955.0	2.8	Outcome2	9.5	5.51	3923.75	Yes		-3.99084560211401				ShowChoice	Gain
81.0	3	449.034	0.012	1558.914	5.51	2.76	26.7129	1.0	955.0	2.8	Outcome2	9.5	5.51	3923.75	Yes		-3.99084560211401				ShowResult	Gain
81.0	3	450.054	0.02	1559.934	5.51	2.76	26.7129	3.919	955.0	2.8	Outcome2	9.5	5.51	3923.75	Yes		-3.99084560211401				ISITrial	Gain
81.0	3	457.944	0.021	1567.824	5.51	2.76	26.7129	1.809	955.0	2.8	Outcome2	9.5	5.51	3923.75	Yes		-3.99084560211401			372.0	TrialHappiness	Gain
81.0	3	461.956	4.012	1571.836	5.51	2.76	26.7129	7.695	955.0	2.8	Outcome2	9.5	5.51	3923.75	Yes		-3.99084560211401				ISIRate	Gain
	3	469.679	0.028	1579.559				3.0													CurrentEarnings	
	3	472.705	0.026	1582.585				-0.001								{SPACE}		11.041	483.746		Goodbye	
