trial_number	block	onset	onset_delay	onset_unadjusted	amount_change	certain_amount	current_amount	duration	mood_target	multiplier	outcome	outcome1_amount	outcome2_amount	question_duration	rating	response	rpe	rt	rt_time	slider_response	trial_phase	trial_type
	0	-34.535	0.021	18.721				-0.001								{SPACE}		2.484	-32.051		Welcome	
	0	-32.019	0.032	21.237				5.0													LifeHappyPreview	
	0	-26.987	0.032	26.269				1.156												360.0	LifeHappiness	
	0	-11.559	0.029	41.697				4.0													BlockHappyPreview	
	0	-7.544	0.015	45.712				1.754												368.0	BlockStartHappiness	
	0	-1.596	0.024	51.66				-0.001								5.0					ScanWait	
	1	0.02	0.02	53.276				10.0													GetReady	
1.0	1	10.05	0.03	63.306	-3.88	-2.0	9.515	3.0	955.0	0.2	Outcome2	-1.5	-3.88	0.0	No	2.0	-2.38212533031333	1.214	11.264		GetAnswer	Mixed
1.0	1	11.283	0.019	64.539	-3.88	-2.0	9.515	4.0	955.0	0.2	Outcome2	-1.5	-3.88	0.0	No		-2.38212533031333				ShowChoice	Mixed
1.0	1	15.298	0.015	68.554	-3.88	-2.0	9.515	1.0	955.0	0.2	Outcome2	-1.5	-3.88	0.0	No		-2.38212533031333				ShowResult	Mixed
1.0	1	16.314	0.016	69.57	-3.88	-2.0	9.515	2.431	955.0	0.2	Outcome2	-1.5	-3.88	0.0	No		-2.38212533031333				ISITrial	Mixed
2.0	1	18.763	0.018	72.019	-1.0	-1.0	9.39	3.0	955.0	2.0	Certain	-6.34	4.3	0.0	No	4.0	10.6364665911665	1.671	20.434		GetAnswer	Mixed
2.0	1	20.463	0.029	73.719	-1.0	-1.0	9.39	4.0	955.0	2.0	Certain	-6.34	4.3	0.0	No		10.6364665911665				ShowChoice	Mixed
2.0	1	24.478	0.015	77.734	-1.0	-1.0	9.39	1.0	955.0	2.0	Certain	-6.34	4.3	0.0	No		10.6364665911665				ShowResult	Mixed
2.0	1	25.494	0.016	78.75	-1.0	-1.0	9.39	4.568	955.0	2.0	Certain	-6.34	4.3	0.0	No		10.6364665911665				ISITrial	Mixed
3.0	1	30.093	0.031	83.349	-3.0	-3.0	9.015	3.0	955.0	0.3	Certain	2.7	-8.6	2868.0	Yes	4.0	11.301245753114399	1.802	31.895		GetAnswer	Mixed
3.0	1	31.925	0.03	85.181	-3.0	-3.0	9.015	4.0	955.0	0.3	Certain	2.7	-8.6	2868.0	Yes		11.301245753114399				ShowChoice	Mixed
3.0	1	35.941	0.016	89.197	-3.0	-3.0	9.015	1.0	955.0	0.3	Certain	2.7	-8.6	2868.0	Yes		11.301245753114399				ShowResult	Mixed
3.0	1	36.957	0.016	90.213	-3.0	-3.0	9.015	3.243	955.0	0.3	Certain	2.7	-8.6	2868.0	Yes		11.301245753114399				ISITrial	Mixed
3.0	1	43.121	0.031	96.377	-3.0	-3.0	9.015	0.872	955.0	0.3	Certain	2.7	-8.6	2868.0	Yes		11.301245753114399			360.0	TrialHappiness	Mixed
3.0	1	47.137	4.016	100.393	-3.0	-3.0	9.015	3.472	955.0	0.3	Certain	2.7	-8.6	2868.0	Yes		11.301245753114399				ISIRate	Mixed
4.0	1	50.635	0.026	103.891	2.0	2.0	9.265	3.0	955.0	3.6	Certain	7.9	-4.2	0.0	No	4.0	12.101925254813098	1.365	52.0		GetAnswer	Gain
4.0	1	52.018	0.018	105.274	2.0	2.0	9.265	4.0	955.0	3.6	Certain	7.9	-4.2	0.0	No		12.101925254813098				ShowChoice	Gain
4.0	1	56.034	0.016	109.29	2.0	2.0	9.265	1.0	955.0	3.6	Certain	7.9	-4.2	0.0	No		12.101925254813098				ShowResult	Gain
4.0	1	57.05	0.016	110.306	2.0	2.0	9.265	2.011	955.0	3.6	Certain	7.9	-4.2	0.0	No		12.101925254813098				ISITrial	Gain
5.0	1	59.083	0.022	112.339	6.7	0.0	10.1025	3.0	955.0	1.82	Outcome2	-6.08	6.7	2582.5	Yes	2.0	12.775764439411098	1.1	60.183		GetAnswer	Gain
5.0	1	60.199	0.016	113.455	6.7	0.0	10.1025	4.0	955.0	1.82	Outcome2	-6.08	6.7	2582.5	Yes		12.775764439411098				ShowChoice	Gain
5.0	1	64.214	0.015	117.47	6.7	0.0	10.1025	1.0	955.0	1.82	Outcome2	-6.08	6.7	2582.5	Yes		12.775764439411098				ShowResult	Gain
5.0	1	65.23	0.016	118.486	6.7	0.0	10.1025	5.129	955.0	1.82	Outcome2	-6.08	6.7	2582.5	Yes		12.775764439411098				ISITrial	Gain
5.0	1	72.994	0.033	126.25	6.7	0.0	10.1025	0.757	955.0	1.82	Outcome2	-6.08	6.7	2582.5	Yes		12.775764439411098			456.0	TrialHappiness	Gain
5.0	1	77.01	4.016	130.266	6.7	0.0	10.1025	2.33	955.0	1.82	Outcome2	-6.08	6.7	2582.5	Yes		12.775764439411098				ISIRate	Gain
6.0	1	79.359	0.019	132.615	9.9	-0.96	11.34	3.0	955.0	3.6	Outcome1	9.9	-1.92	0.0	No	2.0	11.818799546998902	1.294	80.653		GetAnswer	Gain
6.0	1	80.675	0.022	133.931	9.9	-0.96	11.34	4.0	955.0	3.6	Outcome1	9.9	-1.92	0.0	No		11.818799546998902				ShowChoice	Gain
6.0	1	84.69	0.015	137.946	9.9	-0.96	11.34	1.0	955.0	3.6	Outcome1	9.9	-1.92	0.0	No		11.818799546998902				ShowResult	Gain
6.0	1	85.707	0.017	138.963	9.9	-0.96	11.34	6.232	955.0	3.6	Outcome1	9.9	-1.92	0.0	No		11.818799546998902				ISITrial	Gain
7.0	1	91.971	0.032	145.227	13.5	0.56	13.0275	3.0	955.0	2.8	Outcome2	1.12	13.5	0.0	No	2.0	12.3839184597961	1.425	93.396		GetAnswer	Loss
7.0	1	93.421	0.025	146.677	13.5	0.56	13.0275	4.0	955.0	2.8	Outcome2	1.12	13.5	0.0	No		12.3839184597961				ShowChoice	Loss
7.0	1	97.436	0.015	150.692	13.5	0.56	13.0275	1.0	955.0	2.8	Outcome2	1.12	13.5	0.0	No		12.3839184597961				ShowResult	Loss
7.0	1	98.452	0.016	151.708	13.5	0.56	13.0275	2.305	955.0	2.8	Outcome2	1.12	13.5	0.0	No		12.3839184597961				ISITrial	Loss
8.0	1	100.785	0.028	154.041	-3.0	-3.0	12.6525	3.0	955.0	0.4	Certain	-10.05	2.9	3112.5	Yes	4.0	12.9490373725934	1.574	102.359		GetAnswer	Mixed
8.0	1	102.384	0.025	155.64	-3.0	-3.0	12.6525	4.0	955.0	0.4	Certain	-10.05	2.9	3112.5	Yes		12.9490373725934				ShowChoice	Mixed
8.0	1	106.399	0.015	159.655	-3.0	-3.0	12.6525	1.0	955.0	0.4	Certain	-10.05	2.9	3112.5	Yes		12.9490373725934				ShowResult	Mixed
8.0	1	107.416	0.017	160.672	-3.0	-3.0	12.6525	3.506	955.0	0.4	Certain	-10.05	2.9	3112.5	Yes		12.9490373725934				ISITrial	Mixed
8.0	1	114.08	0.02	167.336	-3.0	-3.0	12.6525	1.176	955.0	0.4	Certain	-10.05	2.9	3112.5	Yes		12.9490373725934			496.0	TrialHappiness	Mixed
8.0	1	118.095	4.015	171.351	-3.0	-3.0	12.6525	4.45	955.0	0.4	Certain	-10.05	2.9	3112.5	Yes		12.9490373725934				ISIRate	Mixed
9.0	1	122.577	0.032	175.833	5.02	2.51	13.28	3.0	955.0	2.48	Outcome2	7.3	5.02	0.0	No	2.0	-2.2824650811627	1.021	123.598		GetAnswer	Gain
9.0	1	123.627	0.029	176.883	5.02	2.51	13.28	4.0	955.0	2.48	Outcome2	7.3	5.02	0.0	No		-2.2824650811627				ShowChoice	Gain
9.0	1	127.642	0.015	180.898	5.02	2.51	13.28	1.0	955.0	2.48	Outcome2	7.3	5.02	0.0	No		-2.2824650811627				ShowResult	Gain
9.0	1	128.658	0.016	181.914	5.02	2.51	13.28	2.0	955.0	2.48	Outcome2	7.3	5.02	0.0	No		-2.2824650811627				ISITrial	Gain
10.0	1	130.691	0.033	183.947	-6.0	-6.0	12.53	3.0	955.0	2.0	Certain	-13.05	0.3	4000.0	Yes	4.0	13.3544733861835	1.424	132.115		GetAnswer	Mixed
10.0	1	132.14	0.025	185.396	-6.0	-6.0	12.53	4.0	955.0	2.0	Certain	-13.05	0.3	4000.0	Yes		13.3544733861835				ShowChoice	Mixed
10.0	1	136.156	0.016	189.412	-6.0	-6.0	12.53	1.0	955.0	2.0	Certain	-13.05	0.3	4000.0	Yes		13.3544733861835				ShowResult	Mixed
10.0	1	137.172	0.016	190.428	-6.0	-6.0	12.53	2.0	955.0	2.0	Certain	-13.05	0.3	4000.0	Yes		13.3544733861835				ISITrial	Mixed
10.0	1	143.22	0.032	196.476	-6.0	-6.0	12.53	0.722	955.0	2.0	Certain	-13.05	0.3	4000.0	Yes		13.3544733861835			464.0	TrialHappiness	Mixed
10.0	1	147.235	4.015	200.491	-6.0	-6.0	12.53	8.0	955.0	2.0	Certain	-13.05	0.3	4000.0	Yes		13.3544733861835				ISIRate	Mixed
11.0	1	155.266	0.031	208.522	1.2	2.0	12.68	3.0	955.0	1.0	Outcome1	1.2	3.7	0.0	No	2.0	-2.49896187240468	1.474	156.74		GetAnswer	Mixed
11.0	1	156.765	0.025	210.021	1.2	2.0	12.68	4.0	955.0	1.0	Outcome1	1.2	3.7	0.0	No		-2.49896187240468				ShowChoice	Mixed
11.0	1	160.78	0.015	214.036	1.2	2.0	12.68	1.0	955.0	1.0	Outcome1	1.2	3.7	0.0	No		-2.49896187240468				ShowResult	Mixed
11.0	1	161.797	0.017	215.053	1.2	2.0	12.68	3.324	955.0	1.0	Outcome1	1.2	3.7	0.0	No		-2.49896187240468				ISITrial	Mixed
12.0	1	165.146	0.025	218.402	5.75	2.88	13.3988	3.0	955.0	5.0	Outcome2	8.3	5.75	2618.75	Yes	2.0	-2.54530011325028	0.968	166.114		GetAnswer	Gain
12.0	1	166.129	0.015	219.385	5.75	2.88	13.3988	4.0	955.0	5.0	Outcome2	8.3	5.75	2618.75	Yes		-2.54530011325028				ShowChoice	Gain
12.0	1	170.144	0.015	223.4	5.75	2.88	13.3988	1.0	955.0	5.0	Outcome2	8.3	5.75	2618.75	Yes		-2.54530011325028				ShowResult	Gain
12.0	1	171.16	0.016	224.416	5.75	2.88	13.3988	6.642	955.0	5.0	Outcome2	8.3	5.75	2618.75	Yes		-2.54530011325028				ISITrial	Gain
12.0	1	180.474	0.031	233.73	5.75	2.88	13.3988	1.706	955.0	5.0	Outcome2	8.3	5.75	2618.75	Yes		-2.54530011325028			448.0	TrialHappiness	Gain
12.0	1	184.489	4.015	237.745	5.75	2.88	13.3988	2.475	955.0	5.0	Outcome2	8.3	5.75	2618.75	Yes		-2.54530011325028				ISIRate	Gain
13.0	1	186.988	0.024	240.244	3.1	-5.0	13.7863	3.0	955.0	0.52	Outcome1	3.1	-12.7	0.0	No	2.0	15.801812004529998	1.235	188.223		GetAnswer	Mixed
13.0	1	188.237	0.014	241.493	3.1	-5.0	13.7863	4.0	955.0	0.52	Outcome1	3.1	-12.7	0.0	No		15.801812004529998				ShowChoice	Mixed
13.0	1	192.253	0.016	245.509	3.1	-5.0	13.7863	1.0	955.0	0.52	Outcome1	3.1	-12.7	0.0	No		15.801812004529998				ShowResult	Mixed
13.0	1	193.269	0.016	246.525	3.1	-5.0	13.7863	3.48	955.0	0.52	Outcome1	3.1	-12.7	0.0	No		15.801812004529998				ISITrial	Mixed
14.0	1	196.768	0.019	250.024	1.2	2.0	13.9363	3.0	955.0	1.2	Outcome1	1.2	3.9	0.0	No	2.0	-2.7044167610419	1.164	197.932		GetAnswer	Mixed
14.0	1	197.951	0.019	251.207	1.2	2.0	13.9363	4.0	955.0	1.2	Outcome1	1.2	3.9	0.0	No		-2.7044167610419				ShowChoice	Mixed
14.0	1	201.966	0.015	255.222	1.2	2.0	13.9363	1.0	955.0	1.2	Outcome1	1.2	3.9	0.0	No		-2.7044167610419				ShowResult	Mixed
14.0	1	202.982	0.016	256.238	1.2	2.0	13.9363	5.019	955.0	1.2	Outcome1	1.2	3.9	0.0	No		-2.7044167610419				ISITrial	Mixed
15.0	1	208.031	0.03	261.287	-3.0	-3.0	13.5613	3.0	955.0	2.8	Certain	-11.45	5.5	3348.5	Yes	4.0	16.9501698754247	1.851	209.882		GetAnswer	Gain
15.0	1	209.897	0.015	263.153	-3.0	-3.0	13.5613	4.0	955.0	2.8	Certain	-11.45	5.5	3348.5	Yes		16.9501698754247				ShowChoice	Gain
15.0	1	213.912	0.015	267.168	-3.0	-3.0	13.5613	1.0	955.0	2.8	Certain	-11.45	5.5	3348.5	Yes		16.9501698754247				ShowResult	Gain
15.0	1	214.928	0.016	268.184	-3.0	-3.0	13.5613	7.614	955.0	2.8	Certain	-11.45	5.5	3348.5	Yes		16.9501698754247				ISITrial	Gain
15.0	1	225.924	0.017	279.18	-3.0	-3.0	13.5613	0.974	955.0	2.8	Certain	-11.45	5.5	3348.5	Yes		16.9501698754247			464.0	TrialHappiness	Gain
15.0	1	229.94	4.016	283.196	-3.0	-3.0	13.5613	5.394	955.0	2.8	Certain	-11.45	5.5	3348.5	Yes		16.9501698754247				ISIRate	Gain
16.0	1	235.354	0.02	288.61	13.7	-1.78	15.2738	3.0	955.0	3.16	Outcome2	-3.55	13.7	0.0	No	2.0	17.2525481313703	1.017	236.371		GetAnswer	Loss
16.0	1	236.387	0.016	289.643	13.7	-1.78	15.2738	4.0	955.0	3.16	Outcome2	-3.55	13.7	0.0	No		17.2525481313703				ShowChoice	Loss
16.0	1	240.403	0.016	293.659	13.7	-1.78	15.2738	1.0	955.0	3.16	Outcome2	-3.55	13.7	0.0	No		17.2525481313703				ShowResult	Loss
16.0	1	241.419	0.016	294.675	13.7	-1.78	15.2738	3.008	955.0	3.16	Outcome2	-3.55	13.7	0.0	No		17.2525481313703				ISITrial	Loss
17.0	1	244.451	0.024	297.707	-7.0	-7.0	14.3988	3.0	955.0	0.82	Certain	1.5	-16.31	3041.5	Yes	4.0	17.808607021517602	1.399	245.85		GetAnswer	Mixed
17.0	1	245.867	0.017	299.123	-7.0	-7.0	14.3988	4.0	955.0	0.82	Certain	1.5	-16.31	3041.5	Yes		17.808607021517602				ShowChoice	Mixed
17.0	1	249.883	0.016	303.139	-7.0	-7.0	14.3988	1.0	955.0	0.82	Certain	1.5	-16.31	3041.5	Yes		17.808607021517602				ShowResult	Mixed
17.0	1	250.899	0.016	304.155	-7.0	-7.0	14.3988	3.566	955.0	0.82	Certain	1.5	-16.31	3041.5	Yes		17.808607021517602				ISITrial	Mixed
17.0	1	257.547	0.024	310.803	-7.0	-7.0	14.3988	3.756	955.0	0.82	Certain	1.5	-16.31	3041.5	Yes		17.808607021517602			480.0	TrialHappiness	Mixed
17.0	1	261.562	4.015	314.818	-7.0	-7.0	14.3988	4.166	955.0	0.82	Certain	1.5	-16.31	3041.5	Yes		17.808607021517602				ISIRate	Mixed
18.0	1	265.76	0.032	319.016	-10.0	-10.0	13.1488	3.0	955.0	0.52	Certain	-18.99	-0.9	0.0	No	4.0	18.092865232163103	1.867	267.627		GetAnswer	Mixed
18.0	1	267.643	0.016	320.899	-10.0	-10.0	13.1488	4.0	955.0	0.52	Certain	-18.99	-0.9	0.0	No		18.092865232163103				ShowChoice	Mixed
18.0	1	271.658	0.015	324.914	-10.0	-10.0	13.1488	1.0	955.0	0.52	Certain	-18.99	-0.9	0.0	No		18.092865232163103				ShowResult	Mixed
18.0	1	272.675	0.017	325.931	-10.0	-10.0	13.1488	6.787	955.0	0.52	Certain	-18.99	-0.9	0.0	No		18.092865232163103				ISITrial	Mixed
19.0	1	279.489	0.027	332.745	3.29	1.64	13.56	3.0	955.0	4.2	Outcome2	6.1	3.29	0.0	No	2.0	-2.8077576443941097	1.218	280.707		GetAnswer	Gain
19.0	1	280.722	0.015	333.978	3.29	1.64	13.56	4.0	955.0	4.2	Outcome2	6.1	3.29	0.0	No		-2.8077576443941097				ShowChoice	Gain
19.0	1	284.737	0.015	337.993	3.29	1.64	13.56	1.0	955.0	4.2	Outcome2	6.1	3.29	0.0	No		-2.8077576443941097				ShowResult	Gain
19.0	1	285.753	0.016	339.009	3.29	1.64	13.56	2.0	955.0	4.2	Outcome2	6.1	3.29	0.0	No		-2.8077576443941097				ISITrial	Gain
20.0	1	287.786	0.033	341.042	-3.0	-3.0	13.185	3.0	955.0	5.0	Certain	6.3	-12.87	2921.25	Yes	4.0	19.1687429218573	1.544	289.33		GetAnswer	Gain
20.0	1	289.352	0.022	342.608	-3.0	-3.0	13.185	4.0	955.0	5.0	Certain	6.3	-12.87	2921.25	Yes		19.1687429218573				ShowChoice	Gain
20.0	1	293.367	0.015	346.623	-3.0	-3.0	13.185	1.0	955.0	5.0	Certain	6.3	-12.87	2921.25	Yes		19.1687429218573				ShowResult	Gain
20.0	1	294.384	0.017	347.64	-3.0	-3.0	13.185	8.0	955.0	5.0	Certain	6.3	-12.87	2921.25	Yes		19.1687429218573				ISITrial	Gain
20.0	1	305.347	0.028	358.603	-3.0	-3.0	13.185	0.857	955.0	5.0	Certain	6.3	-12.87	2921.25	Yes		19.1687429218573			480.0	TrialHappiness	Gain
20.0	1	309.362	4.015	362.618	-3.0	-3.0	13.185	3.685	955.0	5.0	Certain	6.3	-12.87	2921.25	Yes		19.1687429218573				ISIRate	Gain
21.0	1	313.077	0.03	366.333	5.7	-4.0	13.8975	3.0	955.0	3.16	Outcome1	5.7	-14.01	0.0	No	2.0	19.7066817667044	1.323	314.4		GetAnswer	Gain
21.0	1	314.427	0.027	367.683	5.7	-4.0	13.8975	4.0	955.0	3.16	Outcome1	5.7	-14.01	0.0	No		19.7066817667044				ShowChoice	Gain
21.0	1	318.442	0.015	371.698	5.7	-4.0	13.8975	1.0	955.0	3.16	Outcome1	5.7	-14.01	0.0	No		19.7066817667044				ShowResult	Gain
21.0	1	319.458	0.016	372.714	5.7	-4.0	13.8975	3.555	955.0	3.16	Outcome1	5.7	-14.01	0.0	No		19.7066817667044				ISITrial	Gain
22.0	1	323.04	0.027	376.296	-3.57	-3.57	13.4513	3.0	955.0	2.22	Certain	13.1	-7.14	3219.5	Yes	4.0	20.2446206115515	1.422	324.462		GetAnswer	Loss
22.0	1	324.49	0.027	377.746	-3.57	-3.57	13.4513	4.0	955.0	2.22	Certain	13.1	-7.14	3219.5	Yes		20.2446206115515				ShowChoice	Loss
22.0	1	328.505	0.015	381.761	-3.57	-3.57	13.4513	1.0	955.0	2.22	Certain	13.1	-7.14	3219.5	Yes		20.2446206115515				ShowResult	Loss
22.0	1	329.522	0.017	382.778	-3.57	-3.57	13.4513	6.793	955.0	2.22	Certain	13.1	-7.14	3219.5	Yes		20.2446206115515				ISITrial	Loss
22.0	1	339.585	0.029	392.841	-3.57	-3.57	13.4513	3.022	955.0	2.22	Certain	13.1	-7.14	3219.5	Yes		20.2446206115515			448.0	TrialHappiness	Loss
22.0	1	343.6	4.015	396.856	-3.57	-3.57	13.4513	4.878	955.0	2.22	Certain	13.1	-7.14	3219.5	Yes		20.2446206115515				ISIRate	Loss
23.0	1	348.498	0.02	401.754	-7.0	-7.0	12.5763	3.0	955.0	0.82	Certain	-17.83	3.5	0.0	No	4.0	21.326160815402	2.163	350.661		GetAnswer	Mixed
23.0	1	350.681	0.02	403.937	-7.0	-7.0	12.5763	4.0	955.0	0.82	Certain	-17.83	3.5	0.0	No		21.326160815402				ShowChoice	Mixed
23.0	1	354.696	0.015	407.952	-7.0	-7.0	12.5763	1.0	955.0	0.82	Certain	-17.83	3.5	0.0	No		21.326160815402				ShowResult	Mixed
23.0	1	355.712	0.016	408.968	-7.0	-7.0	12.5763	8.0	955.0	0.82	Certain	-17.83	3.5	0.0	No		21.326160815402				ISITrial	Mixed
24.0	1	363.743	0.031	416.999	-7.0	-7.0	11.7013	3.0	955.0	0.66	Certain	-18.6	3.3	3255.0	Yes	4.0	21.9003397508494	1.927	365.67		GetAnswer	Mixed
24.0	1	365.692	0.022	418.948	-7.0	-7.0	11.7013	4.0	955.0	0.66	Certain	-18.6	3.3	3255.0	Yes		21.9003397508494				ShowChoice	Mixed
24.0	1	369.708	0.016	422.964	-7.0	-7.0	11.7013	1.0	955.0	0.66	Certain	-18.6	3.3	3255.0	Yes		21.9003397508494				ShowResult	Mixed
24.0	1	370.724	0.016	423.98	-7.0	-7.0	11.7013	2.0	955.0	0.66	Certain	-18.6	3.3	3255.0	Yes		21.9003397508494				ISITrial	Mixed
24.0	1	376.022	0.027	429.278	-7.0	-7.0	11.7013	1.49	955.0	0.66	Certain	-18.6	3.3	3255.0	Yes		21.9003397508494			472.0	TrialHappiness	Mixed
24.0	1	380.037	4.015	433.293	-7.0	-7.0	11.7013	5.02	955.0	0.66	Certain	-18.6	3.3	3255.0	Yes		21.9003397508494				ISIRate	Mixed
25.0	1	385.085	0.028	438.341	10.9	0.0	13.0638	3.0	955.0	2.0	Outcome1	10.9	-11.17	0.0	No	2.0	22.0668176670442	2.05	387.135		GetAnswer	Loss
25.0	1	387.151	0.016	440.407	10.9	0.0	13.0638	4.0	955.0	2.0	Outcome1	10.9	-11.17	0.0	No		22.0668176670442				ShowChoice	Loss
25.0	1	391.167	0.016	444.423	10.9	0.0	13.0638	1.0	955.0	2.0	Outcome1	10.9	-11.17	0.0	No		22.0668176670442				ShowResult	Loss
25.0	1	392.183	0.016	445.439	10.9	0.0	13.0638	3.749	955.0	2.0	Outcome1	10.9	-11.17	0.0	No		22.0668176670442				ISITrial	Loss
26.0	1	395.965	0.033	449.221	0.0	0.0	13.0638	3.0	955.0	2.48	Certain	11.3	-11.31	0.0	No	4.0	22.6138165345413	1.806	397.771		GetAnswer	Loss
26.0	1	397.798	0.027	451.054	0.0	0.0	13.0638	4.0	955.0	2.48	Certain	11.3	-11.31	0.0	No		22.6138165345413				ShowChoice	Loss
26.0	1	401.813	0.015	455.069	0.0	0.0	13.0638	1.0	955.0	2.48	Certain	11.3	-11.31	0.0	No		22.6138165345413				ShowResult	Loss
26.0	1	402.829	0.016	456.085	0.0	0.0	13.0638	7.834	955.0	2.48	Certain	11.3	-11.31	0.0	No		22.6138165345413				ISITrial	Loss
27.0	1	410.693	0.03	463.949	-1.1	-12.0	12.9263	3.0	955.0	0.4	Outcome1	-1.1	-24.26	2549.75	Yes		23.160815402038498				GetAnswer	Mixed
27.0	1	413.709	0.016	466.965	-1.1	-12.0	12.9263	4.0	955.0	0.4	Outcome1	-1.1	-24.26	2549.75	Yes		23.160815402038498				ShowChoice	Mixed
27.0	1	417.724	0.015	470.98	-1.1	-12.0	12.9263	1.0	955.0	0.4	Outcome1	-1.1	-24.26	2549.75	Yes		23.160815402038498				ShowResult	Mixed
27.0	1	418.74	0.016	471.996	-1.1	-12.0	12.9263	4.225	955.0	0.4	Outcome1	-1.1	-24.26	2549.75	Yes		23.160815402038498				ISITrial	Mixed
27.0	1	425.571	0.032	478.827	-1.1	-12.0	12.9263	0.957	955.0	0.4	Outcome1	-1.1	-24.26	2549.75	Yes		23.160815402038498			448.0	TrialHappiness	Mixed
27.0	1	429.587	4.016	482.843	-1.1	-12.0	12.9263	2.199	955.0	0.4	Outcome1	-1.1	-24.26	2549.75	Yes		23.160815402038498				ISIRate	Mixed
	1	431.803	0.017	485.059				-0.001								{SPACE}		28.84	460.643		Rest	
	1	460.659	0.016	513.915				4.0													BlockHappyPreview	
	1	464.674	0.015	517.93				2.19								4{-4}4{-4}		2.19	466.864	432.0	BlockStartHappiness	
	1	471.072	0.013	524.328				-0.001								5.0		1.439	472.511		ScanWait	
	2	0.011	0.011	525.778				10.0													GetReady	
28.0	2	10.024	0.013	535.791	-1.26	2.0	12.7688	3.0	70.0	2.0	Outcome2	4.9	-1.26	0.0	No	2.0	-6.156462585034009	1.796	11.82		GetAnswer	Gain
28.0	2	11.84	0.02	537.607	-1.26	2.0	12.7688	4.0	70.0	2.0	Outcome2	4.9	-1.26	0.0	No		-6.156462585034009				ShowChoice	Gain
28.0	2	15.855	0.015	541.622	-1.26	2.0	12.7688	1.0	70.0	2.0	Outcome2	4.9	-1.26	0.0	No		-6.156462585034009				ShowResult	Gain
28.0	2	16.871	0.016	542.638	-1.26	2.0	12.7688	3.575	70.0	2.0	Outcome2	4.9	-1.26	0.0	No		-6.156462585034009				ISITrial	Gain
29.0	2	20.47	0.024	546.237	1.13	0.56	12.9101	3.0	70.0	3.16	Outcome1	1.13	7.7	3529.0	Yes	2.0	-6.56689342403628	1.316	21.786		GetAnswer	Gain
29.0	2	21.803	0.017	547.57	1.13	0.56	12.9101	4.0	70.0	3.16	Outcome1	1.13	7.7	3529.0	Yes		-6.56689342403628				ShowChoice	Gain
29.0	2	25.818	0.015	551.585	1.13	0.56	12.9101	1.0	70.0	3.16	Outcome1	1.13	7.7	3529.0	Yes		-6.56689342403628				ShowResult	Gain
29.0	2	26.835	0.017	552.602	1.13	0.56	12.9101	3.955	70.0	3.16	Outcome1	1.13	7.7	3529.0	Yes		-6.56689342403628				ISITrial	Gain
29.0	2	34.365	0.019	560.132	1.13	0.56	12.9101	1.44	70.0	3.16	Outcome1	1.13	7.7	3529.0	Yes		-6.56689342403628			488.0	TrialHappiness	Gain
29.0	2	38.381	4.016	564.148	1.13	0.56	12.9101	6.116	70.0	3.16	Outcome1	1.13	7.7	3529.0	Yes		-6.56689342403628				ISIRate	Gain
30.0	2	44.528	0.031	570.295	3.22	2.0	13.3126	3.0	70.0	2.0	Outcome1	3.22	1.45	0.0	No	2.0	1.7666288737717302	1.146	45.674		GetAnswer	Loss
30.0	2	45.695	0.021	571.462	3.22	2.0	13.3126	4.0	70.0	2.0	Outcome1	3.22	1.45	0.0	No		1.7666288737717302				ShowChoice	Loss
30.0	2	49.71	0.015	575.477	3.22	2.0	13.3126	1.0	70.0	2.0	Outcome1	3.22	1.45	0.0	No		1.7666288737717302				ShowResult	Loss
30.0	2	50.726	0.016	576.493	3.22	2.0	13.3126	4.453	70.0	2.0	Outcome1	3.22	1.45	0.0	No		1.7666288737717302				ISITrial	Loss
31.0	2	55.208	0.029	580.975	0.52	0.0	13.3776	3.0	70.0	1.5	Outcome1	0.52	-1.29	2503.25	Yes	2.0	1.80612244897959	2.721	57.929		GetAnswer	Mixed
31.0	2	57.957	0.028	583.724	0.52	0.0	13.3776	4.0	70.0	1.5	Outcome1	0.52	-1.29	2503.25	Yes		1.80612244897959				ShowChoice	Mixed
31.0	2	61.972	0.015	587.739	0.52	0.0	13.3776	1.0	70.0	1.5	Outcome1	0.52	-1.29	2503.25	Yes		1.80612244897959				ShowResult	Mixed
31.0	2	62.989	0.017	588.756	0.52	0.0	13.3776	4.786	70.0	1.5	Outcome1	0.52	-1.29	2503.25	Yes		1.80612244897959				ISITrial	Mixed
31.0	2	70.319	0.029	596.086	0.52	0.0	13.3776	1.591	70.0	1.5	Outcome1	0.52	-1.29	2503.25	Yes		1.80612244897959			440.0	TrialHappiness	Mixed
31.0	2	74.335	4.016	600.102	0.52	0.0	13.3776	2.013	70.0	1.5	Outcome1	0.52	-1.29	2503.25	Yes		1.80612244897959				ISIRate	Mixed
32.0	2	76.367	0.019	602.134	4.04	2.02	13.8826	3.0	70.0	4.2	Outcome2	12.1	4.04	0.0	No	2.0	-8.06122448979592	1.505	77.872		GetAnswer	Loss
32.0	2	77.9	0.028	603.667	4.04	2.02	13.8826	4.0	70.0	4.2	Outcome2	12.1	4.04	0.0	No		-8.06122448979592				ShowChoice	Loss
32.0	2	81.915	0.015	607.682	4.04	2.02	13.8826	1.0	70.0	4.2	Outcome2	12.1	4.04	0.0	No		-8.06122448979592				ShowResult	Loss
32.0	2	82.932	0.017	608.699	4.04	2.02	13.8826	2.0	70.0	4.2	Outcome2	12.1	4.04	0.0	No		-8.06122448979592				ISITrial	Loss
33.0	2	84.948	0.016	610.715	1.62	0.81	14.0851	3.0	70.0	4.2	Outcome1	1.62	10.1	0.0	No	2.0	-8.480725623582769	1.557	86.505		GetAnswer	Gain
33.0	2	86.53	0.025	612.297	1.62	0.81	14.0851	4.0	70.0	4.2	Outcome1	1.62	10.1	0.0	No		-8.480725623582769				ShowChoice	Gain
33.0	2	90.546	0.016	616.313	1.62	0.81	14.0851	1.0	70.0	4.2	Outcome1	1.62	10.1	0.0	No		-8.480725623582769				ShowResult	Gain
33.0	2	91.562	0.016	617.329	1.62	0.81	14.0851	5.099	70.0	4.2	Outcome1	1.62	10.1	0.0	No		-8.480725623582769				ISITrial	Gain
34.0	2	96.677	0.016	622.444	0.0	0.0	14.0851	3.0	70.0	0.52	Certain	0.28	-1.44	3231.5	Yes	4.0	1.72052154195011	2.061	98.738		GetAnswer	Mixed
34.0	2	98.76	0.022	624.527	0.0	0.0	14.0851	4.0	70.0	0.52	Certain	0.28	-1.44	3231.5	Yes		1.72052154195011				ShowChoice	Mixed
34.0	2	102.775	0.015	628.542	0.0	0.0	14.0851	1.0	70.0	0.52	Certain	0.28	-1.44	3231.5	Yes		1.72052154195011				ShowResult	Mixed
34.0	2	103.791	0.016	629.558	0.0	0.0	14.0851	4.784	70.0	0.52	Certain	0.28	-1.44	3231.5	Yes		1.72052154195011				ISITrial	Mixed
34.0	2	111.838	0.017	637.605	0.0	0.0	14.0851	1.607	70.0	0.52	Certain	0.28	-1.44	3231.5	Yes		1.72052154195011			464.0	TrialHappiness	Mixed
34.0	2	115.854	4.016	641.621	0.0	0.0	14.0851	4.926	70.0	0.52	Certain	0.28	-1.44	3231.5	Yes		1.72052154195011				ISIRate	Mixed
35.0	2	120.802	0.022	646.569	1.78	1.0	14.3076	3.0	70.0	2.22	Outcome1	1.78	-0.07	0.0	No	2.0	1.85298563869992	1.648	122.45		GetAnswer	Gain
35.0	2	122.468	0.018	648.235	1.78	1.0	14.3076	4.0	70.0	2.22	Outcome1	1.78	-0.07	0.0	No		1.85298563869992				ShowChoice	Gain
35.0	2	126.483	0.015	652.25	1.78	1.0	14.3076	1.0	70.0	2.22	Outcome1	1.78	-0.07	0.0	No		1.85298563869992				ShowResult	Gain
35.0	2	127.499	0.016	653.266	1.78	1.0	14.3076	2.098	70.0	2.22	Outcome1	1.78	-0.07	0.0	No		1.85298563869992				ISITrial	Gain
36.0	2	129.615	0.018	655.382	-3.0	-3.0	13.9326	3.0	70.0	1.2	Certain	-8.27	1.9	3335.75	Yes	4.0	-10.174603174603199	2.241	131.856		GetAnswer	Mixed
36.0	2	131.881	0.025	657.648	-3.0	-3.0	13.9326	4.0	70.0	1.2	Certain	-8.27	1.9	3335.75	Yes		-10.174603174603199				ShowChoice	Mixed
36.0	2	135.897	0.016	661.664	-3.0	-3.0	13.9326	1.0	70.0	1.2	Certain	-8.27	1.9	3335.75	Yes		-10.174603174603199				ShowResult	Mixed
36.0	2	136.913	0.016	662.68	-3.0	-3.0	13.9326	5.156	70.0	1.2	Certain	-8.27	1.9	3335.75	Yes		-10.174603174603199				ISITrial	Mixed
36.0	2	145.46	0.03	671.227	-3.0	-3.0	13.9326	1.073	70.0	1.2	Certain	-8.27	1.9	3335.75	Yes		-10.174603174603199			432.0	TrialHappiness	Mixed
36.0	2	149.475	4.015	675.242	-3.0	-3.0	13.9326	5.343	70.0	1.2	Certain	-8.27	1.9	3335.75	Yes		-10.174603174603199				ISIRate	Mixed
37.0	2	154.84	0.022	680.607	-1.58	-0.79	13.7351	3.0	70.0	1.68	Outcome1	-1.58	8.5	0.0	No		-10.0770975056689				GetAnswer	Gain
37.0	2	157.856	0.016	683.623	-1.58	-0.79	13.7351	4.0	70.0	1.68	Outcome1	-1.58	8.5	0.0	No		-10.0770975056689				ShowChoice	Gain
37.0	2	161.871	0.015	687.638	-1.58	-0.79	13.7351	1.0	70.0	1.68	Outcome1	-1.58	8.5	0.0	No		-10.0770975056689				ShowResult	Gain
37.0	2	162.887	0.016	688.654	-1.58	-0.79	13.7351	3.598	70.0	1.68	Outcome1	-1.58	8.5	0.0	No		-10.0770975056689				ISITrial	Gain
38.0	2	166.503	0.018	692.27	-10.59	-5.0	12.4113	3.0	70.0	1.2	Outcome2	-0.1	-10.59	0.0	No		-10.4875283446712				GetAnswer	Mixed
38.0	2	169.518	0.015	695.285	-10.59	-5.0	12.4113	4.0	70.0	1.2	Outcome2	-0.1	-10.59	0.0	No		-10.4875283446712				ShowChoice	Mixed
38.0	2	173.533	0.015	699.3	-10.59	-5.0	12.4113	1.0	70.0	1.2	Outcome2	-0.1	-10.59	0.0	No		-10.4875283446712				ShowResult	Mixed
38.0	2	174.55	0.017	700.317	-10.59	-5.0	12.4113	4.787	70.0	1.2	Outcome2	-0.1	-10.59	0.0	No		-10.4875283446712				ISITrial	Mixed
39.0	2	179.365	0.028	705.132	0.0	0.0	12.4113	3.0	70.0	1.5	Certain	-0.85	1.02	2864.25	Yes	4.0	1.8658352229780801	0.885	180.25		GetAnswer	Mixed
39.0	2	180.264	0.014	706.031	0.0	0.0	12.4113	4.0	70.0	1.5	Certain	-0.85	1.02	2864.25	Yes		1.8658352229780801				ShowChoice	Mixed
39.0	2	184.28	0.016	710.047	0.0	0.0	12.4113	1.0	70.0	1.5	Certain	-0.85	1.02	2864.25	Yes		1.8658352229780801				ShowResult	Mixed
39.0	2	185.296	0.016	711.063	0.0	0.0	12.4113	2.348	70.0	1.5	Certain	-0.85	1.02	2864.25	Yes		1.8658352229780801				ISITrial	Mixed
39.0	2	190.544	0.018	716.311	0.0	0.0	12.4113	2.873	70.0	1.5	Certain	-0.85	1.02	2864.25	Yes	4{-4}	1.8658352229780801	2.873	193.417	376.0	TrialHappiness	Mixed
39.0	2	194.559	4.015	720.326	0.0	0.0	12.4113	3.457	70.0	1.5	Certain	-0.85	1.02	2864.25	Yes		1.8658352229780801				ISIRate	Mixed
40.0	2	198.042	0.026	723.809	-1.0	-1.0	12.2863	3.0	70.0	1.0	Certain	-1.75	-0.08	0.0	No	4.0	1.67252456538171	1.626	199.668		GetAnswer	Mixed
40.0	2	199.691	0.023	725.458	-1.0	-1.0	12.2863	4.0	70.0	1.0	Certain	-1.75	-0.08	0.0	No		1.67252456538171				ShowChoice	Mixed
40.0	2	203.706	0.015	729.473	-1.0	-1.0	12.2863	1.0	70.0	1.0	Certain	-1.75	-0.08	0.0	No		1.67252456538171				ShowResult	Mixed
40.0	2	204.723	0.017	730.49	-1.0	-1.0	12.2863	3.158	70.0	1.0	Certain	-1.75	-0.08	0.0	No		1.67252456538171				ISITrial	Mixed
41.0	2	207.905	0.024	733.672	0.42	0.0	12.3388	3.0	70.0	1.0	Outcome1	0.42	-1.28	4000.0	Yes	2.0	1.70143613000756	1.366	209.271		GetAnswer	Mixed
41.0	2	209.288	0.016	735.055	0.42	0.0	12.3388	4.0	70.0	1.0	Outcome1	0.42	-1.28	4000.0	Yes		1.70143613000756				ShowChoice	Mixed
41.0	2	213.303	0.015	739.07	0.42	0.0	12.3388	1.0	70.0	1.0	Outcome1	0.42	-1.28	4000.0	Yes		1.70143613000756				ShowResult	Mixed
41.0	2	214.319	0.016	740.086	0.42	0.0	12.3388	4.506	70.0	1.0	Outcome1	0.42	-1.28	4000.0	Yes		1.70143613000756				ISITrial	Mixed
41.0	2	222.866	0.015	748.633	0.42	0.0	12.3388	0.922	70.0	1.0	Outcome1	0.42	-1.28	4000.0	Yes		1.70143613000756			384.0	TrialHappiness	Mixed
41.0	2	226.881	4.015	752.648	0.42	0.0	12.3388	8.0	70.0	1.0	Outcome1	0.42	-1.28	4000.0	Yes		1.70143613000756				ISIRate	Mixed
42.0	2	234.912	0.031	760.679	-3.0	-3.0	11.9638	3.0	70.0	0.2	Certain	2.5	-8.69	0.0	No	4.0	-11.1859410430839	2.076	236.988		GetAnswer	Mixed
42.0	2	237.011	0.023	762.778	-3.0	-3.0	11.9638	4.0	70.0	0.2	Certain	2.5	-8.69	0.0	No		-11.1859410430839				ShowChoice	Mixed
42.0	2	241.027	0.016	766.794	-3.0	-3.0	11.9638	1.0	70.0	0.2	Certain	2.5	-8.69	0.0	No		-11.1859410430839				ShowResult	Mixed
42.0	2	242.043	0.016	767.81	-3.0	-3.0	11.9638	6.248	70.0	0.2	Certain	2.5	-8.69	0.0	No		-11.1859410430839				ISITrial	Mixed
43.0	2	248.307	0.016	774.074	2.33	1.0	12.255	3.0	70.0	2.48	Outcome2	0.54	2.33	2775.75	Yes	2.0	1.7925170068027199	1.377	249.684		GetAnswer	Gain
43.0	2	249.707	0.023	775.474	2.33	1.0	12.255	4.0	70.0	2.48	Outcome2	0.54	2.33	2775.75	Yes		1.7925170068027199				ShowChoice	Gain
43.0	2	253.722	0.015	779.489	2.33	1.0	12.255	1.0	70.0	2.48	Outcome2	0.54	2.33	2775.75	Yes		1.7925170068027199				ShowResult	Gain
43.0	2	254.738	0.016	780.505	2.33	1.0	12.255	4.596	70.0	2.48	Outcome2	0.54	2.33	2775.75	Yes		1.7925170068027199				ISITrial	Gain
43.0	2	262.153	0.023	787.92	2.33	1.0	12.255	1.422	70.0	2.48	Outcome2	0.54	2.33	2775.75	Yes		1.7925170068027199			352.0	TrialHappiness	Gain
43.0	2	266.168	4.015	791.935	2.33	1.0	12.255	3.103	70.0	2.48	Outcome2	0.54	2.33	2775.75	Yes		1.7925170068027199				ISIRate	Gain
44.0	2	269.3	0.029	795.067	-6.0	-6.0	11.505	3.0	70.0	0.66	Certain	-12.05	-0.7	0.0	No	4.0	-11.353741496598598	1.565	270.865		GetAnswer	Mixed
44.0	2	270.883	0.018	796.65	-6.0	-6.0	11.505	4.0	70.0	0.66	Certain	-12.05	-0.7	0.0	No		-11.353741496598598				ShowChoice	Mixed
44.0	2	274.898	0.015	800.665	-6.0	-6.0	11.505	1.0	70.0	0.66	Certain	-12.05	-0.7	0.0	No		-11.353741496598598				ShowResult	Mixed
44.0	2	275.914	0.016	801.681	-6.0	-6.0	11.505	2.42	70.0	0.66	Certain	-12.05	-0.7	0.0	No		-11.353741496598598				ISITrial	Mixed
45.0	2	278.364	0.03	804.131	0.32	0.0	11.545	3.0	70.0	0.66	Outcome1	0.32	-1.4	0.0	No	2.0	1.718820861678	1.242	279.606		GetAnswer	Mixed
45.0	2	279.63	0.024	805.397	0.32	0.0	11.545	4.0	70.0	0.66	Outcome1	0.32	-1.4	0.0	No		1.718820861678				ShowChoice	Mixed
45.0	2	283.645	0.015	809.412	0.32	0.0	11.545	1.0	70.0	0.66	Outcome1	0.32	-1.4	0.0	No		1.718820861678				ShowResult	Mixed
45.0	2	284.661	0.016	810.428	0.32	0.0	11.545	3.144	70.0	0.66	Outcome1	0.32	-1.4	0.0	No		1.718820861678				ISITrial	Mixed
46.0	2	287.827	0.022	813.594	-1.69	-0.84	11.3338	3.0	70.0	5.0	Outcome1	-1.69	10.3	3841.25	Yes	2.0	-11.9931972789116	1.727	289.554		GetAnswer	Gain
46.0	2	289.576	0.022	815.343	-1.69	-0.84	11.3338	4.0	70.0	5.0	Outcome1	-1.69	10.3	3841.25	Yes		-11.9931972789116				ShowChoice	Gain
46.0	2	293.592	0.016	819.359	-1.69	-0.84	11.3338	1.0	70.0	5.0	Outcome1	-1.69	10.3	3841.25	Yes		-11.9931972789116				ShowResult	Gain
46.0	2	294.608	0.016	820.375	-1.69	-0.84	11.3338	2.246	70.0	5.0	Outcome1	-1.69	10.3	3841.25	Yes		-11.9931972789116				ISITrial	Gain
46.0	2	300.739	0.024	826.506	-1.69	-0.84	11.3338	2.838	70.0	5.0	Outcome1	-1.69	10.3	3841.25	Yes		-11.9931972789116			280.0	TrialHappiness	Gain
46.0	2	304.754	4.015	830.521	-1.69	-0.84	11.3338	7.365	70.0	5.0	Outcome1	-1.69	10.3	3841.25	Yes		-11.9931972789116				ISIRate	Gain
47.0	2	312.135	0.016	837.902	1.72	1.0	11.5488	3.0	70.0	2.0	Outcome2	0.24	1.72	0.0	No	2.0	1.47959183673469	1.581	313.716		GetAnswer	Gain
47.0	2	313.735	0.019	839.502	1.72	1.0	11.5488	4.0	70.0	2.0	Outcome2	0.24	1.72	0.0	No		1.47959183673469				ShowChoice	Gain
47.0	2	317.75	0.015	843.517	1.72	1.0	11.5488	1.0	70.0	2.0	Outcome2	0.24	1.72	0.0	No		1.47959183673469				ShowResult	Gain
47.0	2	318.766	0.016	844.533	1.72	1.0	11.5488	2.0	70.0	2.0	Outcome2	0.24	1.72	0.0	No		1.47959183673469				ISITrial	Gain
48.0	2	320.799	0.033	846.566	-2.63	-1.32	11.22	3.0	70.0	1.82	Outcome2	8.7	-2.63	2831.75	Yes	2.0	-11.3265306122449	1.135	321.934		GetAnswer	Gain
48.0	2	321.948	0.014	847.715	-2.63	-1.32	11.22	4.0	70.0	1.82	Outcome2	8.7	-2.63	2831.75	Yes		-11.3265306122449				ShowChoice	Gain
48.0	2	325.964	0.016	851.731	-2.63	-1.32	11.22	1.0	70.0	1.82	Outcome2	8.7	-2.63	2831.75	Yes		-11.3265306122449				ShowResult	Gain
48.0	2	326.98	0.016	852.747	-2.63	-1.32	11.22	3.692	70.0	1.82	Outcome2	8.7	-2.63	2831.75	Yes		-11.3265306122449				ISITrial	Gain
48.0	2	333.544	0.017	859.311	-2.63	-1.32	11.22	1.505	70.0	1.82	Outcome2	8.7	-2.63	2831.75	Yes		-11.3265306122449			352.0	TrialHappiness	Gain
48.0	2	337.56	4.016	863.327	-2.63	-1.32	11.22	3.327	70.0	1.82	Outcome2	8.7	-2.63	2831.75	Yes		-11.3265306122449				ISIRate	Gain
49.0	2	340.908	0.021	866.675	-3.89	2.0	10.7338	3.0	70.0	2.0	Outcome2	8.9	-3.89	0.0	No	2.0	-12.7891156462585	1.267	342.175		GetAnswer	Gain
49.0	2	342.191	0.016	867.958	-3.89	2.0	10.7338	4.0	70.0	2.0	Outcome2	8.9	-3.89	0.0	No		-12.7891156462585				ShowChoice	Gain
49.0	2	346.207	0.016	871.974	-3.89	2.0	10.7338	1.0	70.0	2.0	Outcome2	8.9	-3.89	0.0	No		-12.7891156462585				ShowResult	Gain
49.0	2	347.223	0.016	872.99	-3.89	2.0	10.7338	8.0	70.0	2.0	Outcome2	8.9	-3.89	0.0	No		-12.7891156462585				ISITrial	Gain
50.0	2	355.253	0.03	881.02	2.88	2.0	11.0938	3.0	70.0	2.8	Outcome2	1.04	2.88	3547.25	Yes	2.0	1.83843537414966	2.076	357.329		GetAnswer	Loss
50.0	2	357.353	0.023	883.12	2.88	2.0	11.0938	4.0	70.0	2.8	Outcome2	1.04	2.88	3547.25	Yes		1.83843537414966				ShowChoice	Loss
50.0	2	361.368	0.015	887.135	2.88	2.0	11.0938	1.0	70.0	2.8	Outcome2	1.04	2.88	3547.25	Yes		1.83843537414966				ShowResult	Loss
50.0	2	362.384	0.016	888.151	2.88	2.0	11.0938	7.537	70.0	2.8	Outcome2	1.04	2.88	3547.25	Yes		1.83843537414966				ISITrial	Loss
50.0	2	373.497	0.018	899.264	2.88	2.0	11.0938	3.456	70.0	2.8	Outcome2	1.04	2.88	3547.25	Yes		1.83843537414966			288.0	TrialHappiness	Loss
50.0	2	377.512	4.015	903.279	2.88	2.0	11.0938	6.189	70.0	2.8	Outcome2	1.04	2.88	3547.25	Yes		1.83843537414966				ISIRate	Loss
51.0	2	383.727	0.026	909.494	-1.84	-0.92	10.8638	3.0	70.0	1.68	Outcome2	10.5	-1.84	0.0	No	2.0	-12.340136054421802	1.699	385.426		GetAnswer	Loss
51.0	2	385.443	0.017	911.21	-1.84	-0.92	10.8638	4.0	70.0	1.68	Outcome2	10.5	-1.84	0.0	No		-12.340136054421802				ShowChoice	Loss
51.0	2	389.458	0.015	915.225	-1.84	-0.92	10.8638	1.0	70.0	1.68	Outcome2	10.5	-1.84	0.0	No		-12.340136054421802				ShowResult	Loss
51.0	2	390.474	0.016	916.241	-1.84	-0.92	10.8638	5.508	70.0	1.68	Outcome2	10.5	-1.84	0.0	No		-12.340136054421802				ISITrial	Loss
52.0	2	396.006	0.024	921.773	2.78	2.0	11.2113	3.0	70.0	2.22	Outcome2	1.15	2.78	0.0	No	2.0	1.62566137566138	1.187	397.193		GetAnswer	Loss
52.0	2	397.205	0.012	922.972	2.78	2.0	11.2113	4.0	70.0	2.22	Outcome2	1.15	2.78	0.0	No		1.62566137566138				ShowChoice	Loss
52.0	2	401.221	0.016	926.988	2.78	2.0	11.2113	1.0	70.0	2.22	Outcome2	1.15	2.78	0.0	No		1.62566137566138				ShowResult	Loss
52.0	2	402.237	0.016	928.004	2.78	2.0	11.2113	5.913	70.0	2.22	Outcome2	1.15	2.78	0.0	No		1.62566137566138				ISITrial	Loss
53.0	2	408.168	0.018	933.935	-7.0	-7.0	10.3363	3.0	70.0	0.3	Certain	-14.13	-1.3	2996.75	Yes	4.0	-12.834467120181401	1.511	409.679		GetAnswer	Mixed
53.0	2	409.701	0.022	935.468	-7.0	-7.0	10.3363	4.0	70.0	0.3	Certain	-14.13	-1.3	2996.75	Yes		-12.834467120181401				ShowChoice	Mixed
53.0	2	413.716	0.015	939.483	-7.0	-7.0	10.3363	1.0	70.0	0.3	Certain	-14.13	-1.3	2996.75	Yes		-12.834467120181401				ShowResult	Mixed
53.0	2	414.733	0.017	940.5	-7.0	-7.0	10.3363	3.66	70.0	0.3	Certain	-14.13	-1.3	2996.75	Yes		-12.834467120181401				ISITrial	Mixed
53.0	2	421.43	0.018	947.197	-7.0	-7.0	10.3363	1.689	70.0	0.3	Certain	-14.13	-1.3	2996.75	Yes		-12.834467120181401			320.0	TrialHappiness	Mixed
53.0	2	425.446	4.016	951.213	-7.0	-7.0	10.3363	3.987	70.0	0.3	Certain	-14.13	-1.3	2996.75	Yes		-12.834467120181401				ISIRate	Mixed
54.0	2	429.461	0.028	955.228	2.92	2.0	10.7013	3.0	70.0	3.16	Outcome2	1.12	2.92	0.0	No		1.79686318972033				GetAnswer	Loss
54.0	2	432.476	0.015	958.243	2.92	2.0	10.7013	4.0	70.0	3.16	Outcome2	1.12	2.92	0.0	No		1.79686318972033				ShowChoice	Loss
54.0	2	436.492	0.016	962.259	2.92	2.0	10.7013	1.0	70.0	3.16	Outcome2	1.12	2.92	0.0	No		1.79686318972033				ShowResult	Loss
54.0	2	437.508	0.016	963.275	2.92	2.0	10.7013	8.0	70.0	3.16	Outcome2	1.12	2.92	0.0	No		1.79686318972033				ISITrial	Loss
	2	445.539	0.031	971.306				-0.001								{SPACE}		57.015	502.554		Rest	
	2	502.569	0.015	1028.336				4.0													BlockHappyPreview	
	2	506.584	0.015	1032.351				1.539												352.0	BlockStartHappiness	
	2	514.998	0.013	1040.765				-0.001								5.0		2.128	517.126		ScanWait	
	3	0.021	0.021	1042.914				10.0													GetReady	
55.0	3	10.051	0.03	1052.944	-4.0	-4.0	10.2013	3.0	955.0	0.3	Certain	-9.54	0.7	2533.25	Yes	4.0	10.2434881087203	1.713	11.764		GetAnswer	Mixed
55.0	3	11.783	0.019	1054.676	-4.0	-4.0	10.2013	4.0	955.0	0.3	Certain	-9.54	0.7	2533.25	Yes		10.2434881087203				ShowChoice	Mixed
55.0	3	15.799	0.016	1058.692	-4.0	-4.0	10.2013	1.0	955.0	0.3	Certain	-9.54	0.7	2533.25	Yes		10.2434881087203				ShowResult	Mixed
55.0	3	16.815	0.016	1059.708	-4.0	-4.0	10.2013	7.709	955.0	0.3	Certain	-9.54	0.7	2533.25	Yes		10.2434881087203				ISITrial	Mixed
55.0	3	27.095	0.016	1069.988	-4.0	-4.0	10.2013	2.836	955.0	0.3	Certain	-9.54	0.7	2533.25	Yes		10.2434881087203			408.0	TrialHappiness	Mixed
55.0	3	31.11	4.015	1074.003	-4.0	-4.0	10.2013	2.133	955.0	0.3	Certain	-9.54	0.7	2533.25	Yes		10.2434881087203				ISIRate	Mixed
56.0	3	33.259	0.016	1076.152	5.9	1.0	10.9388	3.0	955.0	3.6	Outcome2	-4.08	5.9	0.0	No	2.0	9.97508493771234	1.335	34.594		GetAnswer	Gain
56.0	3	34.609	0.015	1077.502	5.9	1.0	10.9388	4.0	955.0	3.6	Outcome2	-4.08	5.9	0.0	No		9.97508493771234				ShowChoice	Gain
56.0	3	38.624	0.015	1081.517	5.9	1.0	10.9388	1.0	955.0	3.6	Outcome2	-4.08	5.9	0.0	No		9.97508493771234				ShowResult	Gain
56.0	3	39.64	0.016	1082.533	5.9	1.0	10.9388	4.697	955.0	3.6	Outcome2	-4.08	5.9	0.0	No		9.97508493771234				ISITrial	Gain
57.0	3	44.355	0.018	1087.248	5.1	0.0	11.5763	3.0	955.0	2.22	Outcome2	-5.49	5.1	0.0	No	2.0	10.59456398641	1.42	45.775		GetAnswer	Gain
57.0	3	45.788	0.013	1088.681	5.1	0.0	11.5763	4.0	955.0	2.22	Outcome2	-5.49	5.1	0.0	No		10.59456398641				ShowChoice	Gain
57.0	3	49.804	0.016	1092.697	5.1	0.0	11.5763	1.0	955.0	2.22	Outcome2	-5.49	5.1	0.0	No		10.59456398641				ShowResult	Gain
57.0	3	50.82	0.016	1093.713	5.1	0.0	11.5763	4.291	955.0	2.22	Outcome2	-5.49	5.1	0.0	No		10.59456398641				ISITrial	Gain
58.0	3	55.135	0.024	1098.028	-6.0	-6.0	10.8263	3.0	955.0	0.82	Certain	-0.5	-11.71	3045.75	Yes	4.0	11.2140430351076	1.673	56.808		GetAnswer	Mixed
58.0	3	56.834	0.026	1099.727	-6.0	-6.0	10.8263	4.0	955.0	0.82	Certain	-0.5	-11.71	3045.75	Yes		11.2140430351076				ShowChoice	Mixed
58.0	3	60.85	0.016	1103.743	-6.0	-6.0	10.8263	1.0	955.0	0.82	Certain	-0.5	-11.71	3045.75	Yes		11.2140430351076				ShowResult	Mixed
58.0	3	61.866	0.016	1104.759	-6.0	-6.0	10.8263	2.037	955.0	0.82	Certain	-0.5	-11.71	3045.75	Yes		11.2140430351076				ISITrial	Mixed
58.0	3	66.981	0.02	1109.874	-6.0	-6.0	10.8263	1.993	955.0	0.82	Certain	-0.5	-11.71	3045.75	Yes		11.2140430351076			504.0	TrialHappiness	Mixed
58.0	3	70.996	4.015	1113.889	-6.0	-6.0	10.8263	4.183	955.0	0.82	Certain	-0.5	-11.71	3045.75	Yes		11.2140430351076				ISIRate	Mixed
59.0	3	75.211	0.032	1118.104	11.9	0.85	12.3138	3.0	955.0	3.6	Outcome1	11.9	1.7	0.0	No	2.0	10.202718006795	1.462	76.673		GetAnswer	Loss
59.0	3	76.694	0.021	1119.587	11.9	0.85	12.3138	4.0	955.0	3.6	Outcome1	11.9	1.7	0.0	No		10.202718006795				ShowChoice	Loss
59.0	3	80.709	0.015	1123.602	11.9	0.85	12.3138	1.0	955.0	3.6	Outcome1	11.9	1.7	0.0	No		10.202718006795				ShowResult	Loss
59.0	3	81.726	0.017	1124.619	11.9	0.85	12.3138	5.064	955.0	3.6	Outcome1	11.9	1.7	0.0	No		10.202718006795				ISITrial	Loss
60.0	3	86.807	0.017	1129.7	0.0	0.0	12.3138	3.0	955.0	1.82	Certain	4.7	-6.01	3562.5	Yes	4.0	10.713476783692	2.01	88.817		GetAnswer	Gain
60.0	3	88.84	0.023	1131.733	0.0	0.0	12.3138	4.0	955.0	1.82	Certain	4.7	-6.01	3562.5	Yes		10.713476783692				ShowChoice	Gain
60.0	3	92.855	0.015	1135.748	0.0	0.0	12.3138	1.0	955.0	1.82	Certain	4.7	-6.01	3562.5	Yes		10.713476783692				ShowResult	Gain
60.0	3	93.871	0.016	1136.764	0.0	0.0	12.3138	8.0	955.0	1.82	Certain	4.7	-6.01	3562.5	Yes		10.713476783692				ISITrial	Gain
60.0	3	105.467	0.02	1148.36	0.0	0.0	12.3138	1.047	955.0	1.82	Certain	4.7	-6.01	3562.5	Yes		10.713476783692			492.0	TrialHappiness	Gain
60.0	3	109.483	4.016	1152.376	0.0	0.0	12.3138	6.25	955.0	1.82	Certain	4.7	-6.01	3562.5	Yes		10.713476783692				ISIRate	Gain
61.0	3	115.764	0.031	1158.657	11.12	5.56	13.7038	3.0	955.0	2.48	Outcome1	11.12	13.3	0.0	No	2.0	-2.17582106455266	1.114	116.878		GetAnswer	Loss
61.0	3	116.897	0.019	1159.79	11.12	5.56	13.7038	4.0	955.0	2.48	Outcome1	11.12	13.3	0.0	No		-2.17582106455266				ShowChoice	Loss
61.0	3	120.912	0.015	1163.805	11.12	5.56	13.7038	1.0	955.0	2.48	Outcome1	11.12	13.3	0.0	No		-2.17582106455266				ShowResult	Loss
61.0	3	121.928	0.016	1164.821	11.12	5.56	13.7038	4.586	955.0	2.48	Outcome1	11.12	13.3	0.0	No		-2.17582106455266				ISITrial	Loss
62.0	3	126.543	0.029	1169.436	1.0	1.0	13.8288	3.0	955.0	2.8	Certain	7.5	-4.45	3748.75	Yes	4.0	11.952434881087198	1.97	128.513		GetAnswer	Gain
62.0	3	128.526	0.013	1171.419	1.0	1.0	13.8288	4.0	955.0	2.8	Certain	7.5	-4.45	3748.75	Yes		11.952434881087198				ShowChoice	Gain
62.0	3	132.541	0.015	1175.434	1.0	1.0	13.8288	1.0	955.0	2.8	Certain	7.5	-4.45	3748.75	Yes		11.952434881087198				ShowResult	Gain
62.0	3	133.558	0.017	1176.451	1.0	1.0	13.8288	5.212	955.0	2.8	Certain	7.5	-4.45	3748.75	Yes		11.952434881087198				ISITrial	Gain
62.0	3	142.555	0.017	1185.448	1.0	1.0	13.8288	3.422	955.0	2.8	Certain	7.5	-4.45	3748.75	Yes		11.952434881087198			568.0	TrialHappiness	Gain
62.0	3	146.57	4.015	1189.463	1.0	1.0	13.8288	6.995	955.0	2.8	Certain	7.5	-4.45	3748.75	Yes		11.952434881087198				ISIRate	Gain
63.0	3	153.584	0.019	1196.477	9.1	-1.04	14.9663	3.0	955.0	2.22	Outcome1	9.1	-2.09	0.0	No		11.185730464326198				GetAnswer	Gain
63.0	3	156.6	0.016	1199.493	9.1	-1.04	14.9663	4.0	955.0	2.22	Outcome1	9.1	-2.09	0.0	No		11.185730464326198				ShowChoice	Gain
63.0	3	160.615	0.015	1203.508	9.1	-1.04	14.9663	1.0	955.0	2.22	Outcome1	9.1	-2.09	0.0	No		11.185730464326198				ShowResult	Gain
63.0	3	161.631	0.016	1204.524	9.1	-1.04	14.9663	5.595	955.0	2.22	Outcome1	9.1	-2.09	0.0	No		11.185730464326198				ISITrial	Gain
64.0	3	167.246	0.02	1210.139	0.31	1.0	15.0051	3.0	955.0	2.0	Outcome2	2.3	0.31	0.0	No	2.0	-1.9913174782937	1.172	168.418		GetAnswer	Mixed
64.0	3	168.445	0.027	1211.338	0.31	1.0	15.0051	4.0	955.0	2.0	Outcome2	2.3	0.31	0.0	No		-1.9913174782937				ShowChoice	Mixed
64.0	3	172.461	0.016	1215.354	0.31	1.0	15.0051	1.0	955.0	2.0	Outcome2	2.3	0.31	0.0	No		-1.9913174782937				ShowResult	Mixed
64.0	3	173.477	0.016	1216.37	0.31	1.0	15.0051	5.47	955.0	2.0	Outcome2	2.3	0.31	0.0	No		-1.9913174782937				ISITrial	Mixed
65.0	3	178.975	0.028	1221.868	0.0	0.0	15.0051	3.0	955.0	2.48	Certain	5.3	-6.76	2996.75	Yes	4.0	12.0622876557191	1.682	180.657		GetAnswer	Gain
65.0	3	180.675	0.018	1223.568	0.0	0.0	15.0051	4.0	955.0	2.48	Certain	5.3	-6.76	2996.75	Yes		12.0622876557191				ShowChoice	Gain
65.0	3	184.69	0.015	1227.583	0.0	0.0	15.0051	1.0	955.0	2.48	Certain	5.3	-6.76	2996.75	Yes		12.0622876557191				ShowResult	Gain
65.0	3	185.706	0.016	1228.599	0.0	0.0	15.0051	3.344	955.0	2.48	Certain	5.3	-6.76	2996.75	Yes		12.0622876557191				ISITrial	Gain
65.0	3	192.087	0.018	1234.98	0.0	0.0	15.0051	0.807	955.0	2.48	Certain	5.3	-6.76	2996.75	Yes		12.0622876557191			488.0	TrialHappiness	Gain
65.0	3	196.102	4.015	1238.995	0.0	0.0	15.0051	3.987	955.0	2.48	Certain	5.3	-6.76	2996.75	Yes		12.0622876557191				ISIRate	Gain
66.0	3	200.118	0.029	1243.011	0.5	-6.0	15.0676	3.0	955.0	0.2	Outcome2	-13.36	0.5	0.0	No	2.0	13.8595696489241	2.402	202.52		GetAnswer	Mixed
66.0	3	202.55	0.03	1245.443	0.5	-6.0	15.0676	4.0	955.0	0.2	Outcome2	-13.36	0.5	0.0	No		13.8595696489241				ShowChoice	Mixed
66.0	3	206.566	0.016	1249.459	0.5	-6.0	15.0676	1.0	955.0	0.2	Outcome2	-13.36	0.5	0.0	No		13.8595696489241				ShowResult	Mixed
66.0	3	207.582	0.016	1250.475	0.5	-6.0	15.0676	3.959	955.0	0.2	Outcome2	-13.36	0.5	0.0	No		13.8595696489241				ISITrial	Mixed
67.0	3	211.564	0.023	1254.457	13.9	-0.24	16.8051	3.0	955.0	3.6	Outcome2	-0.49	13.9	2918.5	Yes	2.0	14.3884484711212	1.765	213.329		GetAnswer	Loss
67.0	3	213.346	0.017	1256.239	13.9	-0.24	16.8051	4.0	955.0	3.6	Outcome2	-0.49	13.9	2918.5	Yes		14.3884484711212				ShowChoice	Loss
67.0	3	217.362	0.016	1260.255	13.9	-0.24	16.8051	1.0	955.0	3.6	Outcome2	-0.49	13.9	2918.5	Yes		14.3884484711212				ShowResult	Loss
67.0	3	218.378	0.016	1261.271	13.9	-0.24	16.8051	4.199	955.0	3.6	Outcome2	-0.49	13.9	2918.5	Yes		14.3884484711212				ISITrial	Loss
67.0	3	225.542	0.031	1268.435	13.9	-0.24	16.8051	1.407	955.0	3.6	Outcome2	-0.49	13.9	2918.5	Yes		14.3884484711212			488.0	TrialHappiness	Loss
67.0	3	229.557	4.015	1272.45	13.9	-0.24	16.8051	3.674	955.0	3.6	Outcome2	-0.49	13.9	2918.5	Yes		14.3884484711212				ISIRate	Loss
68.0	3	233.256	0.025	1276.149	12.3	-1.31	18.3426	3.0	955.0	5.0	Outcome2	-2.62	12.3	0.0	No	2.0	14.9173272933182	1.325	234.581		GetAnswer	Loss
68.0	3	234.606	0.025	1277.499	12.3	-1.31	18.3426	4.0	955.0	5.0	Outcome2	-2.62	12.3	0.0	No		14.9173272933182				ShowChoice	Loss
68.0	3	238.621	0.015	1281.514	12.3	-1.31	18.3426	1.0	955.0	5.0	Outcome2	-2.62	12.3	0.0	No		14.9173272933182				ShowResult	Loss
68.0	3	239.637	0.016	1282.53	12.3	-1.31	18.3426	2.185	955.0	5.0	Outcome2	-2.62	12.3	0.0	No		14.9173272933182				ISITrial	Loss
69.0	3	241.853	0.031	1284.746	-1.0	-1.0	18.2176	3.0	955.0	1.5	Certain	-2.42	0.1	0.0	No	4.0	-2.52123442808607	2.611	244.464		GetAnswer	Mixed
69.0	3	244.486	0.022	1287.379	-1.0	-1.0	18.2176	4.0	955.0	1.5	Certain	-2.42	0.1	0.0	No		-2.52123442808607				ShowChoice	Mixed
69.0	3	248.501	0.015	1291.394	-1.0	-1.0	18.2176	1.0	955.0	1.5	Certain	-2.42	0.1	0.0	No		-2.52123442808607				ShowResult	Mixed
69.0	3	249.517	0.016	1292.41	-1.0	-1.0	18.2176	2.0	955.0	1.5	Certain	-2.42	0.1	0.0	No		-2.52123442808607				ISITrial	Mixed
70.0	3	251.55	0.033	1294.443	8.13	4.07	19.2339	3.0	955.0	1.82	Outcome1	8.13	10.7	3651.25	Yes	2.0	-2.5653076632691603	1.243	252.793		GetAnswer	Loss
70.0	3	252.816	0.023	1295.709	8.13	4.07	19.2339	4.0	955.0	1.82	Outcome1	8.13	10.7	3651.25	Yes		-2.5653076632691603				ShowChoice	Loss
70.0	3	256.831	0.015	1299.724	8.13	4.07	19.2339	1.0	955.0	1.82	Outcome1	8.13	10.7	3651.25	Yes		-2.5653076632691603				ShowResult	Loss
70.0	3	257.848	0.017	1300.741	8.13	4.07	19.2339	2.623	955.0	1.82	Outcome1	8.13	10.7	3651.25	Yes		-2.5653076632691603				ISITrial	Loss
70.0	3	264.179	0.031	1307.072	8.13	4.07	19.2339	2.756	955.0	1.82	Outcome1	8.13	10.7	3651.25	Yes	4{-4}	-2.5653076632691603	2.756	266.935	488.0	TrialHappiness	Loss
70.0	3	268.194	4.015	1311.087	8.13	4.07	19.2339	6.605	955.0	1.82	Outcome1	8.13	10.7	3651.25	Yes		-2.5653076632691603				ISIRate	Loss
71.0	3	274.825	0.026	1317.718	-1.71	0.0	19.0201	3.0	955.0	0.4	Outcome2	0.9	-1.71	0.0	No	2.0	-2.60938089845225	2.439	277.264		GetAnswer	Mixed
71.0	3	277.291	0.027	1320.184	-1.71	0.0	19.0201	4.0	955.0	0.4	Outcome2	0.9	-1.71	0.0	No		-2.60938089845225				ShowChoice	Mixed
71.0	3	281.306	0.015	1324.199	-1.71	0.0	19.0201	1.0	955.0	0.4	Outcome2	0.9	-1.71	0.0	No		-2.60938089845225				ShowResult	Mixed
71.0	3	282.322	0.016	1325.215	-1.71	0.0	19.0201	5.499	955.0	0.4	Outcome2	0.9	-1.71	0.0	No		-2.60938089845225				ISITrial	Mixed
72.0	3	287.854	0.033	1330.747	0.0	0.0	19.0201	3.0	955.0	4.2	Certain	8.1	-8.93	3080.5	Yes	4.0	17.0328425821065	1.676	289.53		GetAnswer	Gain
72.0	3	289.553	0.023	1332.446	0.0	0.0	19.0201	4.0	955.0	4.2	Certain	8.1	-8.93	3080.5	Yes		17.0328425821065				ShowChoice	Gain
72.0	3	293.568	0.015	1336.461	0.0	0.0	19.0201	1.0	955.0	4.2	Certain	8.1	-8.93	3080.5	Yes		17.0328425821065				ShowResult	Gain
72.0	3	294.585	0.017	1337.478	0.0	0.0	19.0201	5.672	955.0	4.2	Certain	8.1	-8.93	3080.5	Yes		17.0328425821065				ISITrial	Gain
72.0	3	303.382	0.019	1346.275	0.0	0.0	19.0201	0.0	955.0	4.2	Certain	8.1	-8.93	3080.5	Yes		17.0328425821065			512.0	TrialHappiness	Gain
72.0	3	307.397	4.015	1350.29	0.0	0.0	19.0201	4.322	955.0	4.2	Certain	8.1	-8.93	3080.5	Yes		17.0328425821065				ISIRate	Gain
73.0	3	311.745	0.026	1354.638	-2.33	-2.33	18.7289	3.0	955.0	1.68	Certain	-4.65	12.5	0.0	No	4.0	17.154020385051002	2.049	313.794		GetAnswer	Loss
73.0	3	313.811	0.017	1356.704	-2.33	-2.33	18.7289	4.0	955.0	1.68	Certain	-4.65	12.5	0.0	No		17.154020385051002				ShowChoice	Loss
73.0	3	317.827	0.016	1360.72	-2.33	-2.33	18.7289	1.0	955.0	1.68	Certain	-4.65	12.5	0.0	No		17.154020385051002				ShowResult	Loss
73.0	3	318.843	0.016	1361.736	-2.33	-2.33	18.7289	4.616	955.0	1.68	Certain	-4.65	12.5	0.0	No		17.154020385051002				ISITrial	Loss
74.0	3	323.491	0.032	1366.384	9.7	1.0	19.9414	3.0	955.0	3.16	Outcome1	9.7	-7.96	3056.25	Yes	2.0	17.655719139297897	1.208	324.699		GetAnswer	Gain
74.0	3	324.724	0.025	1367.617	9.7	1.0	19.9414	4.0	955.0	3.16	Outcome1	9.7	-7.96	3056.25	Yes		17.655719139297897				ShowChoice	Gain
74.0	3	328.74	0.016	1371.633	9.7	1.0	19.9414	1.0	955.0	3.16	Outcome1	9.7	-7.96	3056.25	Yes		17.655719139297897				ShowResult	Gain
74.0	3	329.756	0.016	1372.649	9.7	1.0	19.9414	3.909	955.0	3.16	Outcome1	9.7	-7.96	3056.25	Yes		17.655719139297897				ISITrial	Gain
74.0	3	336.77	0.026	1379.663	9.7	1.0	19.9414	1.723	955.0	3.16	Outcome1	9.7	-7.96	3056.25	Yes		17.655719139297897			464.0	TrialHappiness	Gain
74.0	3	340.785	4.015	1383.678	9.7	1.0	19.9414	4.225	955.0	3.16	Outcome1	9.7	-7.96	3056.25	Yes		17.655719139297897				ISIRate	Gain
75.0	3	345.034	0.024	1387.927	6.5	-3.0	20.7539	3.0	955.0	1.68	Outcome2	-12.47	6.5	0.0	No	2.0	18.972819932049802	1.639	346.673		GetAnswer	Gain
75.0	3	346.7	0.027	1389.593	6.5	-3.0	20.7539	4.0	955.0	1.68	Outcome2	-12.47	6.5	0.0	No		18.972819932049802				ShowChoice	Gain
75.0	3	350.715	0.015	1393.608	6.5	-3.0	20.7539	1.0	955.0	1.68	Outcome2	-12.47	6.5	0.0	No		18.972819932049802				ShowResult	Gain
75.0	3	351.732	0.017	1394.625	6.5	-3.0	20.7539	4.979	955.0	1.68	Outcome2	-12.47	6.5	0.0	No		18.972819932049802				ISITrial	Gain
76.0	3	356.73	0.019	1399.623	-5.0	-5.0	20.1289	3.0	955.0	1.68	Certain	-15.03	4.5	0.0	No	4.0	19.5288788221971	2.01	358.74		GetAnswer	Gain
76.0	3	358.762	0.022	1401.655	-5.0	-5.0	20.1289	4.0	955.0	1.68	Certain	-15.03	4.5	0.0	No		19.5288788221971				ShowChoice	Gain
76.0	3	362.778	0.016	1405.671	-5.0	-5.0	20.1289	1.0	955.0	1.68	Certain	-15.03	4.5	0.0	No		19.5288788221971				ShowResult	Gain
76.0	3	363.794	0.016	1406.687	-5.0	-5.0	20.1289	3.931	955.0	1.68	Certain	-15.03	4.5	0.0	No		19.5288788221971				ISITrial	Gain
77.0	3	367.743	0.018	1410.636	12.7	2.0	21.7164	3.0	955.0	1.82	Outcome1	12.7	-7.38	4000.0	Yes	2.0	20.0849377123443	1.826	369.569		GetAnswer	Loss
77.0	3	369.592	0.023	1412.485	12.7	2.0	21.7164	4.0	955.0	1.82	Outcome1	12.7	-7.38	4000.0	Yes		20.0849377123443				ShowChoice	Loss
77.0	3	373.607	0.015	1416.5	12.7	2.0	21.7164	1.0	955.0	1.82	Outcome1	12.7	-7.38	4000.0	Yes		20.0849377123443				ShowResult	Loss
77.0	3	374.624	0.017	1417.517	12.7	2.0	21.7164	7.022	955.0	1.82	Outcome1	12.7	-7.38	4000.0	Yes		20.0849377123443				ISITrial	Loss
77.0	3	385.686	0.015	1428.579	12.7	2.0	21.7164	2.056	955.0	1.82	Outcome1	12.7	-7.38	4000.0	Yes		20.0849377123443			472.0	TrialHappiness	Loss
77.0	3	389.702	4.016	1432.595	12.7	2.0	21.7164	8.0	955.0	1.82	Outcome1	12.7	-7.38	4000.0	Yes		20.0849377123443				ISIRate	Loss
78.0	3	397.732	0.03	1440.625	-1.0	-1.0	21.5914	3.0	955.0	2.8	Certain	9.5	-11.01	0.0	No	4.0	20.5050962627407	1.73	399.462		GetAnswer	Gain
78.0	3	399.482	0.02	1442.375	-1.0	-1.0	21.5914	4.0	955.0	2.8	Certain	9.5	-11.01	0.0	No		20.5050962627407				ShowChoice	Gain
78.0	3	403.497	0.015	1446.39	-1.0	-1.0	21.5914	1.0	955.0	2.8	Certain	9.5	-11.01	0.0	No		20.5050962627407				ShowResult	Gain
78.0	3	404.513	0.016	1447.406	-1.0	-1.0	21.5914	2.078	955.0	2.8	Certain	9.5	-11.01	0.0	No		20.5050962627407				ISITrial	Gain
79.0	3	406.612	0.021	1449.505	13.1	2.0	23.2289	3.0	955.0	2.22	Outcome1	13.1	-7.95	2729.5	Yes	2.0	21.052095130237802	1.658	408.27		GetAnswer	Loss
79.0	3	408.295	0.025	1451.188	13.1	2.0	23.2289	4.0	955.0	2.22	Outcome1	13.1	-7.95	2729.5	Yes		21.052095130237802				ShowChoice	Loss
79.0	3	412.31	0.015	1455.203	13.1	2.0	23.2289	1.0	955.0	2.22	Outcome1	13.1	-7.95	2729.5	Yes		21.052095130237802				ShowResult	Loss
79.0	3	413.327	0.017	1456.22	13.1	2.0	23.2289	3.829	955.0	2.22	Outcome1	13.1	-7.95	2729.5	Yes		21.052095130237802				ISITrial	Loss
79.0	3	419.924	0.019	1462.817	13.1	2.0	23.2289	1.354	955.0	2.22	Outcome1	13.1	-7.95	2729.5	Yes		21.052095130237802			532.0	TrialHappiness	Loss
79.0	3	423.94	4.016	1466.833	13.1	2.0	23.2289	2.918	955.0	2.22	Outcome1	13.1	-7.95	2729.5	Yes		21.052095130237802				ISIRate	Loss
80.0	3	426.889	0.031	1469.782	10.9	0.0	24.5914	3.0	955.0	2.0	Outcome2	-9.68	10.9	0.0	No	2.0	20.5798414496036	1.485	428.374		GetAnswer	Loss
80.0	3	428.388	0.014	1471.281	10.9	0.0	24.5914	4.0	955.0	2.0	Outcome2	-9.68	10.9	0.0	No		20.5798414496036				ShowChoice	Loss
80.0	3	432.403	0.015	1475.296	10.9	0.0	24.5914	1.0	955.0	2.0	Outcome2	-9.68	10.9	0.0	No		20.5798414496036				ShowResult	Loss
80.0	3	433.42	0.017	1476.313	10.9	0.0	24.5914	3.336	955.0	2.0	Outcome2	-9.68	10.9	0.0	No		20.5798414496036				ISITrial	Loss
81.0	3	436.785	0.029	1479.678	12.1	1.0	26.1039	3.0	955.0	4.2	Outcome1	12.1	-8.96	3923.75	Yes	2.0	21.058890147225398	1.455	438.24		GetAnswer	Loss
81.0	3	438.251	0.011	1481.144	12.1	1.0	26.1039	4.0	955.0	4.2	Outcome1	12.1	-8.96	3923.75	Yes		21.058890147225398				ShowChoice	Loss
81.0	3	442.267	0.016	1485.16	12.1	1.0	26.1039	1.0	955.0	4.2	Outcome1	12.1	-8.96	3923.75	Yes		21.058890147225398				ShowResult	Loss
81.0	3	443.283	0.016	1486.176	12.1	1.0	26.1039	3.919	955.0	4.2	Outcome1	12.1	-8.96	3923.75	Yes		21.058890147225398				ISITrial	Loss
81.0	3	451.164	0.025	1494.057	12.1	1.0	26.1039	0.0	955.0	4.2	Outcome1	12.1	-8.96	3923.75	Yes		21.058890147225398			512.0	TrialHappiness	Loss
81.0	3	455.179	4.015	1498.072	12.1	1.0	26.1039	7.695	955.0	4.2	Outcome1	12.1	-8.96	3923.75	Yes		21.058890147225398				ISIRate	Loss
	3	462.893	0.019	1505.786				3.0													CurrentEarnings	
	3	465.908	0.015	1508.801				-0.001								{SPACE}		0.31	466.218		Goodbye	
