trial_number	block	onset	onset_delay	onset_unadjusted	amount_change	certain_amount	current_amount	duration	mood_target	multiplier	outcome	outcome1_amount	outcome2_amount	question_duration	rating	response	rpe	rt	rt_time	slider_response	trial_phase	trial_type
	0	-140.272	0.022	12.986				-0.001								{SPACE}		3.715	-136.557		Welcome	
	0	-136.527	0.03	16.731				5.0													LifeHappyPreview	
	0	-131.496	0.031	21.762				1.881												280.0	LifeHappiness	
	0	-115.815	0.028	37.443				4.0													BlockHappyPreview	
	0	-111.803	0.012	41.455				1.278								4{-4}4{-4}		1.278	-110.525	456.0	BlockStartHappiness	
	0	-100.586	0.02	52.672				-0.001								5.0					ScanWait	
	1	0.015	0.015	153.273				10.0													GetReady	
1.0	1	10.045	0.03	163.303	12.7	2.11	11.5875	3.0	955.0	1.82	Outcome2	4.22	12.7	0.0	No	2.0	8.47678369195923	1.173	11.218		GetAnswer	Loss
1.0	1	11.248	0.03	164.506	12.7	2.11	11.5875	4.0	955.0	1.82	Outcome2	4.22	12.7	0.0	No		8.47678369195923				ShowChoice	Loss
1.0	1	15.26	0.012	168.518	12.7	2.11	11.5875	1.0	955.0	1.82	Outcome2	4.22	12.7	0.0	No		8.47678369195923				ShowResult	Loss
1.0	1	16.28	0.02	169.538	12.7	2.11	11.5875	2.431	955.0	1.82	Outcome2	4.22	12.7	0.0	No		8.47678369195923				ISITrial	Loss
2.0	1	18.738	0.027	171.996	7.7	-0.67	12.55	3.0	955.0	3.16	Outcome2	-1.34	7.7	0.0	No	2.0	9.04190260475651	1.483	20.221		GetAnswer	Gain
2.0	1	20.242	0.021	173.5	7.7	-0.67	12.55	4.0	955.0	3.16	Outcome2	-1.34	7.7	0.0	No		9.04190260475651				ShowChoice	Gain
2.0	1	24.271	0.029	177.529	7.7	-0.67	12.55	1.0	955.0	3.16	Outcome2	-1.34	7.7	0.0	No		9.04190260475651				ShowResult	Gain
2.0	1	25.29	0.019	178.548	7.7	-0.67	12.55	4.568	955.0	3.16	Outcome2	-1.34	7.7	0.0	No		9.04190260475651				ISITrial	Gain
3.0	1	29.888	0.03	183.146	4.5	0.0	13.1125	3.0	955.0	1.68	Outcome2	-5.11	4.5	2868.0	Yes	2.0	9.60702151755379	1.148	31.036		GetAnswer	Gain
3.0	1	31.058	0.022	184.316	4.5	0.0	13.1125	4.0	955.0	1.68	Outcome2	-5.11	4.5	2868.0	Yes		9.60702151755379				ShowChoice	Gain
3.0	1	35.07	0.012	188.328	4.5	0.0	13.1125	1.0	955.0	1.68	Outcome2	-5.11	4.5	2868.0	Yes		9.60702151755379				ShowResult	Gain
3.0	1	36.089	0.019	189.347	4.5	0.0	13.1125	3.243	955.0	1.68	Outcome2	-5.11	4.5	2868.0	Yes		9.60702151755379				ISITrial	Gain
3.0	1	42.241	0.024	195.499	4.5	0.0	13.1125	1.111	955.0	1.68	Outcome2	-5.11	4.5	2868.0	Yes		9.60702151755379			424.0	TrialHappiness	Gain
3.0	1	46.27	4.029	199.528	4.5	0.0	13.1125	3.472	955.0	1.68	Outcome2	-5.11	4.5	2868.0	Yes		9.60702151755379				ISIRate	Gain
4.0	1	49.764	0.022	203.022	6.6	3.3	13.9375	3.0	955.0	2.0	Outcome2	8.9	6.6	0.0	No	2.0	-2.2961494903737303	0.979	50.743		GetAnswer	Gain
4.0	1	50.767	0.024	204.025	6.6	3.3	13.9375	4.0	955.0	2.0	Outcome2	8.9	6.6	0.0	No		-2.2961494903737303				ShowChoice	Gain
4.0	1	54.795	0.028	208.053	6.6	3.3	13.9375	1.0	955.0	2.0	Outcome2	8.9	6.6	0.0	No		-2.2961494903737303				ShowResult	Gain
4.0	1	55.815	0.02	209.073	6.6	3.3	13.9375	2.011	955.0	2.0	Outcome2	8.9	6.6	0.0	No		-2.2961494903737303				ISITrial	Gain
5.0	1	57.855	0.029	211.113	-1.85	0.0	13.7063	3.0	955.0	0.2	Outcome1	-1.85	0.5	2582.5	Yes	2.0	-2.34626274065685	1.027	58.882		GetAnswer	Mixed
5.0	1	58.908	0.026	212.166	-1.85	0.0	13.7063	4.0	955.0	0.2	Outcome1	-1.85	0.5	2582.5	Yes		-2.34626274065685				ShowChoice	Mixed
5.0	1	62.92	0.012	216.178	-1.85	0.0	13.7063	1.0	955.0	0.2	Outcome1	-1.85	0.5	2582.5	Yes		-2.34626274065685				ShowResult	Mixed
5.0	1	63.94	0.02	217.198	-1.85	0.0	13.7063	5.129	955.0	0.2	Outcome1	-1.85	0.5	2582.5	Yes		-2.34626274065685				ISITrial	Mixed
5.0	1	71.696	0.026	224.954	-1.85	0.0	13.7063	2.881	955.0	0.2	Outcome1	-1.85	0.5	2582.5	Yes		-2.34626274065685			368.0	TrialHappiness	Mixed
5.0	1	75.725	4.029	228.983	-1.85	0.0	13.7063	2.33	955.0	0.2	Outcome1	-1.85	0.5	2582.5	Yes		-2.34626274065685				ISIRate	Mixed
6.0	1	78.082	0.027	231.34	9.5	-1.68	14.8938	3.0	955.0	2.8	Outcome2	-3.37	9.5	0.0	No	2.0	12.8697621744054	1.017	79.099		GetAnswer	Gain
6.0	1	79.118	0.018	232.376	9.5	-1.68	14.8938	4.0	955.0	2.8	Outcome2	-3.37	9.5	0.0	No		12.8697621744054				ShowChoice	Gain
6.0	1	83.147	0.029	236.405	9.5	-1.68	14.8938	1.0	955.0	2.8	Outcome2	-3.37	9.5	0.0	No		12.8697621744054				ShowResult	Gain
6.0	1	84.167	0.02	237.425	9.5	-1.68	14.8938	6.232	955.0	2.8	Outcome2	-3.37	9.5	0.0	No		12.8697621744054				ISITrial	Gain
7.0	1	90.419	0.02	243.677	12.5	-0.52	16.4563	3.0	955.0	1.68	Outcome1	12.5	-1.03	0.0	No	2.0	13.5345413363533	1.351	91.77		GetAnswer	Loss
7.0	1	91.79	0.02	245.048	12.5	-0.52	16.4563	4.0	955.0	1.68	Outcome1	12.5	-1.03	0.0	No		13.5345413363533				ShowChoice	Loss
7.0	1	95.818	0.028	249.076	12.5	-0.52	16.4563	1.0	955.0	1.68	Outcome1	12.5	-1.03	0.0	No		13.5345413363533				ShowResult	Loss
7.0	1	96.838	0.02	250.096	12.5	-0.52	16.4563	2.305	955.0	1.68	Outcome1	12.5	-1.03	0.0	No		13.5345413363533				ISITrial	Loss
8.0	1	99.162	0.019	252.42	8.7	1.0	17.5438	3.0	955.0	1.82	Outcome1	8.7	-5.5	3112.5	Yes	2.0	14.199320498301198	1.192	100.354		GetAnswer	Gain
8.0	1	100.382	0.028	253.64	8.7	1.0	17.5438	4.0	955.0	1.82	Outcome1	8.7	-5.5	3112.5	Yes		14.199320498301198				ShowChoice	Gain
8.0	1	104.411	0.029	257.669	8.7	1.0	17.5438	1.0	955.0	1.82	Outcome1	8.7	-5.5	3112.5	Yes		14.199320498301198				ShowResult	Gain
8.0	1	105.43	0.019	258.688	8.7	1.0	17.5438	3.506	955.0	1.82	Outcome1	8.7	-5.5	3112.5	Yes		14.199320498301198				ISITrial	Gain
8.0	1	112.1	0.03	265.358	8.7	1.0	17.5438	1.573	955.0	1.82	Outcome1	8.7	-5.5	3112.5	Yes		14.199320498301198			456.0	TrialHappiness	Gain
8.0	1	116.112	4.012	269.37	8.7	1.0	17.5438	4.45	955.0	1.82	Outcome1	8.7	-5.5	3112.5	Yes		14.199320498301198				ISIRate	Gain
9.0	1	120.592	0.03	273.85	-2.0	-2.0	17.2938	3.0	955.0	0.66	Certain	-0.7	-3.13	0.0	No	4.0	-2.43271045677614	1.469	122.061		GetAnswer	Mixed
9.0	1	122.08	0.019	275.338	-2.0	-2.0	17.2938	4.0	955.0	0.66	Certain	-0.7	-3.13	0.0	No		-2.43271045677614				ShowChoice	Mixed
9.0	1	126.109	0.029	279.367	-2.0	-2.0	17.2938	1.0	955.0	0.66	Certain	-0.7	-3.13	0.0	No		-2.43271045677614				ShowResult	Mixed
9.0	1	127.129	0.02	280.387	-2.0	-2.0	17.2938	2.0	955.0	0.66	Certain	-0.7	-3.13	0.0	No		-2.43271045677614				ISITrial	Mixed
10.0	1	129.151	0.022	282.409	-1.1	-8.0	17.1563	3.0	955.0	0.4	Outcome2	-15.03	-1.1	4000.0	Yes	2.0	13.9343148357871	1.755	130.906		GetAnswer	Mixed
10.0	1	130.923	0.016	284.181	-1.1	-8.0	17.1563	4.0	955.0	0.4	Outcome2	-15.03	-1.1	4000.0	Yes		13.9343148357871				ShowChoice	Mixed
10.0	1	134.952	0.029	288.21	-1.1	-8.0	17.1563	1.0	955.0	0.4	Outcome2	-15.03	-1.1	4000.0	Yes		13.9343148357871				ShowResult	Mixed
10.0	1	135.972	0.02	289.23	-1.1	-8.0	17.1563	2.0	955.0	0.4	Outcome2	-15.03	-1.1	4000.0	Yes		13.9343148357871				ISITrial	Mixed
10.0	1	142.023	0.028	295.281	-1.1	-8.0	17.1563	2.147	955.0	0.4	Outcome2	-15.03	-1.1	4000.0	Yes		13.9343148357871			280.0	TrialHappiness	Mixed
10.0	1	146.052	4.029	299.31	-1.1	-8.0	17.1563	8.0	955.0	0.4	Outcome2	-15.03	-1.1	4000.0	Yes		13.9343148357871				ISIRate	Mixed
11.0	1	154.076	0.024	307.334	-4.0	-4.0	16.6563	3.0	955.0	1.82	Certain	4.7	-12.79	0.0	No	4.0	17.4892412231031	2.318	156.394		GetAnswer	Gain
11.0	1	156.416	0.022	309.674	-4.0	-4.0	16.6563	4.0	955.0	1.82	Certain	4.7	-12.79	0.0	No		17.4892412231031				ShowChoice	Gain
11.0	1	160.445	0.029	313.703	-4.0	-4.0	16.6563	1.0	955.0	1.82	Certain	4.7	-12.79	0.0	No		17.4892412231031				ShowResult	Gain
11.0	1	161.465	0.02	314.723	-4.0	-4.0	16.6563	3.324	955.0	1.82	Certain	4.7	-12.79	0.0	No		17.4892412231031				ISITrial	Gain
12.0	1	164.808	0.019	318.066	7.1	-2.0	17.5438	3.0	955.0	2.22	Outcome1	7.1	-11.15	2618.75	Yes		18.2536806342016				GetAnswer	Gain
12.0	1	167.834	0.026	321.092	7.1	-2.0	17.5438	4.0	955.0	2.22	Outcome1	7.1	-11.15	2618.75	Yes		18.2536806342016				ShowChoice	Gain
12.0	1	171.863	0.029	325.121	7.1	-2.0	17.5438	1.0	955.0	2.22	Outcome1	7.1	-11.15	2618.75	Yes		18.2536806342016				ShowResult	Gain
12.0	1	172.882	0.019	326.14	7.1	-2.0	17.5438	6.642	955.0	2.22	Outcome1	7.1	-11.15	2618.75	Yes		18.2536806342016				ISITrial	Gain
12.0	1	182.193	0.022	335.451	7.1	-2.0	17.5438	2.298	955.0	2.22	Outcome1	7.1	-11.15	2618.75	Yes		18.2536806342016			320.0	TrialHappiness	Gain
12.0	1	186.222	4.029	339.48	7.1	-2.0	17.5438	2.475	955.0	2.22	Outcome1	7.1	-11.15	2618.75	Yes		18.2536806342016				ISIRate	Gain
13.0	1	188.73	0.033	341.988	9.09	4.54	18.68	3.0	955.0	5.0	Outcome1	9.09	12.3	0.0	No	2.0	-3.2062098905247303	1.028	189.758		GetAnswer	Loss
13.0	1	189.783	0.025	343.041	9.09	4.54	18.68	4.0	955.0	5.0	Outcome1	9.09	12.3	0.0	No		-3.2062098905247303				ShowChoice	Loss
13.0	1	193.812	0.029	347.07	9.09	4.54	18.68	1.0	955.0	5.0	Outcome1	9.09	12.3	0.0	No		-3.2062098905247303				ShowResult	Loss
13.0	1	194.831	0.019	348.089	9.09	4.54	18.68	3.48	955.0	5.0	Outcome1	9.09	12.3	0.0	No		-3.2062098905247303				ISITrial	Loss
14.0	1	198.342	0.031	351.6	4.3	-5.0	19.2175	3.0	955.0	2.0	Outcome2	-14.76	4.3	0.0	No	2.0	19.0577576443941	1.767	200.109		GetAnswer	Mixed
14.0	1	200.131	0.022	353.389	4.3	-5.0	19.2175	4.0	955.0	2.0	Outcome2	-14.76	4.3	0.0	No		19.0577576443941				ShowChoice	Mixed
14.0	1	204.159	0.028	357.417	4.3	-5.0	19.2175	1.0	955.0	2.0	Outcome2	-14.76	4.3	0.0	No		19.0577576443941				ShowResult	Mixed
14.0	1	205.179	0.02	358.437	4.3	-5.0	19.2175	5.019	955.0	2.0	Outcome2	-14.76	4.3	0.0	No		19.0577576443941				ISITrial	Mixed
15.0	1	210.227	0.029	363.485	-8.0	-8.0	18.2175	3.0	955.0	0.66	Certain	-18.48	1.3	3348.5	Yes	4.0	19.7768969422424	1.233	211.46		GetAnswer	Mixed
15.0	1	211.481	0.021	364.739	-8.0	-8.0	18.2175	4.0	955.0	0.66	Certain	-18.48	1.3	3348.5	Yes		19.7768969422424				ShowChoice	Mixed
15.0	1	215.493	0.012	368.751	-8.0	-8.0	18.2175	1.0	955.0	0.66	Certain	-18.48	1.3	3348.5	Yes		19.7768969422424				ShowResult	Mixed
15.0	1	216.513	0.02	369.771	-8.0	-8.0	18.2175	7.614	955.0	0.66	Certain	-18.48	1.3	3348.5	Yes		19.7768969422424				ISITrial	Mixed
15.0	1	227.529	0.029	380.787	-8.0	-8.0	18.2175	3.856	955.0	0.66	Certain	-18.48	1.3	3348.5	Yes		19.7768969422424			316.0	TrialHappiness	Mixed
15.0	1	231.558	4.029	384.816	-8.0	-8.0	18.2175	5.394	955.0	0.66	Certain	-18.48	1.3	3348.5	Yes		19.7768969422424				ISIRate	Mixed
16.0	1	236.974	0.022	390.232	2.7	-7.0	18.555	3.0	955.0	0.3	Outcome2	-17.86	2.7	0.0	No	2.0	20.563986409966	2.35	239.324		GetAnswer	Mixed
16.0	1	239.348	0.024	392.606	2.7	-7.0	18.555	4.0	955.0	0.3	Outcome2	-17.86	2.7	0.0	No		20.563986409966				ShowChoice	Mixed
16.0	1	243.377	0.029	396.635	2.7	-7.0	18.555	1.0	955.0	0.3	Outcome2	-17.86	2.7	0.0	No		20.563986409966				ShowResult	Mixed
16.0	1	244.396	0.019	397.654	2.7	-7.0	18.555	3.008	955.0	0.3	Outcome2	-17.86	2.7	0.0	No		20.563986409966				ISITrial	Mixed
17.0	1	247.439	0.035	400.697	-9.0	-9.0	17.43	3.0	955.0	1.0	Certain	-19.59	1.7	3041.5	Yes	4.0	21.287655719139302	1.371	248.81		GetAnswer	Mixed
17.0	1	248.826	0.016	402.084	-9.0	-9.0	17.43	4.0	955.0	1.0	Certain	-19.59	1.7	3041.5	Yes		21.287655719139302				ShowChoice	Mixed
17.0	1	252.838	0.012	406.096	-9.0	-9.0	17.43	1.0	955.0	1.0	Certain	-19.59	1.7	3041.5	Yes		21.287655719139302				ShowResult	Mixed
17.0	1	253.858	0.02	407.116	-9.0	-9.0	17.43	3.566	955.0	1.0	Certain	-19.59	1.7	3041.5	Yes		21.287655719139302				ISITrial	Mixed
17.0	1	260.511	0.017	413.769	-9.0	-9.0	17.43	2.28	955.0	1.0	Certain	-19.59	1.7	3041.5	Yes		21.287655719139302			320.0	TrialHappiness	Mixed
17.0	1	264.54	4.029	417.798	-9.0	-9.0	17.43	4.166	955.0	1.0	Certain	-19.59	1.7	3041.5	Yes		21.287655719139302				ISIRate	Mixed
18.0	1	268.736	0.03	421.994	11.7	0.0	18.8925	3.0	955.0	3.16	Outcome1	11.7	-10.24	0.0	No	2.0	21.9433748584371	1.25	269.986		GetAnswer	Loss
18.0	1	270.006	0.02	423.264	11.7	0.0	18.8925	4.0	955.0	3.16	Outcome1	11.7	-10.24	0.0	No		21.9433748584371				ShowChoice	Loss
18.0	1	274.018	0.012	427.276	11.7	0.0	18.8925	1.0	955.0	3.16	Outcome1	11.7	-10.24	0.0	No		21.9433748584371				ShowResult	Loss
18.0	1	275.038	0.02	428.296	11.7	0.0	18.8925	6.787	955.0	3.16	Outcome1	11.7	-10.24	0.0	No		21.9433748584371				ISITrial	Loss
19.0	1	281.858	0.033	435.116	-10.0	-10.0	17.6425	3.0	955.0	0.52	Certain	1.1	-21.56	0.0	No	4.0	22.6625141562854	1.692	283.55		GetAnswer	Mixed
19.0	1	283.58	0.03	436.838	-10.0	-10.0	17.6425	4.0	955.0	0.52	Certain	1.1	-21.56	0.0	No		22.6625141562854				ShowChoice	Mixed
19.0	1	287.609	0.029	440.867	-10.0	-10.0	17.6425	1.0	955.0	0.52	Certain	1.1	-21.56	0.0	No		22.6625141562854				ShowResult	Mixed
19.0	1	288.629	0.02	441.887	-10.0	-10.0	17.6425	2.0	955.0	0.52	Certain	1.1	-21.56	0.0	No		22.6625141562854				ISITrial	Mixed
20.0	1	290.651	0.022	443.909	11.5	0.0	19.08	3.0	955.0	2.8	Outcome1	11.5	-11.88	2921.25	Yes	2.0	23.381653454133602	1.233	291.884		GetAnswer	Loss
20.0	1	291.905	0.021	445.163	11.5	0.0	19.08	4.0	955.0	2.8	Outcome1	11.5	-11.88	2921.25	Yes		23.381653454133602				ShowChoice	Loss
20.0	1	295.934	0.029	449.192	11.5	0.0	19.08	1.0	955.0	2.8	Outcome1	11.5	-11.88	2921.25	Yes		23.381653454133602				ShowResult	Loss
20.0	1	296.954	0.02	450.212	11.5	0.0	19.08	8.0	955.0	2.8	Outcome1	11.5	-11.88	2921.25	Yes		23.381653454133602				ISITrial	Loss
20.0	1	307.92	0.021	461.178	11.5	0.0	19.08	2.381	955.0	2.8	Outcome1	11.5	-11.88	2921.25	Yes		23.381653454133602			376.0	TrialHappiness	Loss
20.0	1	311.949	4.029	465.207	11.5	0.0	19.08	3.685	955.0	2.8	Outcome1	11.5	-11.88	2921.25	Yes		23.381653454133602				ISIRate	Loss
21.0	1	315.66	0.026	468.918	3.3	-8.0	19.4925	3.0	955.0	0.66	Outcome2	-19.85	3.3	0.0	No	2.0	23.1494903737259	2.074	317.734		GetAnswer	Mixed
21.0	1	317.749	0.015	471.007	3.3	-8.0	19.4925	4.0	955.0	0.66	Outcome2	-19.85	3.3	0.0	No		23.1494903737259				ShowChoice	Mixed
21.0	1	321.778	0.029	475.036	3.3	-8.0	19.4925	1.0	955.0	0.66	Outcome2	-19.85	3.3	0.0	No		23.1494903737259				ShowResult	Mixed
21.0	1	322.798	0.02	476.056	3.3	-8.0	19.4925	3.555	955.0	0.66	Outcome2	-19.85	3.3	0.0	No		23.1494903737259				ISITrial	Mixed
22.0	1	326.375	0.022	479.633	9.9	-2.0	20.73	3.0	955.0	3.6	Outcome2	-13.91	9.9	3219.5	Yes	2.0	23.8052095130238	1.575	327.95		GetAnswer	Gain
22.0	1	327.98	0.03	481.238	9.9	-2.0	20.73	4.0	955.0	3.6	Outcome2	-13.91	9.9	3219.5	Yes		23.8052095130238				ShowChoice	Gain
22.0	1	332.009	0.029	485.267	9.9	-2.0	20.73	1.0	955.0	3.6	Outcome2	-13.91	9.9	3219.5	Yes		23.8052095130238				ShowResult	Gain
22.0	1	333.028	0.019	486.286	9.9	-2.0	20.73	6.793	955.0	3.6	Outcome2	-13.91	9.9	3219.5	Yes		23.8052095130238				ISITrial	Gain
22.0	1	343.092	0.023	496.35	9.9	-2.0	20.73	2.296	955.0	3.6	Outcome2	-13.91	9.9	3219.5	Yes		23.8052095130238			360.0	TrialHappiness	Gain
22.0	1	347.12	4.028	500.378	9.9	-2.0	20.73	4.878	955.0	3.6	Outcome2	-13.91	9.9	3219.5	Yes		23.8052095130238				ISIRate	Gain
23.0	1	352.018	0.02	505.276	10.1	-2.0	21.9925	3.0	955.0	4.2	Outcome2	-14.63	10.1	0.0	No	2.0	24.7327293318233	1.395	353.413		GetAnswer	Gain
23.0	1	353.439	0.026	506.697	10.1	-2.0	21.9925	4.0	955.0	4.2	Outcome2	-14.63	10.1	0.0	No		24.7327293318233				ShowChoice	Gain
23.0	1	357.468	0.029	510.726	10.1	-2.0	21.9925	1.0	955.0	4.2	Outcome2	-14.63	10.1	0.0	No		24.7327293318233				ShowResult	Gain
23.0	1	358.488	0.02	511.746	10.1	-2.0	21.9925	8.0	955.0	4.2	Outcome2	-14.63	10.1	0.0	No		24.7327293318233				ISITrial	Gain
24.0	1	366.512	0.024	519.77	-3.0	-3.0	21.6175	3.0	955.0	2.22	Certain	-16.31	9.1	3255.0	Yes	4.0	25.4065685164213	2.158	368.67		GetAnswer	Gain
24.0	1	368.685	0.015	521.943	-3.0	-3.0	21.6175	4.0	955.0	2.22	Certain	-16.31	9.1	3255.0	Yes		25.4065685164213				ShowChoice	Gain
24.0	1	372.714	0.029	525.972	-3.0	-3.0	21.6175	1.0	955.0	2.22	Certain	-16.31	9.1	3255.0	Yes		25.4065685164213				ShowResult	Gain
24.0	1	373.733	0.019	526.991	-3.0	-3.0	21.6175	2.0	955.0	2.22	Certain	-16.31	9.1	3255.0	Yes		25.4065685164213				ISITrial	Gain
24.0	1	379.033	0.022	532.291	-3.0	-3.0	21.6175	1.796	955.0	2.22	Certain	-16.31	9.1	3255.0	Yes		25.4065685164213			264.0	TrialHappiness	Gain
24.0	1	383.061	4.028	536.319	-3.0	-3.0	21.6175	5.02	955.0	2.22	Certain	-16.31	9.1	3255.0	Yes		25.4065685164213				ISIRate	Gain
25.0	1	388.11	0.029	541.368	10.7	-3.0	22.955	3.0	955.0	1.82	Outcome2	-17.01	10.7	0.0	No	2.0	27.711211778029398	1.246	389.356		GetAnswer	Loss
25.0	1	389.38	0.024	542.638	10.7	-3.0	22.955	4.0	955.0	1.82	Outcome2	-17.01	10.7	0.0	No		27.711211778029398				ShowChoice	Loss
25.0	1	393.392	0.012	546.65	10.7	-3.0	22.955	1.0	955.0	1.82	Outcome2	-17.01	10.7	0.0	No		27.711211778029398				ShowResult	Loss
25.0	1	394.412	0.02	547.67	10.7	-3.0	22.955	3.749	955.0	1.82	Outcome2	-17.01	10.7	0.0	No		27.711211778029398				ISITrial	Loss
26.0	1	398.19	0.029	551.448	-8.0	-8.0	21.955	3.0	955.0	3.16	Certain	-22.79	5.7	0.0	No	4.0	28.4937712344281	1.372	399.562		GetAnswer	Gain
26.0	1	399.577	0.015	552.835	-8.0	-8.0	21.955	4.0	955.0	3.16	Certain	-22.79	5.7	0.0	No		28.4937712344281				ShowChoice	Gain
26.0	1	403.606	0.029	556.864	-8.0	-8.0	21.955	1.0	955.0	3.16	Certain	-22.79	5.7	0.0	No		28.4937712344281				ShowResult	Gain
26.0	1	404.626	0.02	557.884	-8.0	-8.0	21.955	7.834	955.0	3.16	Certain	-22.79	5.7	0.0	No		28.4937712344281				ISITrial	Gain
27.0	1	412.483	0.023	565.741	-8.0	-8.0	20.955	3.0	955.0	5.0	Certain	-22.98	6.3	2549.75	Yes	4.0	29.276330690826697	2.626	415.109		GetAnswer	Gain
27.0	1	415.124	0.015	568.382	-8.0	-8.0	20.955	4.0	955.0	5.0	Certain	-22.98	6.3	2549.75	Yes		29.276330690826697				ShowChoice	Gain
27.0	1	419.153	0.029	572.411	-8.0	-8.0	20.955	1.0	955.0	5.0	Certain	-22.98	6.3	2549.75	Yes		29.276330690826697				ShowResult	Gain
27.0	1	420.172	0.019	573.43	-8.0	-8.0	20.955	4.225	955.0	5.0	Certain	-22.98	6.3	2549.75	Yes		29.276330690826697				ISITrial	Gain
27.0	1	426.993	0.024	580.251	-8.0	-8.0	20.955	1.896	955.0	5.0	Certain	-22.98	6.3	2549.75	Yes	{-4}4{-4}4{-4}4{-4}	29.276330690826697	1.896	428.889	232.0	TrialHappiness	Gain
27.0	1	431.005	4.012	584.263	-8.0	-8.0	20.955	2.199	955.0	5.0	Certain	-22.98	6.3	2549.75	Yes		29.276330690826697				ISIRate	Gain
	1	433.228	0.024	586.486				-0.001								{SPACE}		83.674	516.902		Rest	
	1	516.929	0.027	670.187				4.0													BlockHappyPreview	
	1	520.941	0.012	674.199				3.935												452.0	BlockStartHappiness	
	1	534.548	0.015	687.806				-0.001								5.0		6.209	540.757		ScanWait	
	2	0.027	0.027	694.042				10.0													GetReady	
28.0	2	10.04	0.013	704.055	-3.4	0.0	20.53	3.0	70.0	0.52	Outcome1	-3.4	3.1	0.0	No	2.0	-6.4965986394557795	1.284	11.324		GetAnswer	Mixed
28.0	2	11.344	0.02	705.359	-3.4	0.0	20.53	4.0	70.0	0.52	Outcome1	-3.4	3.1	0.0	No		-6.4965986394557795				ShowChoice	Mixed
28.0	2	15.356	0.012	709.371	-3.4	0.0	20.53	1.0	70.0	0.52	Outcome1	-3.4	3.1	0.0	No		-6.4965986394557795				ShowResult	Mixed
28.0	2	16.375	0.019	710.39	-3.4	0.0	20.53	3.575	70.0	0.52	Outcome1	-3.4	3.1	0.0	No		-6.4965986394557795				ISITrial	Mixed
29.0	2	19.97	0.02	713.985	-0.43	-0.22	20.4762	3.0	70.0	1.68	Outcome2	6.5	-0.43	3529.0	Yes	2.0	-6.9297052154195	1.455	21.425		GetAnswer	Gain
29.0	2	21.441	0.016	715.456	-0.43	-0.22	20.4762	4.0	70.0	1.68	Outcome2	6.5	-0.43	3529.0	Yes		-6.9297052154195				ShowChoice	Gain
29.0	2	25.453	0.012	719.468	-0.43	-0.22	20.4762	1.0	70.0	1.68	Outcome2	6.5	-0.43	3529.0	Yes		-6.9297052154195				ShowResult	Gain
29.0	2	26.472	0.019	720.487	-0.43	-0.22	20.4762	3.955	70.0	1.68	Outcome2	6.5	-0.43	3529.0	Yes		-6.9297052154195				ISITrial	Gain
29.0	2	33.995	0.015	728.01	-0.43	-0.22	20.4762	2.083	70.0	1.68	Outcome2	6.5	-0.43	3529.0	Yes		-6.9297052154195			376.0	TrialHappiness	Gain
29.0	2	38.007	4.012	732.022	-0.43	-0.22	20.4762	6.116	70.0	1.68	Outcome2	6.5	-0.43	3529.0	Yes		-6.9297052154195				ISIRate	Gain
30.0	2	44.142	0.019	738.157	1.48	1.0	20.6612	3.0	70.0	3.6	Outcome2	0.16	1.48	0.0	No	2.0	1.3153817082388501	1.493	45.635		GetAnswer	Gain
30.0	2	45.663	0.028	739.678	1.48	1.0	20.6612	4.0	70.0	3.6	Outcome2	0.16	1.48	0.0	No		1.3153817082388501				ShowChoice	Gain
30.0	2	49.675	0.012	743.69	1.48	1.0	20.6612	1.0	70.0	3.6	Outcome2	0.16	1.48	0.0	No		1.3153817082388501				ShowResult	Gain
30.0	2	50.695	0.02	744.71	1.48	1.0	20.6612	4.453	70.0	3.6	Outcome2	0.16	1.48	0.0	No		1.3153817082388501				ISITrial	Gain
31.0	2	55.175	0.027	749.19	0.0	0.0	20.6612	3.0	70.0	2.0	Certain	0.08	-1.26	2503.25	Yes	4.0	1.3442932728647	2.126	57.301		GetAnswer	Mixed
31.0	2	57.315	0.014	751.33	0.0	0.0	20.6612	4.0	70.0	2.0	Certain	0.08	-1.26	2503.25	Yes		1.3442932728647				ShowChoice	Mixed
31.0	2	61.327	0.012	755.342	0.0	0.0	20.6612	1.0	70.0	2.0	Certain	0.08	-1.26	2503.25	Yes		1.3442932728647				ShowResult	Mixed
31.0	2	62.346	0.019	756.361	0.0	0.0	20.6612	4.786	70.0	2.0	Certain	0.08	-1.26	2503.25	Yes		1.3442932728647				ISITrial	Mixed
31.0	2	69.668	0.021	763.683	0.0	0.0	20.6612	0.912	70.0	2.0	Certain	0.08	-1.26	2503.25	Yes		1.3442932728647			404.0	TrialHappiness	Mixed
31.0	2	73.68	4.012	767.695	0.0	0.0	20.6612	2.013	70.0	2.0	Certain	0.08	-1.26	2503.25	Yes		1.3442932728647				ISIRate	Mixed
32.0	2	75.72	0.027	769.735	-1.14	2.0	20.5187	3.0	70.0	4.2	Outcome1	-1.14	6.1	0.0	No	2.0	-7.240362811791379	1.272	76.992		GetAnswer	Gain
32.0	2	77.007	0.015	771.022	-1.14	2.0	20.5187	4.0	70.0	4.2	Outcome1	-1.14	6.1	0.0	No		-7.240362811791379				ShowChoice	Gain
32.0	2	81.019	0.012	775.034	-1.14	2.0	20.5187	1.0	70.0	4.2	Outcome1	-1.14	6.1	0.0	No		-7.240362811791379				ShowResult	Gain
32.0	2	82.039	0.02	776.054	-1.14	2.0	20.5187	2.0	70.0	4.2	Outcome1	-1.14	6.1	0.0	No		-7.240362811791379				ISITrial	Gain
33.0	2	84.061	0.022	778.076	-7.72	-4.0	19.5537	3.0	70.0	1.2	Outcome2	-0.1	-7.72	0.0	No	2.0	-7.61904761904762	2.459	86.52		GetAnswer	Mixed
33.0	2	86.535	0.015	780.55	-7.72	-4.0	19.5537	4.0	70.0	1.2	Outcome2	-0.1	-7.72	0.0	No		-7.61904761904762				ShowChoice	Mixed
33.0	2	90.547	0.012	784.562	-7.72	-4.0	19.5537	1.0	70.0	1.2	Outcome2	-0.1	-7.72	0.0	No		-7.61904761904762				ShowResult	Mixed
33.0	2	91.567	0.02	785.582	-7.72	-4.0	19.5537	5.099	70.0	1.2	Outcome2	-0.1	-7.72	0.0	No		-7.61904761904762				ISITrial	Mixed
34.0	2	96.682	0.016	790.697	1.65	1.65	19.7599	3.0	70.0	2.48	Certain	3.3	11.3	3231.5	Yes	4.0	-7.997732426303849	0.232	96.914		GetAnswer	Loss
34.0	2	96.933	0.019	790.948	1.65	1.65	19.7599	4.0	70.0	2.48	Certain	3.3	11.3	3231.5	Yes		-7.997732426303849				ShowChoice	Loss
34.0	2	100.945	0.012	794.96	1.65	1.65	19.7599	1.0	70.0	2.48	Certain	3.3	11.3	3231.5	Yes		-7.997732426303849				ShowResult	Loss
34.0	2	101.965	0.02	795.98	1.65	1.65	19.7599	4.784	70.0	2.48	Certain	3.3	11.3	3231.5	Yes		-7.997732426303849				ISITrial	Loss
34.0	2	110.022	0.027	804.037	1.65	1.65	19.7599	0.91	70.0	2.48	Certain	3.3	11.3	3231.5	Yes		-7.997732426303849			304.0	TrialHappiness	Loss
34.0	2	114.034	4.012	808.049	1.65	1.65	19.7599	4.926	70.0	2.48	Certain	3.3	11.3	3231.5	Yes		-7.997732426303849				ISIRate	Loss
35.0	2	118.983	0.023	812.998	2.62	2.0	20.0874	3.0	70.0	1.68	Outcome1	2.62	1.44	0.0	No	2.0	1.1753590325018899	0.98	119.963		GetAnswer	Loss
35.0	2	119.986	0.023	814.001	2.62	2.0	20.0874	4.0	70.0	1.68	Outcome1	2.62	1.44	0.0	No		1.1753590325018899				ShowChoice	Loss
35.0	2	123.998	0.012	818.013	2.62	2.0	20.0874	1.0	70.0	1.68	Outcome1	2.62	1.44	0.0	No		1.1753590325018899				ShowResult	Loss
35.0	2	125.017	0.019	819.032	2.62	2.0	20.0874	2.098	70.0	1.68	Outcome1	2.62	1.44	0.0	No		1.1753590325018899				ISITrial	Loss
36.0	2	127.14	0.025	821.155	0.0	0.0	20.0874	3.0	70.0	1.0	Certain	-1.28	-0.08	3335.75	Yes	4.0	1.1974678760393	1.66	128.8		GetAnswer	Mixed
36.0	2	128.812	0.012	822.827	0.0	0.0	20.0874	4.0	70.0	1.0	Certain	-1.28	-0.08	3335.75	Yes		1.1974678760393				ShowChoice	Mixed
36.0	2	132.824	0.012	826.839	0.0	0.0	20.0874	1.0	70.0	1.0	Certain	-1.28	-0.08	3335.75	Yes		1.1974678760393				ShowResult	Mixed
36.0	2	133.844	0.02	827.859	0.0	0.0	20.0874	5.156	70.0	1.0	Certain	-1.28	-0.08	3335.75	Yes		1.1974678760393				ISITrial	Mixed
36.0	2	142.386	0.024	836.401	0.0	0.0	20.0874	1.512	70.0	1.0	Certain	-1.28	-0.08	3335.75	Yes		1.1974678760393			296.0	TrialHappiness	Mixed
36.0	2	146.398	4.012	840.413	0.0	0.0	20.0874	5.343	70.0	1.0	Certain	-1.28	-0.08	3335.75	Yes		1.1974678760393				ISIRate	Mixed
37.0	2	151.764	0.023	845.779	6.23	3.12	20.8662	3.0	70.0	2.48	Outcome1	6.23	13.3	0.0	No	2.0	-7.0702947845805	1.014	152.778		GetAnswer	Loss
37.0	2	152.8	0.022	846.815	6.23	3.12	20.8662	4.0	70.0	2.48	Outcome1	6.23	13.3	0.0	No		-7.0702947845805				ShowChoice	Loss
37.0	2	156.812	0.012	850.827	6.23	3.12	20.8662	1.0	70.0	2.48	Outcome1	6.23	13.3	0.0	No		-7.0702947845805				ShowResult	Loss
37.0	2	157.832	0.02	851.847	6.23	3.12	20.8662	3.598	70.0	2.48	Outcome1	6.23	13.3	0.0	No		-7.0702947845805				ISITrial	Loss
38.0	2	161.46	0.03	855.475	2.97	1.48	21.2375	3.0	70.0	5.0	Outcome2	10.3	2.97	0.0	No	2.0	-7.3265306122449	1.189	162.649		GetAnswer	Gain
38.0	2	162.663	0.014	856.678	2.97	1.48	21.2375	4.0	70.0	5.0	Outcome2	10.3	2.97	0.0	No		-7.3265306122449				ShowChoice	Gain
38.0	2	166.675	0.012	860.69	2.97	1.48	21.2375	1.0	70.0	5.0	Outcome2	10.3	2.97	0.0	No		-7.3265306122449				ShowResult	Gain
38.0	2	167.695	0.02	861.71	2.97	1.48	21.2375	4.787	70.0	5.0	Outcome2	10.3	2.97	0.0	No		-7.3265306122449				ISITrial	Gain
39.0	2	172.509	0.027	866.524	2.02	1.0	21.49	3.0	70.0	4.2	Outcome1	2.02	0.79	2864.25	Yes	2.0	1.22978080120937	1.328	173.837		GetAnswer	Gain
39.0	2	173.864	0.027	867.879	2.02	1.0	21.49	4.0	70.0	4.2	Outcome1	2.02	0.79	2864.25	Yes		1.22978080120937				ShowChoice	Gain
39.0	2	177.876	0.012	871.891	2.02	1.0	21.49	1.0	70.0	4.2	Outcome1	2.02	0.79	2864.25	Yes		1.22978080120937				ShowResult	Gain
39.0	2	178.895	0.019	872.91	2.02	1.0	21.49	2.348	70.0	4.2	Outcome1	2.02	0.79	2864.25	Yes		1.22978080120937				ISITrial	Gain
39.0	2	184.161	0.028	878.176	2.02	1.0	21.49	3.636	70.0	4.2	Outcome1	2.02	0.79	2864.25	Yes		1.22978080120937			376.0	TrialHappiness	Gain
39.0	2	188.173	4.012	882.188	2.02	1.0	21.49	3.457	70.0	4.2	Outcome1	2.02	0.79	2864.25	Yes		1.22978080120937				ISIRate	Gain
40.0	2	191.65	0.02	885.665	1.98	1.0	21.7375	3.0	70.0	3.6	Outcome2	0.4	1.98	0.0	No	2.0	1.57615268329554	1.254	192.904		GetAnswer	Gain
40.0	2	192.921	0.016	886.936	1.98	1.0	21.7375	4.0	70.0	3.6	Outcome2	0.4	1.98	0.0	No		1.57615268329554				ShowChoice	Gain
40.0	2	196.933	0.012	890.948	1.98	1.0	21.7375	1.0	70.0	3.6	Outcome2	0.4	1.98	0.0	No		1.57615268329554				ShowResult	Gain
40.0	2	197.952	0.019	891.967	1.98	1.0	21.7375	3.158	70.0	3.6	Outcome2	0.4	1.98	0.0	No		1.57615268329554				ISITrial	Gain
41.0	2	201.128	0.018	895.143	3.35	1.68	22.1563	3.0	70.0	2.0	Outcome1	3.35	12.9	4000.0	Yes	2.0	-9.54648526077098	1.247	202.375		GetAnswer	Loss
41.0	2	202.399	0.024	896.414	3.35	1.68	22.1563	4.0	70.0	2.0	Outcome1	3.35	12.9	4000.0	Yes		-9.54648526077098				ShowChoice	Loss
41.0	2	206.411	0.012	900.426	3.35	1.68	22.1563	1.0	70.0	2.0	Outcome1	3.35	12.9	4000.0	Yes		-9.54648526077098				ShowResult	Loss
41.0	2	207.431	0.02	901.446	3.35	1.68	22.1563	4.506	70.0	2.0	Outcome1	3.35	12.9	4000.0	Yes		-9.54648526077098				ISITrial	Loss
41.0	2	215.99	0.029	910.005	3.35	1.68	22.1563	2.748	70.0	2.0	Outcome1	3.35	12.9	4000.0	Yes		-9.54648526077098			376.0	TrialHappiness	Loss
41.0	2	220.002	4.012	914.017	3.35	1.68	22.1563	8.0	70.0	2.0	Outcome1	3.35	12.9	4000.0	Yes		-9.54648526077098				ISIRate	Loss
42.0	2	228.026	0.024	922.041	3.42	2.0	22.5838	3.0	70.0	3.16	Outcome1	3.42	1.79	0.0	No	2.0	1.63397581254724	0.949	228.975		GetAnswer	Loss
42.0	2	228.995	0.02	923.01	3.42	2.0	22.5838	4.0	70.0	3.16	Outcome1	3.42	1.79	0.0	No		1.63397581254724				ShowChoice	Loss
42.0	2	233.007	0.012	927.022	3.42	2.0	22.5838	1.0	70.0	3.16	Outcome1	3.42	1.79	0.0	No		1.63397581254724				ShowResult	Loss
42.0	2	234.027	0.02	928.042	3.42	2.0	22.5838	6.248	70.0	3.16	Outcome1	3.42	1.79	0.0	No		1.63397581254724				ISITrial	Loss
43.0	2	240.296	0.021	934.311	-3.34	2.0	22.1663	3.0	70.0	2.0	Outcome2	6.9	-3.34	2775.75	Yes	2.0	-10.240362811791401	1.625	241.921		GetAnswer	Gain
43.0	2	241.934	0.012	935.949	-3.34	2.0	22.1663	4.0	70.0	2.0	Outcome2	6.9	-3.34	2775.75	Yes		-10.240362811791401				ShowChoice	Gain
43.0	2	245.946	0.012	939.961	-3.34	2.0	22.1663	1.0	70.0	2.0	Outcome2	6.9	-3.34	2775.75	Yes		-10.240362811791401				ShowResult	Gain
43.0	2	246.966	0.02	940.981	-3.34	2.0	22.1663	4.596	70.0	2.0	Outcome2	6.9	-3.34	2775.75	Yes		-10.240362811791401				ISITrial	Gain
43.0	2	254.371	0.016	948.386	-3.34	2.0	22.1663	2.156	70.0	2.0	Outcome2	6.9	-3.34	2775.75	Yes	4{-4}2{-2}2{-2}	-10.240362811791401	2.156	256.527	372.0	TrialHappiness	Gain
43.0	2	258.4	4.029	952.415	-3.34	2.0	22.1663	3.103	70.0	2.0	Outcome2	6.9	-3.34	2775.75	Yes		-10.240362811791401				ISIRate	Gain
44.0	2	261.526	0.023	955.541	-11.82	-6.0	20.6888	3.0	70.0	0.3	Outcome1	-11.82	-1.3	0.0	No	2.0	-10.519274376417199	1.734	263.26		GetAnswer	Mixed
44.0	2	263.281	0.021	957.296	-11.82	-6.0	20.6888	4.0	70.0	0.3	Outcome1	-11.82	-1.3	0.0	No		-10.519274376417199				ShowChoice	Mixed
44.0	2	267.293	0.012	961.308	-11.82	-6.0	20.6888	1.0	70.0	0.3	Outcome1	-11.82	-1.3	0.0	No		-10.519274376417199				ShowResult	Mixed
44.0	2	268.313	0.02	962.328	-11.82	-6.0	20.6888	2.42	70.0	0.3	Outcome1	-11.82	-1.3	0.0	No		-10.519274376417199				ISITrial	Mixed
45.0	2	270.754	0.021	964.769	1.27	0.0	20.8476	3.0	70.0	2.22	Outcome1	1.27	-0.43	0.0	No	2.0	1.70408163265306	1.415	272.169		GetAnswer	Gain
45.0	2	272.191	0.022	966.206	1.27	0.0	20.8476	4.0	70.0	2.22	Outcome1	1.27	-0.43	0.0	No		1.70408163265306				ShowChoice	Gain
45.0	2	276.203	0.012	970.218	1.27	0.0	20.8476	1.0	70.0	2.22	Outcome1	1.27	-0.43	0.0	No		1.70408163265306				ShowResult	Gain
45.0	2	277.223	0.02	971.238	1.27	0.0	20.8476	3.144	70.0	2.22	Outcome1	1.27	-0.43	0.0	No		1.70408163265306				ISITrial	Gain
46.0	2	280.399	0.032	974.414	3.02	2.0	21.2251	3.0	70.0	4.2	Outcome1	3.02	1.29	3841.25	Yes	2.0	1.73261526832955	1.157	281.556		GetAnswer	Loss
46.0	2	281.569	0.013	975.584	3.02	2.0	21.2251	4.0	70.0	4.2	Outcome1	3.02	1.29	3841.25	Yes		1.73261526832955				ShowChoice	Loss
46.0	2	285.581	0.012	979.596	3.02	2.0	21.2251	1.0	70.0	4.2	Outcome1	3.02	1.29	3841.25	Yes		1.73261526832955				ShowResult	Loss
46.0	2	286.601	0.02	980.616	3.02	2.0	21.2251	2.246	70.0	4.2	Outcome1	3.02	1.29	3841.25	Yes		1.73261526832955				ISITrial	Loss
46.0	2	292.719	0.02	986.734	3.02	2.0	21.2251	1.663	70.0	4.2	Outcome1	3.02	1.29	3841.25	Yes		1.73261526832955			376.0	TrialHappiness	Loss
46.0	2	296.731	4.012	990.746	3.02	2.0	21.2251	7.365	70.0	4.2	Outcome1	3.02	1.29	3841.25	Yes		1.73261526832955				ISIRate	Loss
47.0	2	304.12	0.024	998.135	-7.71	-2.0	20.2613	3.0	70.0	1.2	Outcome1	-7.71	3.9	0.0	No	2.0	-11.6145124716553	2.326	306.446		GetAnswer	Mixed
47.0	2	306.46	0.014	1000.475	-7.71	-2.0	20.2613	4.0	70.0	1.2	Outcome1	-7.71	3.9	0.0	No		-11.6145124716553				ShowChoice	Mixed
47.0	2	310.472	0.012	1004.487	-7.71	-2.0	20.2613	1.0	70.0	1.2	Outcome1	-7.71	3.9	0.0	No		-11.6145124716553				ShowResult	Mixed
47.0	2	311.492	0.02	1005.507	-7.71	-2.0	20.2613	2.0	70.0	1.2	Outcome1	-7.71	3.9	0.0	No		-11.6145124716553				ISITrial	Mixed
48.0	2	313.515	0.023	1007.53	-7.86	-2.0	19.2788	3.0	70.0	1.5	Outcome2	4.1	-7.86	2831.75	Yes	2.0	-11.9614512471655	1.28	314.795		GetAnswer	Mixed
48.0	2	314.819	0.024	1008.834	-7.86	-2.0	19.2788	4.0	70.0	1.5	Outcome2	4.1	-7.86	2831.75	Yes		-11.9614512471655				ShowChoice	Mixed
48.0	2	318.831	0.012	1012.846	-7.86	-2.0	19.2788	1.0	70.0	1.5	Outcome2	4.1	-7.86	2831.75	Yes		-11.9614512471655				ShowResult	Mixed
48.0	2	319.851	0.02	1013.866	-7.86	-2.0	19.2788	3.692	70.0	1.5	Outcome2	4.1	-7.86	2831.75	Yes		-11.9614512471655				ISITrial	Mixed
48.0	2	326.42	0.026	1020.435	-7.86	-2.0	19.2788	1.863	70.0	1.5	Outcome2	4.1	-7.86	2831.75	Yes		-11.9614512471655			256.0	TrialHappiness	Mixed
48.0	2	330.432	4.012	1024.447	-7.86	-2.0	19.2788	3.327	70.0	1.5	Outcome2	4.1	-7.86	2831.75	Yes		-11.9614512471655				ISIRate	Mixed
49.0	2	333.776	0.017	1027.791	0.88	0.0	19.3888	3.0	70.0	0.82	Outcome2	-0.47	0.88	0.0	No	2.0	1.34769463340892	2.155	335.931		GetAnswer	Mixed
49.0	2	335.949	0.018	1029.964	0.88	0.0	19.3888	4.0	70.0	0.82	Outcome2	-0.47	0.88	0.0	No		1.34769463340892				ShowChoice	Mixed
49.0	2	339.961	0.012	1033.976	0.88	0.0	19.3888	1.0	70.0	0.82	Outcome2	-0.47	0.88	0.0	No		1.34769463340892				ShowResult	Mixed
49.0	2	340.98	0.019	1034.995	0.88	0.0	19.3888	8.0	70.0	0.82	Outcome2	-0.47	0.88	0.0	No		1.34769463340892				ISITrial	Mixed
50.0	2	349.004	0.024	1043.019	3.42	1.71	19.8163	3.0	70.0	3.6	Outcome1	3.42	13.9	3547.25	Yes	2.0	-10.4784580498866	0.953	349.957		GetAnswer	Loss
50.0	2	349.974	0.017	1043.989	3.42	1.71	19.8163	4.0	70.0	3.6	Outcome1	3.42	13.9	3547.25	Yes		-10.4784580498866				ShowChoice	Loss
50.0	2	353.986	0.012	1048.001	3.42	1.71	19.8163	1.0	70.0	3.6	Outcome1	3.42	13.9	3547.25	Yes		-10.4784580498866				ShowResult	Loss
50.0	2	355.006	0.02	1049.021	3.42	1.71	19.8163	7.537	70.0	3.6	Outcome1	3.42	13.9	3547.25	Yes		-10.4784580498866				ISITrial	Loss
50.0	2	366.139	0.03	1060.154	3.42	1.71	19.8163	1.311	70.0	3.6	Outcome1	3.42	13.9	3547.25	Yes		-10.4784580498866			384.0	TrialHappiness	Loss
50.0	2	370.151	4.012	1064.166	3.42	1.71	19.8163	6.189	70.0	3.6	Outcome1	3.42	13.9	3547.25	Yes		-10.4784580498866				ISIRate	Loss
51.0	2	376.37	0.03	1070.385	-4.0	-4.0	19.3163	3.0	70.0	1.2	Certain	1.9	-10.97	0.0	No	4.0	-12.866213151927399	1.576	377.946		GetAnswer	Mixed
51.0	2	377.958	0.012	1071.973	-4.0	-4.0	19.3163	4.0	70.0	1.2	Certain	1.9	-10.97	0.0	No		-12.866213151927399				ShowChoice	Mixed
51.0	2	381.97	0.012	1075.985	-4.0	-4.0	19.3163	1.0	70.0	1.2	Certain	1.9	-10.97	0.0	No		-12.866213151927399				ShowResult	Mixed
51.0	2	382.99	0.02	1077.005	-4.0	-4.0	19.3163	5.508	70.0	1.2	Certain	1.9	-10.97	0.0	No		-12.866213151927399				ISITrial	Mixed
52.0	2	388.523	0.025	1082.538	-13.72	-7.0	17.6013	3.0	70.0	0.82	Outcome2	-0.5	-13.72	0.0	No	2.0	-13.2222222222222	2.017	390.54		GetAnswer	Mixed
52.0	2	390.562	0.022	1084.577	-13.72	-7.0	17.6013	4.0	70.0	0.82	Outcome2	-0.5	-13.72	0.0	No		-13.2222222222222				ShowChoice	Mixed
52.0	2	394.574	0.012	1088.589	-13.72	-7.0	17.6013	1.0	70.0	0.82	Outcome2	-0.5	-13.72	0.0	No		-13.2222222222222				ShowResult	Mixed
52.0	2	395.594	0.02	1089.609	-13.72	-7.0	17.6013	5.913	70.0	0.82	Outcome2	-0.5	-13.72	0.0	No		-13.2222222222222				ISITrial	Mixed
53.0	2	401.528	0.021	1095.543	-9.88	-3.0	16.3663	3.0	70.0	1.0	Outcome1	-9.88	3.7	2996.75	Yes	2.0	-13.578231292517	1.361	402.889		GetAnswer	Mixed
53.0	2	402.916	0.027	1096.931	-9.88	-3.0	16.3663	4.0	70.0	1.0	Outcome1	-9.88	3.7	2996.75	Yes		-13.578231292517				ShowChoice	Mixed
53.0	2	406.928	0.012	1100.943	-9.88	-3.0	16.3663	1.0	70.0	1.0	Outcome1	-9.88	3.7	2996.75	Yes		-13.578231292517				ShowResult	Mixed
53.0	2	407.948	0.02	1101.963	-9.88	-3.0	16.3663	3.66	70.0	1.0	Outcome1	-9.88	3.7	2996.75	Yes		-13.578231292517				ISITrial	Mixed
53.0	2	414.651	0.029	1108.666	-9.88	-3.0	16.3663	1.578	70.0	1.0	Outcome1	-9.88	3.7	2996.75	Yes		-13.578231292517			208.0	TrialHappiness	Mixed
53.0	2	418.663	4.012	1112.678	-9.88	-3.0	16.3663	3.987	70.0	1.0	Outcome1	-9.88	3.7	2996.75	Yes		-13.578231292517				ISIRate	Mixed
54.0	2	422.675	0.025	1116.69	-0.04	-0.02	16.3613	3.0	70.0	2.0	Outcome1	-0.04	10.9	0.0	No	2.0	-10.9410430839002	1.167	423.842		GetAnswer	Loss
54.0	2	423.862	0.02	1117.877	-0.04	-0.02	16.3613	4.0	70.0	2.0	Outcome1	-0.04	10.9	0.0	No		-10.9410430839002				ShowChoice	Loss
54.0	2	427.874	0.012	1121.889	-0.04	-0.02	16.3613	1.0	70.0	2.0	Outcome1	-0.04	10.9	0.0	No		-10.9410430839002				ShowResult	Loss
54.0	2	428.894	0.02	1122.909	-0.04	-0.02	16.3613	8.0	70.0	2.0	Outcome1	-0.04	10.9	0.0	No		-10.9410430839002				ISITrial	Loss
	2	436.918	0.024	1130.933				-0.001								{SPACE}		19.201	456.119		Rest	
	2	456.142	0.023	1150.157				4.0													BlockHappyPreview	
	2	460.154	0.012	1154.169				2.046												224.0	BlockStartHappiness	
	2	467.292	0.021	1161.307				-0.001								5.0		5.371	472.663		ScanWait	
	3	0.028	0.028	1166.706				10.0													GetReady	
55.0	3	10.058	0.03	1176.736	1.0	1.0	16.4863	3.0	955.0	0.4	Certain	2.9	-0.07	2533.25	Yes	4.0	-2.96649679124198	1.052	11.11		GetAnswer	Mixed
55.0	3	11.128	0.018	1177.806	1.0	1.0	16.4863	4.0	955.0	0.4	Certain	2.9	-0.07	2533.25	Yes		-2.96649679124198				ShowChoice	Mixed
55.0	3	15.14	0.012	1181.818	1.0	1.0	16.4863	1.0	955.0	0.4	Certain	2.9	-0.07	2533.25	Yes		-2.96649679124198				ShowResult	Mixed
55.0	3	16.16	0.02	1182.838	1.0	1.0	16.4863	7.709	955.0	0.4	Certain	2.9	-0.07	2533.25	Yes		-2.96649679124198				ISITrial	Mixed
55.0	3	26.441	0.025	1193.119	1.0	1.0	16.4863	1.194	955.0	0.4	Certain	2.9	-0.07	2533.25	Yes		-2.96649679124198			400.0	TrialHappiness	Mixed
55.0	3	30.469	4.028	1197.147	1.0	1.0	16.4863	2.133	955.0	0.4	Certain	2.9	-0.07	2533.25	Yes		-2.96649679124198				ISIRate	Mixed
56.0	3	32.626	0.024	1199.304	-1.5	-6.0	16.2988	3.0	955.0	0.2	Outcome1	-1.5	-11.76	0.0	No	2.0	10.255945639864098	1.757	34.383		GetAnswer	Mixed
56.0	3	34.398	0.015	1201.076	-1.5	-6.0	16.2988	4.0	955.0	0.2	Outcome1	-1.5	-11.76	0.0	No		10.255945639864098				ShowChoice	Mixed
56.0	3	38.41	0.012	1205.088	-1.5	-6.0	16.2988	1.0	955.0	0.2	Outcome1	-1.5	-11.76	0.0	No		10.255945639864098				ShowResult	Mixed
56.0	3	39.43	0.02	1206.108	-1.5	-6.0	16.2988	4.697	955.0	0.2	Outcome1	-1.5	-11.76	0.0	No		10.255945639864098				ISITrial	Mixed
57.0	3	44.16	0.033	1210.838	6.13	3.06	17.065	3.0	955.0	1.68	Outcome1	6.13	8.5	0.0	No	2.0	-2.3736315590789	1.095	45.255		GetAnswer	Gain
57.0	3	45.28	0.025	1211.958	6.13	3.06	17.065	4.0	955.0	1.68	Outcome1	6.13	8.5	0.0	No		-2.3736315590789				ShowChoice	Gain
57.0	3	49.292	0.012	1215.97	6.13	3.06	17.065	1.0	955.0	1.68	Outcome1	6.13	8.5	0.0	No		-2.3736315590789				ShowResult	Gain
57.0	3	50.312	0.02	1216.99	6.13	3.06	17.065	4.291	955.0	1.68	Outcome1	6.13	8.5	0.0	No		-2.3736315590789				ISITrial	Gain
58.0	3	54.625	0.022	1221.303	-5.0	-5.0	16.44	3.0	955.0	1.5	Certain	-11.41	0.1	3045.75	Yes	4.0	11.5130237825595	2.435	57.06		GetAnswer	Mixed
58.0	3	57.082	0.022	1223.76	-5.0	-5.0	16.44	4.0	955.0	1.5	Certain	-11.41	0.1	3045.75	Yes		11.5130237825595				ShowChoice	Mixed
58.0	3	61.094	0.012	1227.772	-5.0	-5.0	16.44	1.0	955.0	1.5	Certain	-11.41	0.1	3045.75	Yes		11.5130237825595				ShowResult	Mixed
58.0	3	62.114	0.02	1228.792	-5.0	-5.0	16.44	2.037	955.0	1.5	Certain	-11.41	0.1	3045.75	Yes		11.5130237825595				ISITrial	Mixed
58.0	3	67.246	0.03	1233.924	-5.0	-5.0	16.44	3.892	955.0	1.5	Certain	-11.41	0.1	3045.75	Yes		11.5130237825595			288.0	TrialHappiness	Mixed
58.0	3	71.258	4.012	1237.936	-5.0	-5.0	16.44	4.183	955.0	1.5	Certain	-11.41	0.1	3045.75	Yes		11.5130237825595				ISIRate	Mixed
59.0	3	75.471	0.03	1242.149	1.97	0.98	16.6863	3.0	955.0	2.0	Outcome1	1.97	4.9	0.0	No	2.0	-2.93289920724802	1.095	76.566		GetAnswer	Gain
59.0	3	76.591	0.025	1243.269	1.97	0.98	16.6863	4.0	955.0	2.0	Outcome1	1.97	4.9	0.0	No		-2.93289920724802				ShowChoice	Gain
59.0	3	80.603	0.012	1247.281	1.97	0.98	16.6863	1.0	955.0	2.0	Outcome1	1.97	4.9	0.0	No		-2.93289920724802				ShowResult	Gain
59.0	3	81.623	0.02	1248.301	1.97	0.98	16.6863	5.064	955.0	2.0	Outcome1	1.97	4.9	0.0	No		-2.93289920724802				ISITrial	Gain
60.0	3	86.704	0.017	1253.382	-6.0	-6.0	15.9363	3.0	955.0	0.3	Certain	0.7	-14.1	3562.5	Yes	4.0	14.7995469988675	2.066	88.77		GetAnswer	Mixed
60.0	3	88.794	0.024	1255.472	-6.0	-6.0	15.9363	4.0	955.0	0.3	Certain	0.7	-14.1	3562.5	Yes		14.7995469988675				ShowChoice	Mixed
60.0	3	92.806	0.012	1259.484	-6.0	-6.0	15.9363	1.0	955.0	0.3	Certain	0.7	-14.1	3562.5	Yes		14.7995469988675				ShowResult	Mixed
60.0	3	93.826	0.02	1260.504	-6.0	-6.0	15.9363	8.0	955.0	0.3	Certain	0.7	-14.1	3562.5	Yes		14.7995469988675				ISITrial	Mixed
60.0	3	105.427	0.015	1272.105	-6.0	-6.0	15.9363	3.818	955.0	0.3	Certain	0.7	-14.1	3562.5	Yes		14.7995469988675			376.0	TrialHappiness	Mixed
60.0	3	109.439	4.012	1276.117	-6.0	-6.0	15.9363	6.25	955.0	0.3	Certain	0.7	-14.1	3562.5	Yes		14.7995469988675				ISIRate	Mixed
61.0	3	115.708	0.019	1282.386	13.1	-0.48	17.5738	3.0	955.0	2.22	Outcome2	-0.96	13.1	0.0	No	2.0	14.0600226500566	1.192	116.9		GetAnswer	Loss
61.0	3	116.912	0.012	1283.59	13.1	-0.48	17.5738	4.0	955.0	2.22	Outcome2	-0.96	13.1	0.0	No		14.0600226500566				ShowChoice	Loss
61.0	3	120.924	0.012	1287.602	13.1	-0.48	17.5738	1.0	955.0	2.22	Outcome2	-0.96	13.1	0.0	No		14.0600226500566				ShowResult	Loss
61.0	3	121.943	0.019	1288.621	13.1	-0.48	17.5738	4.586	955.0	2.22	Outcome2	-0.96	13.1	0.0	No		14.0600226500566				ISITrial	Loss
62.0	3	126.557	0.028	1293.235	6.7	0.0	18.4113	3.0	955.0	1.82	Outcome1	6.7	-8.02	3748.75	Yes	2.0	14.715741789354501	1.155	127.712		GetAnswer	Gain
62.0	3	127.727	0.015	1294.405	6.7	0.0	18.4113	4.0	955.0	1.82	Outcome1	6.7	-8.02	3748.75	Yes		14.715741789354501				ShowChoice	Gain
62.0	3	131.739	0.012	1298.417	6.7	0.0	18.4113	1.0	955.0	1.82	Outcome1	6.7	-8.02	3748.75	Yes		14.715741789354501				ShowResult	Gain
62.0	3	132.759	0.02	1299.437	6.7	0.0	18.4113	5.212	955.0	1.82	Outcome1	6.7	-8.02	3748.75	Yes		14.715741789354501				ISITrial	Gain
62.0	3	141.769	0.029	1308.447	6.7	0.0	18.4113	1.815	955.0	1.82	Outcome1	6.7	-8.02	3748.75	Yes	{-4}4{-4}2{-2}2{-2}	14.715741789354501	1.815	143.584	384.0	TrialHappiness	Gain
62.0	3	145.781	4.012	1312.459	6.7	0.0	18.4113	6.995	955.0	1.82	Outcome1	6.7	-8.02	3748.75	Yes		14.715741789354501				ISIRate	Gain
63.0	3	152.802	0.026	1319.48	-0.68	0.0	18.3263	3.0	955.0	1.5	Outcome2	2.1	-0.68	0.0	No	2.0	-2.7785013212533	1.304	154.106		GetAnswer	Mixed
63.0	3	154.123	0.017	1320.801	-0.68	0.0	18.3263	4.0	955.0	1.5	Outcome2	2.1	-0.68	0.0	No		-2.7785013212533				ShowChoice	Mixed
63.0	3	158.135	0.012	1324.813	-0.68	0.0	18.3263	1.0	955.0	1.5	Outcome2	2.1	-0.68	0.0	No		-2.7785013212533				ShowResult	Mixed
63.0	3	159.155	0.02	1325.833	-0.68	0.0	18.3263	5.595	955.0	1.5	Outcome2	2.1	-0.68	0.0	No		-2.7785013212533				ISITrial	Mixed
64.0	3	164.771	0.021	1331.449	9.3	1.0	19.4888	3.0	955.0	2.48	Outcome1	9.3	-6.58	0.0	No	2.0	15.8822197055493	1.08	165.851		GetAnswer	Gain
64.0	3	165.875	0.024	1332.553	9.3	1.0	19.4888	4.0	955.0	2.48	Outcome1	9.3	-6.58	0.0	No		15.8822197055493				ShowChoice	Gain
64.0	3	169.887	0.012	1336.565	9.3	1.0	19.4888	1.0	955.0	2.48	Outcome1	9.3	-6.58	0.0	No		15.8822197055493				ShowResult	Gain
64.0	3	170.907	0.02	1337.585	9.3	1.0	19.4888	5.47	955.0	2.48	Outcome1	9.3	-6.58	0.0	No		15.8822197055493				ISITrial	Gain
65.0	3	176.406	0.029	1343.084	6.81	3.4	20.34	3.0	955.0	3.16	Outcome2	9.7	6.81	2996.75	Yes	2.0	-2.8862778406946004	1.196	177.602		GetAnswer	Gain
65.0	3	177.627	0.025	1344.305	6.81	3.4	20.34	4.0	955.0	3.16	Outcome2	9.7	6.81	2996.75	Yes		-2.8862778406946004				ShowChoice	Gain
65.0	3	181.639	0.012	1348.317	6.81	3.4	20.34	1.0	955.0	3.16	Outcome2	9.7	6.81	2996.75	Yes		-2.8862778406946004				ShowResult	Gain
65.0	3	182.658	0.019	1349.336	6.81	3.4	20.34	3.344	955.0	3.16	Outcome2	9.7	6.81	2996.75	Yes		-2.8862778406946004				ISITrial	Gain
65.0	3	189.044	0.029	1355.722	6.81	3.4	20.34	1.796	955.0	3.16	Outcome2	9.7	6.81	2996.75	Yes		-2.8862778406946004			432.0	TrialHappiness	Gain
65.0	3	193.056	4.012	1359.734	6.81	3.4	20.34	3.987	955.0	3.16	Outcome2	9.7	6.81	2996.75	Yes		-2.8862778406946004				ISIRate	Gain
66.0	3	197.068	0.025	1363.746	8.35	4.18	21.3838	3.0	955.0	2.22	Outcome2	11.1	8.35	0.0	No	2.0	-2.74537561343903	1.238	198.306		GetAnswer	Loss
66.0	3	198.322	0.016	1365.0	8.35	4.18	21.3838	4.0	955.0	2.22	Outcome2	11.1	8.35	0.0	No		-2.74537561343903				ShowChoice	Loss
66.0	3	202.334	0.012	1369.012	8.35	4.18	21.3838	1.0	955.0	2.22	Outcome2	11.1	8.35	0.0	No		-2.74537561343903				ShowResult	Loss
66.0	3	203.354	0.02	1370.032	8.35	4.18	21.3838	3.959	955.0	2.22	Outcome2	11.1	8.35	0.0	No		-2.74537561343903				ISITrial	Loss
67.0	3	207.332	0.019	1374.01	1.5	-7.0	21.5713	3.0	955.0	0.82	Outcome1	1.5	-15.45	2918.5	Yes	2.0	16.9524348810872	2.074	209.406		GetAnswer	Mixed
67.0	3	209.422	0.016	1376.1	1.5	-7.0	21.5713	4.0	955.0	0.82	Outcome1	1.5	-15.45	2918.5	Yes		16.9524348810872				ShowChoice	Mixed
67.0	3	213.434	0.012	1380.112	1.5	-7.0	21.5713	1.0	955.0	0.82	Outcome1	1.5	-15.45	2918.5	Yes		16.9524348810872				ShowResult	Mixed
67.0	3	214.454	0.02	1381.132	1.5	-7.0	21.5713	4.199	955.0	0.82	Outcome1	1.5	-15.45	2918.5	Yes		16.9524348810872				ISITrial	Mixed
67.0	3	221.608	0.024	1388.286	1.5	-7.0	21.5713	3.083	955.0	0.82	Outcome1	1.5	-15.45	2918.5	Yes		16.9524348810872			480.0	TrialHappiness	Mixed
67.0	3	225.62	4.012	1392.298	1.5	-7.0	21.5713	3.674	955.0	0.82	Outcome1	1.5	-15.45	2918.5	Yes		16.9524348810872				ISIRate	Mixed
68.0	3	229.315	0.021	1395.993	-6.0	-6.0	20.8213	3.0	955.0	0.2	Certain	2.5	-14.23	0.0	No	4.0	16.7293318233296	2.248	231.563		GetAnswer	Mixed
68.0	3	231.588	0.025	1398.266	-6.0	-6.0	20.8213	4.0	955.0	0.2	Certain	2.5	-14.23	0.0	No		16.7293318233296				ShowChoice	Mixed
68.0	3	235.6	0.012	1402.278	-6.0	-6.0	20.8213	1.0	955.0	0.2	Certain	2.5	-14.23	0.0	No		16.7293318233296				ShowResult	Mixed
68.0	3	236.62	0.02	1403.298	-6.0	-6.0	20.8213	2.185	955.0	0.2	Certain	2.5	-14.23	0.0	No		16.7293318233296				ISITrial	Mixed
69.0	3	238.826	0.021	1405.504	5.3	-3.0	21.4838	3.0	955.0	2.48	Outcome2	-11.97	5.3	0.0	No	2.0	17.2672706681767	1.638	240.464		GetAnswer	Gain
69.0	3	240.481	0.017	1407.159	5.3	-3.0	21.4838	4.0	955.0	2.48	Outcome2	-11.97	5.3	0.0	No		17.2672706681767				ShowChoice	Gain
69.0	3	244.493	0.012	1411.171	5.3	-3.0	21.4838	1.0	955.0	2.48	Outcome2	-11.97	5.3	0.0	No		17.2672706681767				ShowResult	Gain
69.0	3	245.513	0.02	1412.191	5.3	-3.0	21.4838	2.0	955.0	2.48	Outcome2	-11.97	5.3	0.0	No		17.2672706681767				ISITrial	Gain
70.0	3	247.536	0.023	1414.214	7.3	-1.0	22.3963	3.0	955.0	2.48	Outcome1	7.3	-10.51	3651.25	Yes	2.0	17.8052095130238	1.376	248.912		GetAnswer	Gain
70.0	3	248.923	0.011	1415.601	7.3	-1.0	22.3963	4.0	955.0	2.48	Outcome1	7.3	-10.51	3651.25	Yes		17.8052095130238				ShowChoice	Gain
70.0	3	252.935	0.012	1419.613	7.3	-1.0	22.3963	1.0	955.0	2.48	Outcome1	7.3	-10.51	3651.25	Yes		17.8052095130238				ShowResult	Gain
70.0	3	253.955	0.02	1420.633	7.3	-1.0	22.3963	2.623	955.0	2.48	Outcome1	7.3	-10.51	3651.25	Yes		17.8052095130238				ISITrial	Gain
70.0	3	260.274	0.027	1426.952	7.3	-1.0	22.3963	1.545	955.0	2.48	Outcome1	7.3	-10.51	3651.25	Yes		17.8052095130238			456.0	TrialHappiness	Gain
70.0	3	264.286	4.012	1430.964	7.3	-1.0	22.3963	6.605	955.0	2.48	Outcome1	7.3	-10.51	3651.25	Yes		17.8052095130238				ISIRate	Gain
71.0	3	270.923	0.032	1437.601	5.5	-4.0	23.0838	3.0	955.0	2.8	Outcome2	-13.25	5.5	0.0	No	2.0	18.750849377123398	1.13	272.053		GetAnswer	Gain
71.0	3	272.076	0.022	1438.754	5.5	-4.0	23.0838	4.0	955.0	2.8	Outcome2	-13.25	5.5	0.0	No		18.750849377123398				ShowChoice	Gain
71.0	3	276.088	0.012	1442.766	5.5	-4.0	23.0838	1.0	955.0	2.8	Outcome2	-13.25	5.5	0.0	No		18.750849377123398				ShowResult	Gain
71.0	3	277.108	0.02	1443.786	5.5	-4.0	23.0838	5.499	955.0	2.8	Outcome2	-13.25	5.5	0.0	No		18.750849377123398				ISITrial	Gain
72.0	3	282.624	0.017	1449.302	8.3	-1.0	24.1213	3.0	955.0	5.0	Outcome2	-11.02	8.3	3080.5	Yes	2.0	19.3159682899207	1.48	284.104		GetAnswer	Gain
72.0	3	284.129	0.025	1450.807	8.3	-1.0	24.1213	4.0	955.0	5.0	Outcome2	-11.02	8.3	3080.5	Yes		19.3159682899207				ShowChoice	Gain
72.0	3	288.141	0.012	1454.819	8.3	-1.0	24.1213	1.0	955.0	5.0	Outcome2	-11.02	8.3	3080.5	Yes		19.3159682899207				ShowResult	Gain
72.0	3	289.16	0.019	1455.838	8.3	-1.0	24.1213	5.672	955.0	5.0	Outcome2	-11.02	8.3	3080.5	Yes		19.3159682899207				ISITrial	Gain
72.0	3	297.953	0.029	1464.631	8.3	-1.0	24.1213	2.248	955.0	5.0	Outcome2	-11.02	8.3	3080.5	Yes		19.3159682899207			448.0	TrialHappiness	Gain
72.0	3	301.965	4.012	1468.643	8.3	-1.0	24.1213	4.322	955.0	5.0	Outcome2	-11.02	8.3	3080.5	Yes		19.3159682899207				ISIRate	Gain
73.0	3	306.312	0.025	1472.99	7.5	-2.0	25.0588	3.0	955.0	2.8	Outcome2	-12.52	7.5	0.0	No	2.0	20.016987542468897	1.177	307.489		GetAnswer	Gain
73.0	3	307.515	0.026	1474.193	7.5	-2.0	25.0588	4.0	955.0	2.8	Outcome2	-12.52	7.5	0.0	No		20.016987542468897				ShowChoice	Gain
73.0	3	311.527	0.012	1478.205	7.5	-2.0	25.0588	1.0	955.0	2.8	Outcome2	-12.52	7.5	0.0	No		20.016987542468897				ShowResult	Gain
73.0	3	312.547	0.02	1479.225	7.5	-2.0	25.0588	4.616	955.0	2.8	Outcome2	-12.52	7.5	0.0	No		20.016987542468897				ISITrial	Gain
74.0	3	317.194	0.031	1483.872	10.44	5.22	26.3638	3.0	955.0	2.8	Outcome1	10.44	13.5	3056.25	Yes	2.0	-3.05568138920347	1.036	318.23		GetAnswer	Loss
74.0	3	318.248	0.018	1484.926	10.44	5.22	26.3638	4.0	955.0	2.8	Outcome1	10.44	13.5	3056.25	Yes		-3.05568138920347				ShowChoice	Loss
74.0	3	322.26	0.012	1488.938	10.44	5.22	26.3638	1.0	955.0	2.8	Outcome1	10.44	13.5	3056.25	Yes		-3.05568138920347				ShowResult	Loss
74.0	3	323.279	0.019	1489.957	10.44	5.22	26.3638	3.909	955.0	2.8	Outcome1	10.44	13.5	3056.25	Yes		-3.05568138920347				ISITrial	Loss
74.0	3	330.284	0.02	1496.962	10.44	5.22	26.3638	0.428	955.0	2.8	Outcome1	10.44	13.5	3056.25	Yes		-3.05568138920347			532.0	TrialHappiness	Loss
74.0	3	334.296	4.012	1500.974	10.44	5.22	26.3638	4.225	955.0	2.8	Outcome1	10.44	13.5	3056.25	Yes		-3.05568138920347				ISIRate	Loss
75.0	3	338.542	0.021	1505.22	2.3	-7.0	26.6513	3.0	955.0	2.0	Outcome1	2.3	-17.44	0.0	No	2.0	19.738391845979603	2.5	341.042		GetAnswer	Mixed
75.0	3	341.066	0.024	1507.744	2.3	-7.0	26.6513	4.0	955.0	2.0	Outcome1	2.3	-17.44	0.0	No		19.738391845979603				ShowChoice	Mixed
75.0	3	345.078	0.012	1511.756	2.3	-7.0	26.6513	1.0	955.0	2.0	Outcome1	2.3	-17.44	0.0	No		19.738391845979603				ShowResult	Mixed
75.0	3	346.098	0.02	1512.776	2.3	-7.0	26.6513	4.979	955.0	2.0	Outcome1	2.3	-17.44	0.0	No		19.738391845979603				ISITrial	Mixed
76.0	3	351.096	0.019	1517.774	-11.0	-11.0	25.2763	3.0	955.0	0.52	Certain	-0.9	-21.12	0.0	No	4.0	20.2174405436014	2.797	353.893		GetAnswer	Mixed
76.0	3	353.904	0.011	1520.582	-11.0	-11.0	25.2763	4.0	955.0	0.52	Certain	-0.9	-21.12	0.0	No		20.2174405436014				ShowChoice	Mixed
76.0	3	357.916	0.012	1524.594	-11.0	-11.0	25.2763	1.0	955.0	0.52	Certain	-0.9	-21.12	0.0	No		20.2174405436014				ShowResult	Mixed
76.0	3	358.936	0.02	1525.614	-11.0	-11.0	25.2763	3.931	955.0	0.52	Certain	-0.9	-21.12	0.0	No		20.2174405436014				ISITrial	Mixed
77.0	3	362.898	0.031	1529.576	0.9	-9.0	25.3888	3.0	955.0	0.4	Outcome2	-19.8	0.9	4000.0	Yes	2.0	20.6964892412231	1.916	364.814		GetAnswer	Mixed
77.0	3	364.837	0.023	1531.515	0.9	-9.0	25.3888	4.0	955.0	0.4	Outcome2	-19.8	0.9	4000.0	Yes		20.6964892412231				ShowChoice	Mixed
77.0	3	368.866	0.029	1535.544	0.9	-9.0	25.3888	1.0	955.0	0.4	Outcome2	-19.8	0.9	4000.0	Yes		20.6964892412231				ShowResult	Mixed
77.0	3	369.885	0.019	1536.563	0.9	-9.0	25.3888	7.022	955.0	0.4	Outcome2	-19.8	0.9	4000.0	Yes		20.6964892412231				ISITrial	Mixed
77.0	3	380.952	0.029	1547.63	0.9	-9.0	25.3888	3.906	955.0	0.4	Outcome2	-19.8	0.9	4000.0	Yes		20.6964892412231			464.0	TrialHappiness	Mixed
77.0	3	384.964	4.012	1551.642	0.9	-9.0	25.3888	8.0	955.0	0.4	Outcome2	-19.8	0.9	4000.0	Yes		20.6964892412231				ISIRate	Mixed
78.0	3	392.988	0.024	1559.666	8.74	4.37	26.4813	3.0	955.0	3.6	Outcome1	8.74	11.9	0.0	No	2.0	-3.15836164590411	1.084	394.072		GetAnswer	Loss
78.0	3	394.091	0.019	1560.769	8.74	4.37	26.4813	4.0	955.0	3.6	Outcome1	8.74	11.9	0.0	No		-3.15836164590411				ShowChoice	Loss
78.0	3	398.103	0.012	1564.781	8.74	4.37	26.4813	1.0	955.0	3.6	Outcome1	8.74	11.9	0.0	No		-3.15836164590411				ShowResult	Loss
78.0	3	399.123	0.02	1565.801	8.74	4.37	26.4813	2.078	955.0	3.6	Outcome1	8.74	11.9	0.0	No		-3.15836164590411				ISITrial	Loss
79.0	3	401.229	0.028	1567.907	13.7	2.0	28.1938	3.0	955.0	3.16	Outcome1	13.7	-9.19	2729.5	Yes	2.0	22.8867497168743	1.324	402.553		GetAnswer	Loss
79.0	3	402.567	0.014	1569.245	13.7	2.0	28.1938	4.0	955.0	3.16	Outcome1	13.7	-9.19	2729.5	Yes		22.8867497168743				ShowChoice	Loss
79.0	3	406.579	0.012	1573.257	13.7	2.0	28.1938	1.0	955.0	3.16	Outcome1	13.7	-9.19	2729.5	Yes		22.8867497168743				ShowResult	Loss
79.0	3	407.598	0.019	1574.276	13.7	2.0	28.1938	3.829	955.0	3.16	Outcome1	13.7	-9.19	2729.5	Yes		22.8867497168743				ISITrial	Loss
79.0	3	414.201	0.028	1580.879	13.7	2.0	28.1938	0.692	955.0	3.16	Outcome1	13.7	-9.19	2729.5	Yes		22.8867497168743			464.0	TrialHappiness	Loss
79.0	3	418.213	4.012	1584.891	13.7	2.0	28.1938	2.918	955.0	3.16	Outcome1	13.7	-9.19	2729.5	Yes		22.8867497168743				ISIRate	Loss
80.0	3	421.156	0.025	1587.834	7.5	-4.0	29.1313	3.0	955.0	2.8	Outcome1	7.5	-15.94	0.0	No	2.0	23.442808607021497	1.663	422.819		GetAnswer	Gain
80.0	3	422.844	0.025	1589.522	7.5	-4.0	29.1313	4.0	955.0	2.8	Outcome1	7.5	-15.94	0.0	No		23.442808607021497				ShowChoice	Gain
80.0	3	426.856	0.012	1593.534	7.5	-4.0	29.1313	1.0	955.0	2.8	Outcome1	7.5	-15.94	0.0	No		23.442808607021497				ShowResult	Gain
80.0	3	427.876	0.02	1594.554	7.5	-4.0	29.1313	3.336	955.0	2.8	Outcome1	7.5	-15.94	0.0	No		23.442808607021497				ISITrial	Gain
81.0	3	431.236	0.024	1597.914	7.4	3.7	30.0563	3.0	955.0	1.82	Outcome1	7.4	10.7	3923.75	Yes	2.0	-3.2973763684409203	1.295	432.531		GetAnswer	Loss
81.0	3	432.556	0.025	1599.234	7.4	3.7	30.0563	4.0	955.0	1.82	Outcome1	7.4	10.7	3923.75	Yes		-3.2973763684409203				ShowChoice	Loss
81.0	3	436.568	0.012	1603.246	7.4	3.7	30.0563	1.0	955.0	1.82	Outcome1	7.4	10.7	3923.75	Yes		-3.2973763684409203				ShowResult	Loss
81.0	3	437.588	0.02	1604.266	7.4	3.7	30.0563	3.919	955.0	1.82	Outcome1	7.4	10.7	3923.75	Yes		-3.2973763684409203				ISITrial	Loss
81.0	3	445.478	0.021	1612.156	7.4	3.7	30.0563	1.813	955.0	1.82	Outcome1	7.4	10.7	3923.75	Yes	4{-4}4{-4}4{-4}4{-4}	-3.2973763684409203	1.813	447.291	404.0	TrialHappiness	Loss
81.0	3	449.49	4.012	1616.168	7.4	3.7	30.0563	7.695	955.0	1.82	Outcome1	7.4	10.7	3923.75	Yes		-3.2973763684409203				ISIRate	Loss
	3	457.214	0.029	1623.892				3.0													CurrentEarnings	
	3	460.239	0.025	1626.917				-0.001								{SPACE}		12.296	472.535		Goodbye	
