trial_number	block	onset	onset_delay	onset_unadjusted	amount_change	certain_amount	current_amount	duration	mood_target	multiplier	outcome	outcome1_amount	outcome2_amount	question_duration	rating	response	rpe	rt	rt_time	slider_response	trial_phase	trial_type
	0	-26.565	0.02	11.345				-0.001								{SPACE}		2.493	-24.072		Welcome	
	0	-24.058	0.014	13.852				5.0													LifeHappyPreview	
	0	-18.976	0.082	18.934				1.429												880.0	LifeHappiness	
	0	-12.339	0.028	25.571				4.0													BlockHappyPreview	
	0	-8.327	0.012	29.583				3.568												872.0	BlockStartHappiness	
	0	-1.156	0.02	36.754				-0.001								5.0					ScanWait	
	1	0.014	0.014	37.924				10.0													GetReady	
1.0	1	10.044	0.03	47.954	4.5	1.54	10.5625	3.0	955.0	1.68	Outcome1	4.5	3.09	0.0	No	2.0	1.40996602491506	0.965	11.009		GetAnswer	Gain
1.0	1	11.031	0.022	48.941	4.5	1.54	10.5625	4.0	955.0	1.68	Outcome1	4.5	3.09	0.0	No		1.40996602491506				ShowChoice	Gain
1.0	1	15.059	0.028	52.969	4.5	1.54	10.5625	1.0	955.0	1.68	Outcome1	4.5	3.09	0.0	No		1.40996602491506				ShowResult	Gain
1.0	1	16.079	0.02	53.989	4.5	1.54	10.5625	2.431	955.0	1.68	Outcome1	4.5	3.09	0.0	No		1.40996602491506				ISITrial	Gain
2.0	1	18.536	0.026	56.446	-1.84	-1.0	10.3325	3.0	955.0	0.2	Outcome1	-1.84	-1.5	0.0	No	2.0	-0.34465836164590397	1.43	19.966		GetAnswer	Mixed
2.0	1	19.991	0.025	57.901	-1.84	-1.0	10.3325	4.0	955.0	0.2	Outcome1	-1.84	-1.5	0.0	No		-0.34465836164590397				ShowChoice	Mixed
2.0	1	24.02	0.029	61.93	-1.84	-1.0	10.3325	1.0	955.0	0.2	Outcome1	-1.84	-1.5	0.0	No		-0.34465836164590397				ShowResult	Mixed
2.0	1	25.039	0.019	62.949	-1.84	-1.0	10.3325	4.568	955.0	0.2	Outcome1	-1.84	-1.5	0.0	No		-0.34465836164590397				ISITrial	Mixed
3.0	1	29.636	0.029	67.546	4.9	1.65	10.945	3.0	955.0	2.0	Outcome2	3.3	4.9	2868.0	Yes	2.0	1.59796149490374	1.515	31.151		GetAnswer	Gain
3.0	1	31.174	0.023	69.084	4.9	1.65	10.945	4.0	955.0	2.0	Outcome2	3.3	4.9	2868.0	Yes		1.59796149490374				ShowChoice	Gain
3.0	1	35.186	0.012	73.096	4.9	1.65	10.945	1.0	955.0	2.0	Outcome2	3.3	4.9	2868.0	Yes		1.59796149490374				ShowResult	Gain
3.0	1	36.206	0.02	74.116	4.9	1.65	10.945	3.243	955.0	2.0	Outcome2	3.3	4.9	2868.0	Yes		1.59796149490374				ISITrial	Gain
3.0	1	42.358	0.024	80.268	4.9	1.65	10.945	2.297	955.0	2.0	Outcome2	3.3	4.9	2868.0	Yes		1.59796149490374			728.0	TrialHappiness	Gain
3.0	1	46.37	4.012	84.28	4.9	1.65	10.945	3.472	955.0	2.0	Outcome2	3.3	4.9	2868.0	Yes		1.59796149490374				ISIRate	Gain
4.0	1	49.864	0.022	87.774	12.5	4.18	12.5075	3.0	955.0	1.68	Outcome2	8.36	12.5	0.0	No	2.0	4.13816534541336	0.571	50.435		GetAnswer	Loss
4.0	1	50.449	0.014	88.359	12.5	4.18	12.5075	4.0	955.0	1.68	Outcome2	8.36	12.5	0.0	No		4.13816534541336				ShowChoice	Loss
4.0	1	54.461	0.012	92.371	12.5	4.18	12.5075	1.0	955.0	1.68	Outcome2	8.36	12.5	0.0	No		4.13816534541336				ShowResult	Loss
4.0	1	55.48	0.019	93.39	12.5	4.18	12.5075	2.011	955.0	1.68	Outcome2	8.36	12.5	0.0	No		4.13816534541336				ISITrial	Loss
5.0	1	57.52	0.029	95.43	-2.27	-2.0	12.2237	3.0	955.0	0.3	Outcome1	-2.27	-1.3	2582.5	Yes	2.0	-0.9661192902982259	1.928	59.448		GetAnswer	Mixed
5.0	1	59.459	0.011	97.369	-2.27	-2.0	12.2237	4.0	955.0	0.3	Outcome1	-2.27	-1.3	2582.5	Yes		-0.9661192902982259				ShowChoice	Mixed
5.0	1	63.471	0.012	101.381	-2.27	-2.0	12.2237	1.0	955.0	0.3	Outcome1	-2.27	-1.3	2582.5	Yes		-0.9661192902982259				ShowResult	Mixed
5.0	1	64.491	0.02	102.401	-2.27	-2.0	12.2237	5.129	955.0	0.3	Outcome1	-2.27	-1.3	2582.5	Yes		-0.9661192902982259				ISITrial	Mixed
5.0	1	72.247	0.026	110.157	-2.27	-2.0	12.2237	2.198	955.0	0.3	Outcome1	-2.27	-1.3	2582.5	Yes		-0.9661192902982259			776.0	TrialHappiness	Mixed
5.0	1	76.259	4.012	114.169	-2.27	-2.0	12.2237	2.33	955.0	0.3	Outcome1	-2.27	-1.3	2582.5	Yes		-0.9661192902982259				ISIRate	Mixed
6.0	1	78.616	0.027	116.526	2.11	2.0	12.4875	3.0	955.0	0.4	Outcome1	2.11	2.9	0.0	No	2.0	-0.7927519818799549	0.947	79.563		GetAnswer	Mixed
6.0	1	79.586	0.023	117.496	2.11	2.0	12.4875	4.0	955.0	0.4	Outcome1	2.11	2.9	0.0	No		-0.7927519818799549				ShowChoice	Mixed
6.0	1	83.598	0.012	121.508	2.11	2.0	12.4875	1.0	955.0	0.4	Outcome1	2.11	2.9	0.0	No		-0.7927519818799549				ShowResult	Mixed
6.0	1	84.618	0.02	122.528	2.11	2.0	12.4875	6.232	955.0	0.4	Outcome1	2.11	2.9	0.0	No		-0.7927519818799549				ISITrial	Mixed
7.0	1	90.87	0.02	128.78	-0.5	-2.0	12.425	3.0	955.0	0.82	Outcome2	-4.54	-0.5	0.0	No	2.0	4.039637599094	1.337	92.207		GetAnswer	Mixed
7.0	1	92.224	0.017	130.134	-0.5	-2.0	12.425	4.0	955.0	0.82	Outcome2	-4.54	-0.5	0.0	No		4.039637599094				ShowChoice	Mixed
7.0	1	96.236	0.012	134.146	-0.5	-2.0	12.425	1.0	955.0	0.82	Outcome2	-4.54	-0.5	0.0	No		4.039637599094				ShowResult	Mixed
7.0	1	97.255	0.019	135.165	-0.5	-2.0	12.425	2.305	955.0	0.82	Outcome2	-4.54	-0.5	0.0	No		4.039637599094				ISITrial	Mixed
8.0	1	99.579	0.019	137.489	5.3	0.53	13.0875	3.0	955.0	2.48	Outcome1	5.3	1.06	3112.5	Yes	2.0	4.24235560588901	1.216	100.795		GetAnswer	Gain
8.0	1	100.816	0.021	138.726	5.3	0.53	13.0875	4.0	955.0	2.48	Outcome1	5.3	1.06	3112.5	Yes		4.24235560588901				ShowChoice	Gain
8.0	1	104.828	0.012	142.738	5.3	0.53	13.0875	1.0	955.0	2.48	Outcome1	5.3	1.06	3112.5	Yes		4.24235560588901				ShowResult	Gain
8.0	1	105.848	0.02	143.758	5.3	0.53	13.0875	3.506	955.0	2.48	Outcome1	5.3	1.06	3112.5	Yes		4.24235560588901				ISITrial	Gain
8.0	1	112.518	0.031	150.428	5.3	0.53	13.0875	2.28	955.0	2.48	Outcome1	5.3	1.06	3112.5	Yes		4.24235560588901			792.0	TrialHappiness	Gain
8.0	1	116.53	4.012	154.44	5.3	0.53	13.0875	4.45	955.0	2.48	Outcome1	5.3	1.06	3112.5	Yes		4.24235560588901				ISIRate	Gain
9.0	1	121.01	0.03	158.92	8.3	2.06	14.125	3.0	955.0	5.0	Outcome1	8.3	4.13	0.0	No	2.0	4.17327293318233	0.891	121.901		GetAnswer	Gain
9.0	1	121.913	0.011	159.823	8.3	2.06	14.125	4.0	955.0	5.0	Outcome1	8.3	4.13	0.0	No		4.17327293318233				ShowChoice	Gain
9.0	1	125.925	0.012	163.835	8.3	2.06	14.125	1.0	955.0	5.0	Outcome1	8.3	4.13	0.0	No		4.17327293318233				ShowResult	Gain
9.0	1	126.944	0.019	164.854	8.3	2.06	14.125	2.0	955.0	5.0	Outcome1	8.3	4.13	0.0	No		4.17327293318233				ISITrial	Gain
10.0	1	128.967	0.023	166.877	13.9	4.77	15.8625	3.0	955.0	3.6	Outcome1	13.9	9.54	4000.0	Yes	2.0	4.35787089467724	1.202	130.169		GetAnswer	Loss
10.0	1	130.187	0.018	168.097	13.9	4.77	15.8625	4.0	955.0	3.6	Outcome1	13.9	9.54	4000.0	Yes		4.35787089467724				ShowChoice	Loss
10.0	1	134.199	0.012	172.109	13.9	4.77	15.8625	1.0	955.0	3.6	Outcome1	13.9	9.54	4000.0	Yes		4.35787089467724				ShowResult	Loss
10.0	1	135.219	0.02	173.129	13.9	4.77	15.8625	2.0	955.0	3.6	Outcome1	13.9	9.54	4000.0	Yes		4.35787089467724				ISITrial	Loss
10.0	1	141.271	0.029	179.181	13.9	4.77	15.8625	1.376	955.0	3.6	Outcome1	13.9	9.54	4000.0	Yes		4.35787089467724			808.0	TrialHappiness	Loss
10.0	1	145.283	4.012	183.193	13.9	4.77	15.8625	8.0	955.0	3.6	Outcome1	13.9	9.54	4000.0	Yes		4.35787089467724				ISIRate	Loss
11.0	1	153.307	0.024	191.217	13.5	4.62	17.55	3.0	955.0	2.8	Outcome2	9.23	13.5	0.0	No	2.0	4.27066817667044	0.852	154.159		GetAnswer	Loss
11.0	1	154.176	0.017	192.086	13.5	4.62	17.55	4.0	955.0	2.8	Outcome2	9.23	13.5	0.0	No		4.27066817667044				ShowChoice	Loss
11.0	1	158.188	0.012	196.098	13.5	4.62	17.55	1.0	955.0	2.8	Outcome2	9.23	13.5	0.0	No		4.27066817667044				ShowResult	Loss
11.0	1	159.208	0.02	197.118	13.5	4.62	17.55	3.324	955.0	2.8	Outcome2	9.23	13.5	0.0	No		4.27066817667044				ISITrial	Loss
12.0	1	162.551	0.019	200.461	5.7	0.63	18.2625	3.0	955.0	3.16	Outcome1	5.7	1.26	2618.75	Yes	2.0	4.43714609286523	0.913	163.464		GetAnswer	Gain
12.0	1	163.487	0.023	201.397	5.7	0.63	18.2625	4.0	955.0	3.16	Outcome1	5.7	1.26	2618.75	Yes		4.43714609286523				ShowChoice	Gain
12.0	1	167.499	0.012	205.409	5.7	0.63	18.2625	1.0	955.0	3.16	Outcome1	5.7	1.26	2618.75	Yes		4.43714609286523				ShowResult	Gain
12.0	1	168.519	0.02	206.429	5.7	0.63	18.2625	6.642	955.0	3.16	Outcome1	5.7	1.26	2618.75	Yes		4.43714609286523				ISITrial	Gain
12.0	1	177.813	0.022	215.723	5.7	0.63	18.2625	2.832	955.0	3.16	Outcome1	5.7	1.26	2618.75	Yes		4.43714609286523			824.0	TrialHappiness	Gain
12.0	1	181.825	4.012	219.735	5.7	0.63	18.2625	2.475	955.0	3.16	Outcome1	5.7	1.26	2618.75	Yes		4.43714609286523				ISIRate	Gain
13.0	1	184.316	0.016	222.226	3.7	1.0	18.725	3.0	955.0	1.0	Outcome1	3.7	-0.63	0.0	No	2.0	4.33182332955832	1.094	185.41		GetAnswer	Mixed
13.0	1	185.436	0.026	223.346	3.7	1.0	18.725	4.0	955.0	1.0	Outcome1	3.7	-0.63	0.0	No		4.33182332955832				ShowChoice	Mixed
13.0	1	189.448	0.012	227.358	3.7	1.0	18.725	1.0	955.0	1.0	Outcome1	3.7	-0.63	0.0	No		4.33182332955832				ShowResult	Mixed
13.0	1	190.468	0.02	228.378	3.7	1.0	18.725	3.48	955.0	1.0	Outcome1	3.7	-0.63	0.0	No		4.33182332955832				ISITrial	Mixed
14.0	1	193.978	0.03	231.888	8.58	4.29	19.7975	3.0	955.0	2.48	Outcome2	9.3	8.58	0.0	No	2.0	-0.7195167987919971	1.796	195.774		GetAnswer	Gain
14.0	1	195.8	0.026	233.71	8.58	4.29	19.7975	4.0	955.0	2.48	Outcome2	9.3	8.58	0.0	No		-0.7195167987919971				ShowChoice	Gain
14.0	1	199.812	0.012	237.722	8.58	4.29	19.7975	1.0	955.0	2.48	Outcome2	9.3	8.58	0.0	No		-0.7195167987919971				ShowResult	Gain
14.0	1	200.832	0.02	238.742	8.58	4.29	19.7975	5.019	955.0	2.48	Outcome2	9.3	8.58	0.0	No		-0.7195167987919971				ISITrial	Gain
15.0	1	205.881	0.03	243.791	10.3	2.84	21.085	3.0	955.0	5.0	Outcome1	10.3	5.67	3348.5	Yes	2.0	4.62853907134768	0.961	206.842		GetAnswer	Gain
15.0	1	206.867	0.025	244.777	10.3	2.84	21.085	4.0	955.0	5.0	Outcome1	10.3	5.67	3348.5	Yes		4.62853907134768				ShowChoice	Gain
15.0	1	210.879	0.012	248.789	10.3	2.84	21.085	1.0	955.0	5.0	Outcome1	10.3	5.67	3348.5	Yes		4.62853907134768				ShowResult	Gain
15.0	1	211.899	0.02	249.809	10.3	2.84	21.085	7.614	955.0	5.0	Outcome1	10.3	5.67	3348.5	Yes		4.62853907134768				ISITrial	Gain
15.0	1	222.915	0.029	260.825	10.3	2.84	21.085	2.685	955.0	5.0	Outcome1	10.3	5.67	3348.5	Yes	2{-2}2{-2}2{-2}2{-2}2{-2}2{-2}2{-2}	4.62853907134768	2.685	225.6	804.0	TrialHappiness	Gain
15.0	1	226.927	4.012	264.837	10.3	2.84	21.085	5.394	955.0	5.0	Outcome1	10.3	5.67	3348.5	Yes		4.62853907134768				ISIRate	Gain
16.0	1	232.343	0.022	270.253	10.27	5.14	22.3688	3.0	955.0	2.22	Outcome1	10.27	11.1	0.0	No	2.0	-0.8254058135145341	1.237	233.58		GetAnswer	Loss
16.0	1	233.597	0.017	271.507	10.27	5.14	22.3688	4.0	955.0	2.22	Outcome1	10.27	11.1	0.0	No		-0.8254058135145341				ShowChoice	Loss
16.0	1	237.609	0.012	275.519	10.27	5.14	22.3688	1.0	955.0	2.22	Outcome1	10.27	11.1	0.0	No		-0.8254058135145341				ShowResult	Loss
16.0	1	238.629	0.02	276.539	10.27	5.14	22.3688	3.008	955.0	2.22	Outcome1	10.27	11.1	0.0	No		-0.8254058135145341				ISITrial	Loss
17.0	1	241.654	0.017	279.564	2.1	0.0	22.6313	3.0	955.0	1.5	Outcome1	2.1	-3.19	3041.5	Yes	2.0	5.2876557191393	1.813	243.467		GetAnswer	Mixed
17.0	1	243.493	0.026	281.403	2.1	0.0	22.6313	4.0	955.0	1.5	Outcome1	2.1	-3.19	3041.5	Yes		5.2876557191393				ShowChoice	Mixed
17.0	1	247.505	0.012	285.415	2.1	0.0	22.6313	1.0	955.0	1.5	Outcome1	2.1	-3.19	3041.5	Yes		5.2876557191393				ShowResult	Mixed
17.0	1	248.525	0.02	286.435	2.1	0.0	22.6313	3.566	955.0	1.5	Outcome1	2.1	-3.19	3041.5	Yes		5.2876557191393				ISITrial	Mixed
17.0	1	255.161	0.017	293.071	2.1	0.0	22.6313	1.429	955.0	1.5	Outcome1	2.1	-3.19	3041.5	Yes		5.2876557191393			744.0	TrialHappiness	Mixed
17.0	1	259.173	4.012	297.083	2.1	0.0	22.6313	4.166	955.0	1.5	Outcome1	2.1	-3.19	3041.5	Yes		5.2876557191393				ISIRate	Mixed
18.0	1	263.369	0.03	301.279	13.7	3.61	24.3438	3.0	955.0	3.16	Outcome2	7.22	13.7	0.0	No	2.0	6.47791619479049	1.497	264.866		GetAnswer	Loss
18.0	1	264.891	0.025	302.801	13.7	3.61	24.3438	4.0	955.0	3.16	Outcome2	7.22	13.7	0.0	No		6.47791619479049				ShowChoice	Loss
18.0	1	268.903	0.012	306.813	13.7	3.61	24.3438	1.0	955.0	3.16	Outcome2	7.22	13.7	0.0	No		6.47791619479049				ShowResult	Loss
18.0	1	269.922	0.019	307.832	13.7	3.61	24.3438	6.787	955.0	3.16	Outcome2	7.22	13.7	0.0	No		6.47791619479049				ISITrial	Loss
19.0	1	276.726	0.017	314.636	1.7	-1.0	24.5563	3.0	955.0	1.0	Outcome2	-5.02	1.7	0.0	No	2.0	6.7168742921857305	1.299	278.025		GetAnswer	Mixed
19.0	1	278.047	0.022	315.957	1.7	-1.0	24.5563	4.0	955.0	1.0	Outcome2	-5.02	1.7	0.0	No		6.7168742921857305				ShowChoice	Mixed
19.0	1	282.059	0.012	319.969	1.7	-1.0	24.5563	1.0	955.0	1.0	Outcome2	-5.02	1.7	0.0	No		6.7168742921857305				ShowResult	Mixed
19.0	1	283.078	0.019	320.988	1.7	-1.0	24.5563	2.0	955.0	1.0	Outcome2	-5.02	1.7	0.0	No		6.7168742921857305				ISITrial	Mixed
20.0	1	285.101	0.023	323.011	-0.7	-4.0	24.4688	3.0	955.0	0.66	Outcome1	-0.7	-7.66	2921.25	Yes	2.0	6.95583238958097	2.184	287.285		GetAnswer	Mixed
20.0	1	287.308	0.023	325.218	-0.7	-4.0	24.4688	4.0	955.0	0.66	Outcome1	-0.7	-7.66	2921.25	Yes		6.95583238958097				ShowChoice	Mixed
20.0	1	291.32	0.012	329.23	-0.7	-4.0	24.4688	1.0	955.0	0.66	Outcome1	-0.7	-7.66	2921.25	Yes		6.95583238958097				ShowResult	Mixed
20.0	1	292.339	0.019	330.249	-0.7	-4.0	24.4688	8.0	955.0	0.66	Outcome1	-0.7	-7.66	2921.25	Yes		6.95583238958097				ISITrial	Mixed
20.0	1	303.306	0.022	341.216	-0.7	-4.0	24.4688	1.125	955.0	0.66	Outcome1	-0.7	-7.66	2921.25	Yes		6.95583238958097			736.0	TrialHappiness	Mixed
20.0	1	307.318	4.012	345.228	-0.7	-4.0	24.4688	3.685	955.0	0.66	Outcome1	-0.7	-7.66	2921.25	Yes		6.95583238958097				ISIRate	Mixed
21.0	1	311.029	0.026	348.939	-0.09	0.0	24.4575	3.0	955.0	0.52	Outcome1	-0.09	1.1	0.0	No	2.0	-1.18959984899962	1.54	312.569		GetAnswer	Mixed
21.0	1	312.583	0.014	350.493	-0.09	0.0	24.4575	4.0	955.0	0.52	Outcome1	-0.09	1.1	0.0	No		-1.18959984899962				ShowChoice	Mixed
21.0	1	316.595	0.012	354.505	-0.09	0.0	24.4575	1.0	955.0	0.52	Outcome1	-0.09	1.1	0.0	No		-1.18959984899962				ShowResult	Mixed
21.0	1	317.615	0.02	355.525	-0.09	0.0	24.4575	3.555	955.0	0.52	Outcome1	-0.09	1.1	0.0	No		-1.18959984899962				ISITrial	Mixed
22.0	1	321.192	0.022	359.102	0.9	-3.0	24.57	3.0	955.0	0.4	Outcome2	-6.68	0.9	3219.5	Yes	2.0	7.5787089467723705	1.852	323.044		GetAnswer	Mixed
22.0	1	323.065	0.02	360.975	0.9	-3.0	24.57	4.0	955.0	0.4	Outcome2	-6.68	0.9	3219.5	Yes		7.5787089467723705				ShowChoice	Mixed
22.0	1	327.077	0.012	364.987	0.9	-3.0	24.57	1.0	955.0	0.4	Outcome2	-6.68	0.9	3219.5	Yes		7.5787089467723705				ShowResult	Mixed
22.0	1	328.096	0.019	366.006	0.9	-3.0	24.57	6.793	955.0	0.4	Outcome2	-6.68	0.9	3219.5	Yes		7.5787089467723705				ISITrial	Mixed
22.0	1	338.143	0.023	376.053	0.9	-3.0	24.57	1.093	955.0	0.4	Outcome2	-6.68	0.9	3219.5	Yes		7.5787089467723705			792.0	TrialHappiness	Mixed
22.0	1	342.155	4.012	380.065	0.9	-3.0	24.57	4.878	955.0	0.4	Outcome2	-6.68	0.9	3219.5	Yes		7.5787089467723705				ISIRate	Mixed
23.0	1	347.053	0.02	384.963	11.9	5.95	26.0575	3.0	955.0	2.0	Outcome1	11.9	12.9	0.0	No	2.0	-1.00368063420159	1.705	348.758		GetAnswer	Loss
23.0	1	348.775	0.017	386.685	11.9	5.95	26.0575	4.0	955.0	2.0	Outcome1	11.9	12.9	0.0	No		-1.00368063420159				ShowChoice	Loss
23.0	1	352.787	0.012	390.697	11.9	5.95	26.0575	1.0	955.0	2.0	Outcome1	11.9	12.9	0.0	No		-1.00368063420159				ShowResult	Loss
23.0	1	353.807	0.02	391.717	11.9	5.95	26.0575	8.0	955.0	2.0	Outcome1	11.9	12.9	0.0	No		-1.00368063420159				ISITrial	Loss
24.0	1	361.831	0.024	399.741	7.3	0.12	26.97	3.0	955.0	2.48	Outcome2	0.24	7.3	3255.0	Yes	2.0	7.060022650056619	0.923	362.754		GetAnswer	Gain
24.0	1	362.767	0.013	400.677	7.3	0.12	26.97	4.0	955.0	2.48	Outcome2	0.24	7.3	3255.0	Yes		7.060022650056619				ShowChoice	Gain
24.0	1	366.779	0.012	404.689	7.3	0.12	26.97	1.0	955.0	2.48	Outcome2	0.24	7.3	3255.0	Yes		7.060022650056619				ShowResult	Gain
24.0	1	367.799	0.02	405.709	7.3	0.12	26.97	2.0	955.0	2.48	Outcome2	0.24	7.3	3255.0	Yes		7.060022650056619				ISITrial	Gain
24.0	1	373.098	0.022	411.008	7.3	0.12	26.97	1.62	955.0	2.48	Outcome2	0.24	7.3	3255.0	Yes	2{-2}2{-2}	7.060022650056619	1.62	374.718	764.0	TrialHappiness	Gain
24.0	1	377.11	4.012	415.02	7.3	0.12	26.97	5.02	955.0	2.48	Outcome2	0.24	7.3	3255.0	Yes		7.060022650056619				ISIRate	Gain
25.0	1	382.158	0.028	420.068	10.95	5.48	28.3388	3.0	955.0	4.2	Outcome1	10.95	12.1	0.0	No	2.0	-1.14807474518686	1.183	383.341		GetAnswer	Loss
25.0	1	383.362	0.021	421.272	10.95	5.48	28.3388	4.0	955.0	4.2	Outcome1	10.95	12.1	0.0	No		-1.14807474518686				ShowChoice	Loss
25.0	1	387.374	0.012	425.284	10.95	5.48	28.3388	1.0	955.0	4.2	Outcome1	10.95	12.1	0.0	No		-1.14807474518686				ShowResult	Loss
25.0	1	388.394	0.02	426.304	10.95	5.48	28.3388	3.749	955.0	4.2	Outcome1	10.95	12.1	0.0	No		-1.14807474518686				ISITrial	Loss
26.0	1	392.172	0.029	430.082	11.9	1.98	29.8263	3.0	955.0	3.6	Outcome2	3.96	11.9	0.0	No	2.0	7.936579841449599	0.966	393.138		GetAnswer	Loss
26.0	1	393.158	0.02	431.068	11.9	1.98	29.8263	4.0	955.0	3.6	Outcome2	3.96	11.9	0.0	No		7.936579841449599				ShowChoice	Loss
26.0	1	397.17	0.012	435.08	11.9	1.98	29.8263	1.0	955.0	3.6	Outcome2	3.96	11.9	0.0	No		7.936579841449599				ShowResult	Loss
26.0	1	398.19	0.02	436.1	11.9	1.98	29.8263	7.834	955.0	3.6	Outcome2	3.96	11.9	0.0	No		7.936579841449599				ISITrial	Loss
27.0	1	406.046	0.022	443.956	4.32	2.16	30.3663	3.0	955.0	2.8	Outcome2	5.5	4.32	2549.75	Yes	2.0	-1.18412608531521	0.955	407.001		GetAnswer	Gain
27.0	1	407.016	0.015	444.926	4.32	2.16	30.3663	4.0	955.0	2.8	Outcome2	5.5	4.32	2549.75	Yes		-1.18412608531521				ShowChoice	Gain
27.0	1	411.028	0.012	448.938	4.32	2.16	30.3663	1.0	955.0	2.8	Outcome2	5.5	4.32	2549.75	Yes		-1.18412608531521				ShowResult	Gain
27.0	1	412.048	0.02	449.958	4.32	2.16	30.3663	4.225	955.0	2.8	Outcome2	5.5	4.32	2549.75	Yes		-1.18412608531521				ISITrial	Gain
27.0	1	418.868	0.024	456.778	4.32	2.16	30.3663	2.665	955.0	2.8	Outcome2	5.5	4.32	2549.75	Yes		-1.18412608531521			776.0	TrialHappiness	Gain
27.0	1	422.88	4.012	460.79	4.32	2.16	30.3663	2.199	955.0	2.8	Outcome2	5.5	4.32	2549.75	Yes		-1.18412608531521				ISIRate	Gain
	1	425.103	0.024	463.013				-0.001								{SPACE}		20.8	445.903		Rest	
	1	445.932	0.029	483.842				4.0													BlockHappyPreview	
	1	449.944	0.012	487.854				0.909								2{-2}		0.909	450.853	760.0	BlockStartHappiness	
	1	459.272	0.025	497.182				-0.001								5.0		0.525	459.797		ScanWait	
	2	0.01	0.01	497.717				10.0													GetReady	
28.0	2	10.024	0.014	507.731	-9.83	-4.0	29.1375	3.0	70.0	1.2	Outcome2	1.9	-9.83	0.0	No	2.0	-11.734693877551	1.291	11.315		GetAnswer	Mixed
28.0	2	11.328	0.013	509.035	-9.83	-4.0	29.1375	4.0	70.0	1.2	Outcome2	1.9	-9.83	0.0	No		-11.734693877551				ShowChoice	Mixed
28.0	2	15.34	0.012	513.047	-9.83	-4.0	29.1375	1.0	70.0	1.2	Outcome2	1.9	-9.83	0.0	No		-11.734693877551				ShowResult	Mixed
28.0	2	16.359	0.019	514.066	-9.83	-4.0	29.1375	3.575	70.0	1.2	Outcome2	1.9	-9.83	0.0	No		-11.734693877551				ISITrial	Mixed
29.0	2	19.953	0.019	517.66	2.62	1.0	29.465	3.0	70.0	1.68	Outcome2	-0.25	2.62	3529.0	Yes	2.0	2.8684807256235803	1.872	21.825		GetAnswer	Loss
29.0	2	21.842	0.017	519.549	2.62	1.0	29.465	4.0	70.0	1.68	Outcome2	-0.25	2.62	3529.0	Yes		2.8684807256235803				ShowChoice	Loss
29.0	2	25.854	0.012	523.561	2.62	1.0	29.465	1.0	70.0	1.68	Outcome2	-0.25	2.62	3529.0	Yes		2.8684807256235803				ShowResult	Loss
29.0	2	26.874	0.02	524.581	2.62	1.0	29.465	3.955	70.0	1.68	Outcome2	-0.25	2.62	3529.0	Yes		2.8684807256235803				ISITrial	Loss
29.0	2	34.413	0.031	532.12	2.62	1.0	29.465	2.179	70.0	1.68	Outcome2	-0.25	2.62	3529.0	Yes		2.8684807256235803			760.0	TrialHappiness	Loss
29.0	2	38.425	4.012	536.132	2.62	1.0	29.465	6.116	70.0	1.68	Outcome2	-0.25	2.62	3529.0	Yes		2.8684807256235803				ISIRate	Loss
30.0	2	44.56	0.019	542.267	-3.2	-1.6	29.065	3.0	70.0	4.2	Outcome1	-3.2	10.1	0.0	No	2.0	-13.2993197278912	1.091	45.651		GetAnswer	Gain
30.0	2	45.68	0.029	543.387	-3.2	-1.6	29.065	4.0	70.0	4.2	Outcome1	-3.2	10.1	0.0	No		-13.2993197278912				ShowChoice	Gain
30.0	2	49.692	0.012	547.399	-3.2	-1.6	29.065	1.0	70.0	4.2	Outcome1	-3.2	10.1	0.0	No		-13.2993197278912				ShowResult	Gain
30.0	2	50.712	0.02	548.419	-3.2	-1.6	29.065	4.453	70.0	4.2	Outcome1	-3.2	10.1	0.0	No		-13.2993197278912				ISITrial	Gain
31.0	2	55.192	0.027	552.899	-10.78	-3.0	27.7175	3.0	70.0	0.66	Outcome1	-10.78	3.3	2503.25	Yes	2.0	-14.081632653061199	2.394	57.586		GetAnswer	Mixed
31.0	2	57.599	0.013	555.306	-10.78	-3.0	27.7175	4.0	70.0	0.66	Outcome1	-10.78	3.3	2503.25	Yes		-14.081632653061199				ShowChoice	Mixed
31.0	2	61.611	0.012	559.318	-10.78	-3.0	27.7175	1.0	70.0	0.66	Outcome1	-10.78	3.3	2503.25	Yes		-14.081632653061199				ShowResult	Mixed
31.0	2	62.631	0.02	560.338	-10.78	-3.0	27.7175	4.786	70.0	0.66	Outcome1	-10.78	3.3	2503.25	Yes		-14.081632653061199				ISITrial	Mixed
31.0	2	69.953	0.021	567.66	-10.78	-3.0	27.7175	2.833	70.0	0.66	Outcome1	-10.78	3.3	2503.25	Yes		-14.081632653061199			640.0	TrialHappiness	Mixed
31.0	2	73.965	4.012	571.672	-10.78	-3.0	27.7175	2.013	70.0	0.66	Outcome1	-10.78	3.3	2503.25	Yes		-14.081632653061199				ISIRate	Mixed
32.0	2	76.004	0.026	573.711	-1.0	-1.0	27.5925	3.0	70.0	1.5	Certain	0.02	-2.56	0.0	No	4.0	2.5765306122448997	1.877	77.881		GetAnswer	Mixed
32.0	2	77.893	0.012	575.6	-1.0	-1.0	27.5925	4.0	70.0	1.5	Certain	0.02	-2.56	0.0	No		2.5765306122448997				ShowChoice	Mixed
32.0	2	81.905	0.012	579.612	-1.0	-1.0	27.5925	1.0	70.0	1.5	Certain	0.02	-2.56	0.0	No		2.5765306122448997				ShowResult	Mixed
32.0	2	82.925	0.02	580.632	-1.0	-1.0	27.5925	2.0	70.0	1.5	Certain	0.02	-2.56	0.0	No		2.5765306122448997				ISITrial	Mixed
33.0	2	84.948	0.023	582.655	-7.17	0.0	26.6963	3.0	70.0	5.0	Outcome1	-7.17	6.3	0.0	No	2.0	-13.469387755102	2.008	86.956		GetAnswer	Gain
33.0	2	86.971	0.015	584.678	-7.17	0.0	26.6963	4.0	70.0	5.0	Outcome1	-7.17	6.3	0.0	No		-13.469387755102				ShowChoice	Gain
33.0	2	90.983	0.012	588.69	-7.17	0.0	26.6963	1.0	70.0	5.0	Outcome1	-7.17	6.3	0.0	No		-13.469387755102				ShowResult	Gain
33.0	2	92.002	0.019	589.709	-7.17	0.0	26.6963	5.099	70.0	5.0	Outcome1	-7.17	6.3	0.0	No		-13.469387755102				ISITrial	Gain
34.0	2	97.118	0.017	594.825	-9.42	-2.0	25.5188	3.0	70.0	1.82	Outcome2	4.7	-9.42	3231.5	Yes	2.0	-14.115646258503402	2.723	99.841		GetAnswer	Gain
34.0	2	99.859	0.018	597.566	-9.42	-2.0	25.5188	4.0	70.0	1.82	Outcome2	4.7	-9.42	3231.5	Yes		-14.115646258503402				ShowChoice	Gain
34.0	2	103.871	0.012	601.578	-9.42	-2.0	25.5188	1.0	70.0	1.82	Outcome2	4.7	-9.42	3231.5	Yes		-14.115646258503402				ShowResult	Gain
34.0	2	104.891	0.02	602.598	-9.42	-2.0	25.5188	4.784	70.0	1.82	Outcome2	4.7	-9.42	3231.5	Yes		-14.115646258503402				ISITrial	Gain
34.0	2	112.948	0.027	610.655	-9.42	-2.0	25.5188	0.743	70.0	1.82	Outcome2	4.7	-9.42	3231.5	Yes		-14.115646258503402			576.0	TrialHappiness	Gain
34.0	2	116.96	4.012	614.667	-9.42	-2.0	25.5188	4.926	70.0	1.82	Outcome2	4.7	-9.42	3231.5	Yes		-14.115646258503402				ISIRate	Gain
35.0	2	121.909	0.023	619.616	1.0	1.0	25.6438	3.0	70.0	3.16	Certain	-0.06	2.42	0.0	No	4.0	2.4780801209372596	1.933	123.842		GetAnswer	Gain
35.0	2	123.864	0.022	621.571	1.0	1.0	25.6438	4.0	70.0	3.16	Certain	-0.06	2.42	0.0	No		2.4780801209372596				ShowChoice	Gain
35.0	2	127.876	0.012	625.583	1.0	1.0	25.6438	1.0	70.0	3.16	Certain	-0.06	2.42	0.0	No		2.4780801209372596				ShowResult	Gain
35.0	2	128.896	0.02	626.603	1.0	1.0	25.6438	2.098	70.0	3.16	Certain	-0.06	2.42	0.0	No		2.4780801209372596				ISITrial	Gain
36.0	2	131.019	0.025	628.726	2.88	1.0	26.0038	3.0	70.0	2.8	Outcome2	0.35	2.88	3335.75	Yes	2.0	2.5258881330309904	1.278	132.297		GetAnswer	Loss
36.0	2	132.323	0.026	630.03	2.88	1.0	26.0038	4.0	70.0	2.8	Outcome2	0.35	2.88	3335.75	Yes		2.5258881330309904				ShowChoice	Loss
36.0	2	136.335	0.012	634.042	2.88	1.0	26.0038	1.0	70.0	2.8	Outcome2	0.35	2.88	3335.75	Yes		2.5258881330309904				ShowResult	Loss
36.0	2	137.355	0.02	635.062	2.88	1.0	26.0038	5.156	70.0	2.8	Outcome2	0.35	2.88	3335.75	Yes		2.5258881330309904				ISITrial	Loss
36.0	2	145.897	0.024	643.604	2.88	1.0	26.0038	3.685	70.0	2.8	Outcome2	0.35	2.88	3335.75	Yes		2.5258881330309904			688.0	TrialHappiness	Loss
36.0	2	149.909	4.012	647.616	2.88	1.0	26.0038	5.343	70.0	2.8	Outcome2	0.35	2.88	3335.75	Yes		2.5258881330309904				ISIRate	Loss
37.0	2	155.275	0.023	652.982	-0.28	-2.0	25.9688	3.0	70.0	0.4	Outcome2	-3.31	-0.28	0.0	No		3.02872260015117				GetAnswer	Mixed
37.0	2	158.301	0.026	656.008	-0.28	-2.0	25.9688	4.0	70.0	0.4	Outcome2	-3.31	-0.28	0.0	No		3.02872260015117				ShowChoice	Mixed
37.0	2	162.313	0.012	660.02	-0.28	-2.0	25.9688	1.0	70.0	0.4	Outcome2	-3.31	-0.28	0.0	No		3.02872260015117				ShowResult	Mixed
37.0	2	163.333	0.02	661.04	-0.28	-2.0	25.9688	3.598	70.0	0.4	Outcome2	-3.31	-0.28	0.0	No		3.02872260015117				ISITrial	Mixed
38.0	2	166.96	0.029	664.667	-9.33	0.0	24.8026	3.0	70.0	4.2	Outcome2	8.1	-9.33	0.0	No	2.0	-17.4263038548753	1.492	168.452		GetAnswer	Gain
38.0	2	168.465	0.013	666.172	-9.33	0.0	24.8026	4.0	70.0	4.2	Outcome2	8.1	-9.33	0.0	No		-17.4263038548753				ShowChoice	Gain
38.0	2	172.477	0.012	670.184	-9.33	0.0	24.8026	1.0	70.0	4.2	Outcome2	8.1	-9.33	0.0	No		-17.4263038548753				ShowResult	Gain
38.0	2	173.496	0.019	671.203	-9.33	0.0	24.8026	4.787	70.0	4.2	Outcome2	8.1	-9.33	0.0	No		-17.4263038548753				ISITrial	Gain
39.0	2	178.311	0.028	676.018	0.0	0.0	24.8026	3.0	70.0	4.2	Certain	1.52	-1.63	2864.25	Yes	4.0	3.14550264550265	1.932	180.243		GetAnswer	Gain
39.0	2	180.267	0.024	677.974	0.0	0.0	24.8026	4.0	70.0	4.2	Certain	1.52	-1.63	2864.25	Yes		3.14550264550265				ShowChoice	Gain
39.0	2	184.279	0.012	681.986	0.0	0.0	24.8026	1.0	70.0	4.2	Certain	1.52	-1.63	2864.25	Yes		3.14550264550265				ShowResult	Gain
39.0	2	185.298	0.019	683.005	0.0	0.0	24.8026	2.348	70.0	4.2	Certain	1.52	-1.63	2864.25	Yes		3.14550264550265				ISITrial	Gain
39.0	2	190.564	0.028	688.271	0.0	0.0	24.8026	1.996	70.0	4.2	Certain	1.52	-1.63	2864.25	Yes		3.14550264550265			632.0	TrialHappiness	Gain
39.0	2	194.576	4.012	692.283	0.0	0.0	24.8026	3.457	70.0	4.2	Certain	1.52	-1.63	2864.25	Yes		3.14550264550265				ISIRate	Gain
40.0	2	198.053	0.02	695.76	-0.02	-1.0	24.8001	3.0	70.0	1.2	Outcome1	-0.02	-3.0	0.0	No	2.0	2.9763794406651605	2.201	200.254		GetAnswer	Mixed
40.0	2	200.276	0.022	697.983	-0.02	-1.0	24.8001	4.0	70.0	1.2	Outcome1	-0.02	-3.0	0.0	No		2.9763794406651605				ShowChoice	Mixed
40.0	2	204.288	0.012	701.995	-0.02	-1.0	24.8001	1.0	70.0	1.2	Outcome1	-0.02	-3.0	0.0	No		2.9763794406651605				ShowResult	Mixed
40.0	2	205.308	0.02	703.015	-0.02	-1.0	24.8001	3.158	70.0	1.2	Outcome1	-0.02	-3.0	0.0	No		2.9763794406651605				ISITrial	Mixed
41.0	2	208.484	0.018	706.191	2.0	2.0	25.0501	3.0	70.0	3.16	Certain	11.7	-6.81	4000.0	Yes	4.0	-18.5124716553288	0.952	209.436		GetAnswer	Loss
41.0	2	209.454	0.018	707.161	2.0	2.0	25.0501	4.0	70.0	3.16	Certain	11.7	-6.81	4000.0	Yes		-18.5124716553288				ShowChoice	Loss
41.0	2	213.466	0.012	711.173	2.0	2.0	25.0501	1.0	70.0	3.16	Certain	11.7	-6.81	4000.0	Yes		-18.5124716553288				ShowResult	Loss
41.0	2	214.486	0.02	712.193	2.0	2.0	25.0501	4.506	70.0	3.16	Certain	11.7	-6.81	4000.0	Yes		-18.5124716553288				ISITrial	Loss
41.0	2	223.045	0.029	720.752	2.0	2.0	25.0501	0.591	70.0	3.16	Certain	11.7	-6.81	4000.0	Yes		-18.5124716553288			608.0	TrialHappiness	Loss
41.0	2	227.057	4.012	724.764	2.0	2.0	25.0501	8.0	70.0	3.16	Certain	11.7	-6.81	4000.0	Yes		-18.5124716553288				ISIRate	Loss
42.0	2	235.081	0.024	732.788	-10.84	-1.0	23.6951	3.0	70.0	3.6	Outcome1	-10.84	7.9	0.0	No		-18.7414965986395				GetAnswer	Gain
42.0	2	238.106	0.025	735.813	-10.84	-1.0	23.6951	4.0	70.0	3.6	Outcome1	-10.84	7.9	0.0	No		-18.7414965986395				ShowChoice	Gain
42.0	2	242.118	0.012	739.825	-10.84	-1.0	23.6951	1.0	70.0	3.6	Outcome1	-10.84	7.9	0.0	No		-18.7414965986395				ShowResult	Gain
42.0	2	243.138	0.02	740.845	-10.84	-1.0	23.6951	6.248	70.0	3.6	Outcome1	-10.84	7.9	0.0	No		-18.7414965986395				ISITrial	Gain
43.0	2	249.407	0.021	747.114	-6.0	-6.0	22.9451	3.0	70.0	0.52	Certain	-16.25	3.1	2775.75	Yes	4.0	-19.3514739229025	2.655	252.062		GetAnswer	Mixed
43.0	2	252.082	0.02	749.789	-6.0	-6.0	22.9451	4.0	70.0	0.52	Certain	-16.25	3.1	2775.75	Yes		-19.3514739229025				ShowChoice	Mixed
43.0	2	256.094	0.012	753.801	-6.0	-6.0	22.9451	1.0	70.0	0.52	Certain	-16.25	3.1	2775.75	Yes		-19.3514739229025				ShowResult	Mixed
43.0	2	257.113	0.019	754.82	-6.0	-6.0	22.9451	4.596	70.0	0.52	Certain	-16.25	3.1	2775.75	Yes		-19.3514739229025				ISITrial	Mixed
43.0	2	264.519	0.016	762.226	-6.0	-6.0	22.9451	0.76	70.0	0.52	Certain	-16.25	3.1	2775.75	Yes		-19.3514739229025			544.0	TrialHappiness	Mixed
43.0	2	268.531	4.012	766.238	-6.0	-6.0	22.9451	3.103	70.0	0.52	Certain	-16.25	3.1	2775.75	Yes		-19.3514739229025				ISIRate	Mixed
44.0	2	271.657	0.023	769.364	-17.57	-8.0	20.7489	3.0	70.0	0.66	Outcome1	-17.57	1.3	0.0	No	2.0	-18.8730158730159	1.5	273.157		GetAnswer	Mixed
44.0	2	273.178	0.021	770.885	-17.57	-8.0	20.7489	4.0	70.0	0.66	Outcome1	-17.57	1.3	0.0	No		-18.8730158730159				ShowChoice	Mixed
44.0	2	277.19	0.012	774.897	-17.57	-8.0	20.7489	1.0	70.0	0.66	Outcome1	-17.57	1.3	0.0	No		-18.8730158730159				ShowResult	Mixed
44.0	2	278.21	0.02	775.917	-17.57	-8.0	20.7489	2.42	70.0	0.66	Outcome1	-17.57	1.3	0.0	No		-18.8730158730159				ISITrial	Mixed
45.0	2	280.65	0.02	778.357	-7.0	-7.0	19.8739	3.0	70.0	0.2	Certain	2.5	-16.91	0.0	No	4.0	-19.410430839002302	2.995	283.645		GetAnswer	Mixed
45.0	2	283.659	0.014	781.366	-7.0	-7.0	19.8739	4.0	70.0	0.2	Certain	2.5	-16.91	0.0	No		-19.410430839002302				ShowChoice	Mixed
45.0	2	287.671	0.012	785.378	-7.0	-7.0	19.8739	1.0	70.0	0.2	Certain	2.5	-16.91	0.0	No		-19.410430839002302				ShowResult	Mixed
45.0	2	288.691	0.02	786.398	-7.0	-7.0	19.8739	3.144	70.0	0.2	Certain	2.5	-16.91	0.0	No		-19.410430839002302				ISITrial	Mixed
46.0	2	291.867	0.032	789.574	-6.85	-3.42	19.0177	3.0	70.0	2.22	Outcome2	13.1	-6.85	3841.25	Yes	2.0	-19.9478458049887	1.142	293.009		GetAnswer	Loss
46.0	2	293.037	0.028	790.744	-6.85	-3.42	19.0177	4.0	70.0	2.22	Outcome2	13.1	-6.85	3841.25	Yes		-19.9478458049887				ShowChoice	Loss
46.0	2	297.049	0.012	794.756	-6.85	-3.42	19.0177	1.0	70.0	2.22	Outcome2	13.1	-6.85	3841.25	Yes		-19.9478458049887				ShowResult	Loss
46.0	2	298.069	0.02	795.776	-6.85	-3.42	19.0177	2.246	70.0	2.22	Outcome2	13.1	-6.85	3841.25	Yes		-19.9478458049887				ISITrial	Loss
46.0	2	304.188	0.021	801.895	-6.85	-3.42	19.0177	0.575	70.0	2.22	Outcome2	13.1	-6.85	3841.25	Yes		-19.9478458049887			536.0	TrialHappiness	Loss
46.0	2	308.2	4.012	805.907	-6.85	-3.42	19.0177	7.365	70.0	2.22	Outcome2	13.1	-6.85	3841.25	Yes		-19.9478458049887				ISIRate	Loss
47.0	2	315.588	0.023	813.295	-20.65	-10.0	16.4364	3.0	70.0	1.0	Outcome2	-0.3	-20.65	0.0	No	2.0	-20.349206349206398	2.634	318.222		GetAnswer	Mixed
47.0	2	318.246	0.024	815.953	-20.65	-10.0	16.4364	4.0	70.0	1.0	Outcome2	-0.3	-20.65	0.0	No		-20.349206349206398				ShowChoice	Mixed
47.0	2	322.258	0.012	819.965	-20.65	-10.0	16.4364	1.0	70.0	1.0	Outcome2	-0.3	-20.65	0.0	No		-20.349206349206398				ShowResult	Mixed
47.0	2	323.278	0.02	820.985	-20.65	-10.0	16.4364	2.0	70.0	1.0	Outcome2	-0.3	-20.65	0.0	No		-20.349206349206398				ISITrial	Mixed
48.0	2	325.301	0.023	823.008	1.0	1.0	16.5614	3.0	70.0	1.82	Certain	-0.29	2.68	2831.75	Yes	4.0	2.97260015117158	1.898	327.199		GetAnswer	Loss
48.0	2	327.223	0.024	824.93	1.0	1.0	16.5614	4.0	70.0	1.82	Certain	-0.29	2.68	2831.75	Yes		2.97260015117158				ShowChoice	Loss
48.0	2	331.235	0.012	828.942	1.0	1.0	16.5614	1.0	70.0	1.82	Certain	-0.29	2.68	2831.75	Yes		2.97260015117158				ShowResult	Loss
48.0	2	332.255	0.02	829.962	1.0	1.0	16.5614	3.692	70.0	1.82	Certain	-0.29	2.68	2831.75	Yes		2.97260015117158				ISITrial	Loss
48.0	2	338.825	0.027	836.532	1.0	1.0	16.5614	0.559	70.0	1.82	Certain	-0.29	2.68	2831.75	Yes		2.97260015117158			536.0	TrialHappiness	Loss
48.0	2	342.837	4.012	840.544	1.0	1.0	16.5614	3.327	70.0	1.82	Certain	-0.29	2.68	2831.75	Yes		2.97260015117158				ISIRate	Loss
49.0	2	346.18	0.016	843.887	-16.31	-5.0	14.5226	3.0	70.0	2.22	Outcome2	5.1	-16.31	0.0	No	2.0	-21.40589569161	2.451	348.631		GetAnswer	Gain
49.0	2	348.654	0.023	846.361	-16.31	-5.0	14.5226	4.0	70.0	2.22	Outcome2	5.1	-16.31	0.0	No		-21.40589569161				ShowChoice	Gain
49.0	2	352.666	0.012	850.373	-16.31	-5.0	14.5226	1.0	70.0	2.22	Outcome2	5.1	-16.31	0.0	No		-21.40589569161				ShowResult	Gain
49.0	2	353.686	0.02	851.393	-16.31	-5.0	14.5226	8.0	70.0	2.22	Outcome2	5.1	-16.31	0.0	No		-21.40589569161				ISITrial	Gain
50.0	2	361.71	0.024	859.417	-16.03	-5.0	12.5188	3.0	70.0	3.6	Outcome1	-16.03	5.9	3547.25	Yes		-21.9342403628118				GetAnswer	Gain
50.0	2	364.735	0.025	862.442	-16.03	-5.0	12.5188	4.0	70.0	3.6	Outcome1	-16.03	5.9	3547.25	Yes		-21.9342403628118				ShowChoice	Gain
50.0	2	368.747	0.012	866.454	-16.03	-5.0	12.5188	1.0	70.0	3.6	Outcome1	-16.03	5.9	3547.25	Yes		-21.9342403628118				ShowResult	Gain
50.0	2	369.767	0.02	867.474	-16.03	-5.0	12.5188	7.537	70.0	3.6	Outcome1	-16.03	5.9	3547.25	Yes		-21.9342403628118				ISITrial	Gain
50.0	2	380.9	0.03	878.607	-16.03	-5.0	12.5188	0.61	70.0	3.6	Outcome1	-16.03	5.9	3547.25	Yes		-21.9342403628118			456.0	TrialHappiness	Gain
50.0	2	384.912	4.012	882.619	-16.03	-5.0	12.5188	6.189	70.0	3.6	Outcome1	-16.03	5.9	3547.25	Yes		-21.9342403628118				ISIRate	Gain
51.0	2	391.131	0.03	888.838	-16.8	-6.0	10.4188	3.0	70.0	2.0	Outcome1	-16.8	4.3	0.0	No	2.0	-21.1020408163265	1.365	392.496		GetAnswer	Mixed
51.0	2	392.519	0.023	890.226	-16.8	-6.0	10.4188	4.0	70.0	2.0	Outcome1	-16.8	4.3	0.0	No		-21.1020408163265				ShowChoice	Mixed
51.0	2	396.547	0.028	894.254	-16.8	-6.0	10.4188	1.0	70.0	2.0	Outcome1	-16.8	4.3	0.0	No		-21.1020408163265				ShowResult	Mixed
51.0	2	397.567	0.02	895.274	-16.8	-6.0	10.4188	5.508	70.0	2.0	Outcome1	-16.8	4.3	0.0	No		-21.1020408163265				ISITrial	Mixed
52.0	2	403.1	0.025	900.807	0.0	0.0	10.4188	3.0	70.0	2.8	Certain	-0.94	1.88	0.0	No	4.0	2.8161375661375696	1.057	404.157		GetAnswer	Gain
52.0	2	404.17	0.013	901.877	0.0	0.0	10.4188	4.0	70.0	2.8	Certain	-0.94	1.88	0.0	No		2.8161375661375696				ShowChoice	Gain
52.0	2	408.182	0.012	905.889	0.0	0.0	10.4188	1.0	70.0	2.8	Certain	-0.94	1.88	0.0	No		2.8161375661375696				ShowResult	Gain
52.0	2	409.202	0.02	906.909	0.0	0.0	10.4188	5.913	70.0	2.8	Certain	-0.94	1.88	0.0	No		2.8161375661375696				ISITrial	Gain
53.0	2	415.136	0.021	912.843	-10.68	0.0	9.0838	3.0	70.0	2.48	Outcome1	-10.68	11.3	2996.75	Yes	2.0	-21.977324263038604	0.936	416.072		GetAnswer	Loss
53.0	2	416.089	0.016	913.796	-10.68	0.0	9.0838	4.0	70.0	2.48	Outcome1	-10.68	11.3	2996.75	Yes		-21.977324263038604				ShowChoice	Loss
53.0	2	420.101	0.012	917.808	-10.68	0.0	9.0838	1.0	70.0	2.48	Outcome1	-10.68	11.3	2996.75	Yes		-21.977324263038604				ShowResult	Loss
53.0	2	421.121	0.02	918.828	-10.68	0.0	9.0838	3.66	70.0	2.48	Outcome1	-10.68	11.3	2996.75	Yes		-21.977324263038604				ISITrial	Loss
53.0	2	427.824	0.028	925.531	-10.68	0.0	9.0838	0.777	70.0	2.48	Outcome1	-10.68	11.3	2996.75	Yes		-21.977324263038604			472.0	TrialHappiness	Loss
53.0	2	431.836	4.012	929.543	-10.68	0.0	9.0838	3.987	70.0	2.48	Outcome1	-10.68	11.3	2996.75	Yes		-21.977324263038604				ISIRate	Loss
54.0	2	435.848	0.025	933.555	-8.0	-8.0	8.0838	3.0	70.0	0.3	Certain	-19.99	2.7	0.0	No	4.0	-22.687074829931998	2.904	438.752		GetAnswer	Mixed
54.0	2	438.774	0.022	936.481	-8.0	-8.0	8.0838	4.0	70.0	0.3	Certain	-19.99	2.7	0.0	No		-22.687074829931998				ShowChoice	Mixed
54.0	2	442.786	0.012	940.493	-8.0	-8.0	8.0838	1.0	70.0	0.3	Certain	-19.99	2.7	0.0	No		-22.687074829931998				ShowResult	Mixed
54.0	2	443.805	0.019	941.512	-8.0	-8.0	8.0838	8.0	70.0	0.3	Certain	-19.99	2.7	0.0	No		-22.687074829931998				ISITrial	Mixed
	2	451.829	0.024	949.536				-0.001								{SPACE}		22.763	474.592		Rest	
	2	474.614	0.022	972.321				4.0													BlockHappyPreview	
	2	478.626	0.012	976.333				0.825												384.0	BlockStartHappiness	
	2	484.427	0.011	982.134				-0.001								5.0		1.434	485.861		ScanWait	
	3	0.02	0.02	983.588				10.0													GetReady	
55.0	3	10.034	0.014	993.602	8.9	-0.4	9.1963	3.0	955.0	2.0	Outcome2	-0.8	8.9	2533.25	Yes	2.0	9.69988674971687	1.328	11.362		GetAnswer	Gain
55.0	3	11.388	0.026	994.956	8.9	-0.4	9.1963	4.0	955.0	2.0	Outcome2	-0.8	8.9	2533.25	Yes		9.69988674971687				ShowChoice	Gain
55.0	3	15.4	0.012	998.968	8.9	-0.4	9.1963	1.0	955.0	2.0	Outcome2	-0.8	8.9	2533.25	Yes		9.69988674971687				ShowResult	Gain
55.0	3	16.419	0.019	999.987	8.9	-0.4	9.1963	7.709	955.0	2.0	Outcome2	-0.8	8.9	2533.25	Yes		9.69988674971687				ISITrial	Gain
55.0	3	26.7	0.024	1010.268	8.9	-0.4	9.1963	1.127	955.0	2.0	Outcome2	-0.8	8.9	2533.25	Yes		9.69988674971687			376.0	TrialHappiness	Gain
55.0	3	30.712	4.012	1014.28	8.9	-0.4	9.1963	2.133	955.0	2.0	Outcome2	-0.8	8.9	2533.25	Yes		9.69988674971687				ISIRate	Gain
56.0	3	32.869	0.024	1016.437	8.7	-0.89	10.2838	3.0	955.0	1.82	Outcome1	8.7	-1.78	0.0	No	2.0	10.4824462061155	1.667	34.536		GetAnswer	Gain
56.0	3	34.557	0.021	1018.125	8.7	-0.89	10.2838	4.0	955.0	1.82	Outcome1	8.7	-1.78	0.0	No		10.4824462061155				ShowChoice	Gain
56.0	3	38.569	0.012	1022.137	8.7	-0.89	10.2838	1.0	955.0	1.82	Outcome1	8.7	-1.78	0.0	No		10.4824462061155				ShowResult	Gain
56.0	3	39.589	0.02	1023.157	8.7	-0.89	10.2838	4.697	955.0	1.82	Outcome1	8.7	-1.78	0.0	No		10.4824462061155				ISITrial	Gain
57.0	3	44.303	0.017	1027.871	7.1	1.0	11.1713	3.0	955.0	2.22	Outcome1	7.1	-4.04	0.0	No	2.0	11.138165345413402	1.002	45.305		GetAnswer	Gain
57.0	3	45.323	0.018	1028.891	7.1	1.0	11.1713	4.0	955.0	2.22	Outcome1	7.1	-4.04	0.0	No		11.138165345413402				ShowChoice	Gain
57.0	3	49.335	0.012	1032.903	7.1	1.0	11.1713	1.0	955.0	2.22	Outcome1	7.1	-4.04	0.0	No		11.138165345413402				ShowResult	Gain
57.0	3	50.354	0.019	1033.922	7.1	1.0	11.1713	4.291	955.0	2.22	Outcome1	7.1	-4.04	0.0	No		11.138165345413402				ISITrial	Gain
58.0	3	54.667	0.022	1038.235	9.1	-1.34	12.3088	3.0	955.0	2.22	Outcome1	9.1	-2.69	3045.75	Yes	2.0	11.7938844847112	1.099	55.766		GetAnswer	Gain
58.0	3	55.787	0.021	1039.355	9.1	-1.34	12.3088	4.0	955.0	2.22	Outcome1	9.1	-2.69	3045.75	Yes		11.7938844847112				ShowChoice	Gain
58.0	3	59.799	0.012	1043.367	9.1	-1.34	12.3088	1.0	955.0	2.22	Outcome1	9.1	-2.69	3045.75	Yes		11.7938844847112				ShowResult	Gain
58.0	3	60.819	0.02	1044.387	9.1	-1.34	12.3088	2.037	955.0	2.22	Outcome1	9.1	-2.69	3045.75	Yes		11.7938844847112				ISITrial	Gain
58.0	3	65.951	0.03	1049.519	9.1	-1.34	12.3088	1.127	955.0	2.22	Outcome1	9.1	-2.69	3045.75	Yes		11.7938844847112			232.0	TrialHappiness	Gain
58.0	3	69.963	4.012	1053.531	9.1	-1.34	12.3088	4.183	955.0	2.22	Outcome1	9.1	-2.69	3045.75	Yes		11.7938844847112				ISIRate	Gain
59.0	3	74.176	0.03	1057.744	9.9	2.0	13.5463	3.0	955.0	3.6	Outcome1	9.9	-5.0	0.0	No	2.0	14.8958097395243	0.842	75.018		GetAnswer	Gain
59.0	3	75.045	0.027	1058.613	9.9	2.0	13.5463	4.0	955.0	3.6	Outcome1	9.9	-5.0	0.0	No		14.8958097395243				ShowChoice	Gain
59.0	3	79.057	0.012	1062.625	9.9	2.0	13.5463	1.0	955.0	3.6	Outcome1	9.9	-5.0	0.0	No		14.8958097395243				ShowResult	Gain
59.0	3	80.077	0.02	1063.645	9.9	2.0	13.5463	5.064	955.0	3.6	Outcome1	9.9	-5.0	0.0	No		14.8958097395243				ISITrial	Gain
60.0	3	85.159	0.018	1068.727	-2.72	-1.0	13.2063	3.0	955.0	0.2	Outcome2	0.5	-2.72	3562.5	Yes	2.0	-3.22008305020763	1.22	86.379		GetAnswer	Mixed
60.0	3	86.396	0.017	1069.964	-2.72	-1.0	13.2063	4.0	955.0	0.2	Outcome2	0.5	-2.72	3562.5	Yes		-3.22008305020763				ShowChoice	Mixed
60.0	3	90.408	0.012	1073.976	-2.72	-1.0	13.2063	1.0	955.0	0.2	Outcome2	0.5	-2.72	3562.5	Yes		-3.22008305020763				ShowResult	Mixed
60.0	3	91.427	0.019	1074.995	-2.72	-1.0	13.2063	8.0	955.0	0.2	Outcome2	0.5	-2.72	3562.5	Yes		-3.22008305020763				ISITrial	Mixed
60.0	3	103.029	0.016	1086.597	-2.72	-1.0	13.2063	0.942	955.0	0.2	Outcome2	0.5	-2.72	3562.5	Yes		-3.22008305020763			288.0	TrialHappiness	Mixed
60.0	3	107.041	4.012	1090.609	-2.72	-1.0	13.2063	6.25	955.0	0.2	Outcome2	0.5	-2.72	3562.5	Yes		-3.22008305020763				ISIRate	Mixed
61.0	3	113.309	0.018	1096.877	1.5	-6.0	13.3938	3.0	955.0	0.82	Outcome1	1.5	-14.08	0.0	No	2.0	15.582106455266098	0.617	113.926		GetAnswer	Mixed
61.0	3	113.945	0.019	1097.513	1.5	-6.0	13.3938	4.0	955.0	0.82	Outcome1	1.5	-14.08	0.0	No		15.582106455266098				ShowChoice	Mixed
61.0	3	117.957	0.012	1101.525	1.5	-6.0	13.3938	1.0	955.0	0.82	Outcome1	1.5	-14.08	0.0	No		15.582106455266098				ShowResult	Mixed
61.0	3	118.976	0.019	1102.544	1.5	-6.0	13.3938	4.586	955.0	0.82	Outcome1	1.5	-14.08	0.0	No		15.582106455266098				ISITrial	Mixed
62.0	3	123.59	0.028	1107.158	8.5	0.0	14.4563	3.0	955.0	1.68	Outcome1	8.5	-7.84	3748.75	Yes	2.0	16.3374858437146	1.682	125.272		GetAnswer	Gain
62.0	3	125.295	0.023	1108.863	8.5	0.0	14.4563	4.0	955.0	1.68	Outcome1	8.5	-7.84	3748.75	Yes		16.3374858437146				ShowChoice	Gain
62.0	3	129.307	0.012	1112.875	8.5	0.0	14.4563	1.0	955.0	1.68	Outcome1	8.5	-7.84	3748.75	Yes		16.3374858437146				ShowResult	Gain
62.0	3	130.327	0.02	1113.895	8.5	0.0	14.4563	5.212	955.0	1.68	Outcome1	8.5	-7.84	3748.75	Yes		16.3374858437146				ISITrial	Gain
62.0	3	139.337	0.029	1122.905	8.5	0.0	14.4563	1.093	955.0	1.68	Outcome1	8.5	-7.84	3748.75	Yes		16.3374858437146			272.0	TrialHappiness	Gain
62.0	3	143.349	4.012	1126.917	8.5	0.0	14.4563	6.995	955.0	1.68	Outcome1	8.5	-7.84	3748.75	Yes		16.3374858437146				ISIRate	Gain
63.0	3	150.37	0.026	1133.938	12.7	-2.33	16.0438	3.0	955.0	1.82	Outcome2	-4.66	12.7	0.0	No	2.0	17.3646659116648	1.362	151.732		GetAnswer	Loss
63.0	3	151.758	0.026	1135.326	12.7	-2.33	16.0438	4.0	955.0	1.82	Outcome2	-4.66	12.7	0.0	No		17.3646659116648				ShowChoice	Loss
63.0	3	155.77	0.012	1139.338	12.7	-2.33	16.0438	1.0	955.0	1.82	Outcome2	-4.66	12.7	0.0	No		17.3646659116648				ShowResult	Loss
63.0	3	156.79	0.02	1140.358	12.7	-2.33	16.0438	5.595	955.0	1.82	Outcome2	-4.66	12.7	0.0	No		17.3646659116648				ISITrial	Loss
64.0	3	162.406	0.021	1145.974	0.3	-9.0	16.0813	3.0	955.0	2.0	Outcome1	0.3	-17.84	0.0	No	2.0	18.138165345413398	2.163	164.569		GetAnswer	Mixed
64.0	3	164.596	0.027	1148.164	0.3	-9.0	16.0813	4.0	955.0	2.0	Outcome1	0.3	-17.84	0.0	No		18.138165345413398				ShowChoice	Mixed
64.0	3	168.608	0.012	1152.176	0.3	-9.0	16.0813	1.0	955.0	2.0	Outcome1	0.3	-17.84	0.0	No		18.138165345413398				ShowResult	Mixed
64.0	3	169.628	0.02	1153.196	0.3	-9.0	16.0813	5.47	955.0	2.0	Outcome1	0.3	-17.84	0.0	No		18.138165345413398				ISITrial	Mixed
65.0	3	175.128	0.03	1158.696	6.5	-3.0	16.8938	3.0	955.0	1.68	Outcome1	6.5	-12.41	2996.75	Yes	2.0	18.9116647791619	1.239	176.367		GetAnswer	Gain
65.0	3	176.382	0.015	1159.95	6.5	-3.0	16.8938	4.0	955.0	1.68	Outcome1	6.5	-12.41	2996.75	Yes		18.9116647791619				ShowChoice	Gain
65.0	3	180.394	0.012	1163.962	6.5	-3.0	16.8938	1.0	955.0	1.68	Outcome1	6.5	-12.41	2996.75	Yes		18.9116647791619				ShowResult	Gain
65.0	3	181.413	0.019	1164.981	6.5	-3.0	16.8938	3.344	955.0	1.68	Outcome1	6.5	-12.41	2996.75	Yes		18.9116647791619				ISITrial	Gain
65.0	3	187.799	0.029	1171.367	6.5	-3.0	16.8938	1.126	955.0	1.68	Outcome1	6.5	-12.41	2996.75	Yes		18.9116647791619			312.0	TrialHappiness	Gain
65.0	3	191.811	4.012	1175.379	6.5	-3.0	16.8938	3.987	955.0	1.68	Outcome1	6.5	-12.41	2996.75	Yes		18.9116647791619				ISIRate	Gain
66.0	3	195.823	0.025	1179.391	6.7	-3.0	17.7313	3.0	955.0	1.82	Outcome2	-12.31	6.7	0.0	No		19.005662514156302				GetAnswer	Gain
66.0	3	198.849	0.026	1182.417	6.7	-3.0	17.7313	4.0	955.0	1.82	Outcome2	-12.31	6.7	0.0	No		19.005662514156302				ShowChoice	Gain
66.0	3	202.861	0.012	1186.429	6.7	-3.0	17.7313	1.0	955.0	1.82	Outcome2	-12.31	6.7	0.0	No		19.005662514156302				ShowResult	Gain
66.0	3	203.881	0.02	1187.449	6.7	-3.0	17.7313	3.959	955.0	1.82	Outcome2	-12.31	6.7	0.0	No		19.005662514156302				ISITrial	Gain
67.0	3	207.859	0.019	1191.427	-2.0	-2.0	17.4813	3.0	955.0	3.16	Certain	7.7	-12.03	2918.5	Yes	4.0	19.7338618346546	2.267	210.126		GetAnswer	Gain
67.0	3	210.149	0.023	1193.717	-2.0	-2.0	17.4813	4.0	955.0	3.16	Certain	7.7	-12.03	2918.5	Yes		19.7338618346546				ShowChoice	Gain
67.0	3	214.161	0.012	1197.729	-2.0	-2.0	17.4813	1.0	955.0	3.16	Certain	7.7	-12.03	2918.5	Yes		19.7338618346546				ShowResult	Gain
67.0	3	215.181	0.02	1198.749	-2.0	-2.0	17.4813	4.199	955.0	3.16	Certain	7.7	-12.03	2918.5	Yes		19.7338618346546				ISITrial	Gain
67.0	3	222.336	0.024	1205.904	-2.0	-2.0	17.4813	1.596	955.0	3.16	Certain	7.7	-12.03	2918.5	Yes		19.7338618346546			288.0	TrialHappiness	Gain
67.0	3	226.348	4.012	1209.916	-2.0	-2.0	17.4813	3.674	955.0	3.16	Certain	7.7	-12.03	2918.5	Yes		19.7338618346546				ISIRate	Gain
68.0	3	230.042	0.02	1213.61	10.9	0.0	18.8438	3.0	955.0	2.0	Outcome2	-9.97	10.9	0.0	No	2.0	20.8697621744054	0.466	230.508		GetAnswer	Loss
68.0	3	230.527	0.019	1214.095	10.9	0.0	18.8438	4.0	955.0	2.0	Outcome2	-9.97	10.9	0.0	No		20.8697621744054				ShowChoice	Loss
68.0	3	234.539	0.012	1218.107	10.9	0.0	18.8438	1.0	955.0	2.0	Outcome2	-9.97	10.9	0.0	No		20.8697621744054				ShowResult	Loss
68.0	3	235.559	0.02	1219.127	10.9	0.0	18.8438	2.185	955.0	2.0	Outcome2	-9.97	10.9	0.0	No		20.8697621744054				ISITrial	Loss
69.0	3	237.765	0.021	1221.333	4.1	-6.0	19.3563	3.0	955.0	1.5	Outcome1	4.1	-17.53	0.0	No		21.625141562853898				GetAnswer	Mixed
69.0	3	240.791	0.026	1224.359	4.1	-6.0	19.3563	4.0	955.0	1.5	Outcome1	4.1	-17.53	0.0	No		21.625141562853898				ShowChoice	Mixed
69.0	3	244.803	0.012	1228.371	4.1	-6.0	19.3563	1.0	955.0	1.5	Outcome1	4.1	-17.53	0.0	No		21.625141562853898				ShowResult	Mixed
69.0	3	245.823	0.02	1229.391	4.1	-6.0	19.3563	2.0	955.0	1.5	Outcome1	4.1	-17.53	0.0	No		21.625141562853898				ISITrial	Mixed
70.0	3	247.846	0.023	1231.414	0.27	2.0	19.3901	3.0	955.0	1.2	Outcome1	0.27	3.9	3651.25	Yes	2.0	-3.6275953189883	1.244	249.09		GetAnswer	Mixed
70.0	3	249.116	0.026	1232.684	0.27	2.0	19.3901	4.0	955.0	1.2	Outcome1	0.27	3.9	3651.25	Yes		-3.6275953189883				ShowChoice	Mixed
70.0	3	253.128	0.012	1236.696	0.27	2.0	19.3901	1.0	955.0	1.2	Outcome1	0.27	3.9	3651.25	Yes		-3.6275953189883				ShowResult	Mixed
70.0	3	254.148	0.02	1237.716	0.27	2.0	19.3901	2.623	955.0	1.2	Outcome1	0.27	3.9	3651.25	Yes		-3.6275953189883				ISITrial	Mixed
70.0	3	260.467	0.027	1244.035	0.27	2.0	19.3901	0.809	955.0	1.2	Outcome1	0.27	3.9	3651.25	Yes		-3.6275953189883			656.0	TrialHappiness	Mixed
70.0	3	264.479	4.012	1248.047	0.27	2.0	19.3901	6.605	955.0	1.2	Outcome1	0.27	3.9	3651.25	Yes		-3.6275953189883				ISIRate	Mixed
71.0	3	271.115	0.031	1254.683	2.3	-6.0	19.6776	3.0	955.0	2.0	Outcome1	2.3	-14.58	0.0	No	2.0	16.8844847112118	1.096	272.211		GetAnswer	Mixed
71.0	3	272.235	0.024	1255.803	2.3	-6.0	19.6776	4.0	955.0	2.0	Outcome1	2.3	-14.58	0.0	No		16.8844847112118				ShowChoice	Mixed
71.0	3	276.247	0.012	1259.815	2.3	-6.0	19.6776	1.0	955.0	2.0	Outcome1	2.3	-14.58	0.0	No		16.8844847112118				ShowResult	Mixed
71.0	3	277.267	0.02	1260.835	2.3	-6.0	19.6776	5.499	955.0	2.0	Outcome1	2.3	-14.58	0.0	No		16.8844847112118				ISITrial	Mixed
72.0	3	282.783	0.017	1266.351	-3.13	-2.0	19.2863	3.0	955.0	0.52	Outcome1	-3.13	-0.9	3080.5	Yes		-2.2253680634201602				GetAnswer	Mixed
72.0	3	285.809	0.026	1269.377	-3.13	-2.0	19.2863	4.0	955.0	0.52	Outcome1	-3.13	-0.9	3080.5	Yes		-2.2253680634201602				ShowChoice	Mixed
72.0	3	289.821	0.012	1273.389	-3.13	-2.0	19.2863	1.0	955.0	0.52	Outcome1	-3.13	-0.9	3080.5	Yes		-2.2253680634201602				ShowResult	Mixed
72.0	3	290.841	0.02	1274.409	-3.13	-2.0	19.2863	5.672	955.0	0.52	Outcome1	-3.13	-0.9	3080.5	Yes		-2.2253680634201602				ISITrial	Mixed
72.0	3	299.634	0.029	1283.202	-3.13	-2.0	19.2863	0.476	955.0	0.52	Outcome1	-3.13	-0.9	3080.5	Yes		-2.2253680634201602			544.0	TrialHappiness	Mixed
72.0	3	303.646	4.012	1287.214	-3.13	-2.0	19.2863	4.322	955.0	0.52	Outcome1	-3.13	-0.9	3080.5	Yes		-2.2253680634201602				ISIRate	Mixed
73.0	3	307.992	0.024	1291.56	6.9	-3.0	20.1488	3.0	955.0	2.0	Outcome2	-12.56	6.9	0.0	No	2.0	19.4643261608154	0.513	308.505		GetAnswer	Gain
73.0	3	308.527	0.022	1292.095	6.9	-3.0	20.1488	4.0	955.0	2.0	Outcome2	-12.56	6.9	0.0	No		19.4643261608154				ShowChoice	Gain
73.0	3	312.539	0.012	1296.107	6.9	-3.0	20.1488	1.0	955.0	2.0	Outcome2	-12.56	6.9	0.0	No		19.4643261608154				ShowResult	Gain
73.0	3	313.559	0.02	1297.127	6.9	-3.0	20.1488	4.616	955.0	2.0	Outcome2	-12.56	6.9	0.0	No		19.4643261608154				ISITrial	Gain
74.0	3	318.206	0.031	1301.774	2.0	2.0	20.3988	3.0	955.0	5.0	Certain	-7.63	12.3	3056.25	Yes	4.0	19.9297848244621	1.005	319.211		GetAnswer	Loss
74.0	3	319.226	0.015	1302.794	2.0	2.0	20.3988	4.0	955.0	5.0	Certain	-7.63	12.3	3056.25	Yes		19.9297848244621				ShowChoice	Loss
74.0	3	323.238	0.012	1306.806	2.0	2.0	20.3988	1.0	955.0	5.0	Certain	-7.63	12.3	3056.25	Yes		19.9297848244621				ShowResult	Loss
74.0	3	324.258	0.02	1307.826	2.0	2.0	20.3988	3.909	955.0	5.0	Certain	-7.63	12.3	3056.25	Yes		19.9297848244621				ISITrial	Loss
74.0	3	331.262	0.02	1314.83	2.0	2.0	20.3988	0.543	955.0	5.0	Certain	-7.63	12.3	3056.25	Yes		19.9297848244621			544.0	TrialHappiness	Loss
74.0	3	335.274	4.012	1318.842	2.0	2.0	20.3988	4.225	955.0	5.0	Certain	-7.63	12.3	3056.25	Yes		19.9297848244621				ISIRate	Loss
75.0	3	339.52	0.021	1323.088	6.71	3.36	21.2376	3.0	955.0	2.8	Outcome2	9.5	6.71	0.0	No	2.0	-2.7856738391846	0.765	340.285		GetAnswer	Gain
75.0	3	340.306	0.021	1323.874	6.71	3.36	21.2376	4.0	955.0	2.8	Outcome2	9.5	6.71	0.0	No		-2.7856738391846				ShowChoice	Gain
75.0	3	344.318	0.012	1327.886	6.71	3.36	21.2376	1.0	955.0	2.8	Outcome2	9.5	6.71	0.0	No		-2.7856738391846				ShowResult	Gain
75.0	3	345.337	0.019	1328.905	6.71	3.36	21.2376	4.979	955.0	2.8	Outcome2	9.5	6.71	0.0	No		-2.7856738391846				ISITrial	Gain
76.0	3	350.336	0.02	1333.904	0.7	-9.0	21.3251	3.0	955.0	0.3	Outcome1	0.7	-20.16	0.0	No	2.0	20.860702151755397	0.853	351.189		GetAnswer	Mixed
76.0	3	351.205	0.016	1334.773	0.7	-9.0	21.3251	4.0	955.0	0.3	Outcome1	0.7	-20.16	0.0	No		20.860702151755397				ShowChoice	Mixed
76.0	3	355.217	0.012	1338.785	0.7	-9.0	21.3251	1.0	955.0	0.3	Outcome1	0.7	-20.16	0.0	No		20.860702151755397				ShowResult	Mixed
76.0	3	356.237	0.02	1339.805	0.7	-9.0	21.3251	3.931	955.0	0.3	Outcome1	0.7	-20.16	0.0	No		20.860702151755397				ISITrial	Mixed
77.0	3	360.199	0.031	1343.767	3.5	-7.0	21.7626	3.0	955.0	0.82	Outcome1	3.5	-17.83	4000.0	Yes	2.0	21.326160815402	1.903	362.102		GetAnswer	Mixed
77.0	3	362.121	0.019	1345.689	3.5	-7.0	21.7626	4.0	955.0	0.82	Outcome1	3.5	-17.83	4000.0	Yes		21.326160815402				ShowChoice	Mixed
77.0	3	366.133	0.012	1349.701	3.5	-7.0	21.7626	1.0	955.0	0.82	Outcome1	3.5	-17.83	4000.0	Yes		21.326160815402				ShowResult	Mixed
77.0	3	367.153	0.02	1350.721	3.5	-7.0	21.7626	7.022	955.0	0.82	Outcome1	3.5	-17.83	4000.0	Yes		21.326160815402				ISITrial	Mixed
77.0	3	378.219	0.029	1361.787	3.5	-7.0	21.7626	0.559	955.0	0.82	Outcome1	3.5	-17.83	4000.0	Yes		21.326160815402			496.0	TrialHappiness	Mixed
77.0	3	382.231	4.012	1365.799	3.5	-7.0	21.7626	8.0	955.0	0.82	Outcome1	3.5	-17.83	4000.0	Yes		21.326160815402				ISIRate	Mixed
78.0	3	390.255	0.024	1373.823	10.2	5.1	23.0376	3.0	955.0	2.48	Outcome1	10.2	13.3	0.0	No	2.0	-3.0968289920724796	0.708	390.963		GetAnswer	Loss
78.0	3	390.991	0.028	1374.559	10.2	5.1	23.0376	4.0	955.0	2.48	Outcome1	10.2	13.3	0.0	No		-3.0968289920724796				ShowChoice	Loss
78.0	3	395.003	0.012	1378.571	10.2	5.1	23.0376	1.0	955.0	2.48	Outcome1	10.2	13.3	0.0	No		-3.0968289920724796				ShowResult	Loss
78.0	3	396.022	0.019	1379.59	10.2	5.1	23.0376	2.078	955.0	2.48	Outcome1	10.2	13.3	0.0	No		-3.0968289920724796				ISITrial	Loss
79.0	3	398.129	0.029	1381.697	-1.0	-1.0	22.9126	3.0	955.0	1.68	Certain	-12.63	10.5	2729.5	Yes	4.0	23.1268403171008	2.736	400.865		GetAnswer	Loss
79.0	3	400.887	0.022	1384.455	-1.0	-1.0	22.9126	4.0	955.0	1.68	Certain	-12.63	10.5	2729.5	Yes		23.1268403171008				ShowChoice	Loss
79.0	3	404.899	0.012	1388.467	-1.0	-1.0	22.9126	1.0	955.0	1.68	Certain	-12.63	10.5	2729.5	Yes		23.1268403171008				ShowResult	Loss
79.0	3	405.919	0.02	1389.487	-1.0	-1.0	22.9126	3.829	955.0	1.68	Certain	-12.63	10.5	2729.5	Yes		23.1268403171008				ISITrial	Loss
79.0	3	412.522	0.028	1396.09	-1.0	-1.0	22.9126	0.642	955.0	1.68	Certain	-12.63	10.5	2729.5	Yes		23.1268403171008			480.0	TrialHappiness	Loss
79.0	3	416.534	4.012	1400.102	-1.0	-1.0	22.9126	2.918	955.0	1.68	Certain	-12.63	10.5	2729.5	Yes		23.1268403171008				ISIRate	Loss
80.0	3	419.476	0.024	1403.044	1.7	-10.0	23.1251	3.0	955.0	1.0	Outcome1	1.7	-22.22	0.0	No	2.0	23.918459796149502	0.909	420.385		GetAnswer	Mixed
80.0	3	420.412	0.027	1403.98	1.7	-10.0	23.1251	4.0	955.0	1.0	Outcome1	1.7	-22.22	0.0	No		23.918459796149502				ShowChoice	Mixed
80.0	3	424.424	0.012	1407.992	1.7	-10.0	23.1251	1.0	955.0	1.0	Outcome1	1.7	-22.22	0.0	No		23.918459796149502				ShowResult	Mixed
80.0	3	425.444	0.02	1409.012	1.7	-10.0	23.1251	3.336	955.0	1.0	Outcome1	1.7	-22.22	0.0	No		23.918459796149502				ISITrial	Mixed
81.0	3	428.804	0.024	1412.372	0.5	-11.0	23.1876	3.0	955.0	0.2	Outcome2	-23.96	0.5	3923.75	Yes		24.4563986409966				GetAnswer	Mixed
81.0	3	431.83	0.026	1415.398	0.5	-11.0	23.1876	4.0	955.0	0.2	Outcome2	-23.96	0.5	3923.75	Yes		24.4563986409966				ShowChoice	Mixed
81.0	3	435.842	0.012	1419.41	0.5	-11.0	23.1876	1.0	955.0	0.2	Outcome2	-23.96	0.5	3923.75	Yes		24.4563986409966				ShowResult	Mixed
81.0	3	436.861	0.019	1420.429	0.5	-11.0	23.1876	3.919	955.0	0.2	Outcome2	-23.96	0.5	3923.75	Yes		24.4563986409966				ISITrial	Mixed
81.0	3	444.752	0.022	1428.32	0.5	-11.0	23.1876	0.576	955.0	0.2	Outcome2	-23.96	0.5	3923.75	Yes		24.4563986409966			488.0	TrialHappiness	Mixed
81.0	3	448.764	4.012	1432.332	0.5	-11.0	23.1876	7.695	955.0	0.2	Outcome2	-23.96	0.5	3923.75	Yes		24.4563986409966				ISIRate	Mixed
	3	456.487	0.028	1440.055				3.0													CurrentEarnings	
	3	459.512	0.025	1443.08				-0.001								{SPACE}		6.906	466.418		Goodbye	
