trial_number	block	onset	onset_delay	onset_unadjusted	amount_change	certain_amount	current_amount	duration	mood_target	multiplier	outcome	outcome1_amount	outcome2_amount	question_duration	rating	response	rpe	rt	rt_time	slider_response	trial_phase	trial_type
	0	-50.497	0.021	18.987				-0.001								{SPACE}		6.584	-43.913		Welcome	
	0	-43.894	0.018	25.59				5.0													LifeHappyPreview	
	0	-38.862	0.032	30.622				0.0												512.0	LifeHappiness	
	0	-15.125	0.02	54.359				4.0													BlockHappyPreview	
	0	-11.113	0.012	58.371				1.778												760.0	BlockStartHappiness	
	0	-4.125	0.013	65.359				-0.001								5.0					ScanWait	
	1	0.021	0.021	69.505				10.0													GetReady	
1.0	1	10.051	0.03	79.535	8.7	2.7	11.0875	3.0	955.0	1.82	Outcome1	8.7	5.39	0.0	No	2.0	3.3125707814269503	1.185	11.236		GetAnswer	Gain
1.0	1	11.254	0.018	80.738	8.7	2.7	11.0875	4.0	955.0	1.82	Outcome1	8.7	5.39	0.0	No		3.3125707814269503				ShowChoice	Gain
1.0	1	15.266	0.012	84.75	8.7	2.7	11.0875	1.0	955.0	1.82	Outcome1	8.7	5.39	0.0	No		3.3125707814269503				ShowResult	Gain
1.0	1	16.286	0.02	85.77	8.7	2.7	11.0875	2.431	955.0	1.82	Outcome1	8.7	5.39	0.0	No		3.3125707814269503				ISITrial	Gain
2.0	1	18.743	0.026	88.227	1.0	1.0	11.2125	3.0	955.0	0.66	Certain	-0.23	3.3	0.0	No	4.0	3.5334088335220804	1.328	20.071		GetAnswer	Mixed
2.0	1	20.097	0.026	89.581	1.0	1.0	11.2125	4.0	955.0	0.66	Certain	-0.23	3.3	0.0	No		3.5334088335220804				ShowChoice	Mixed
2.0	1	24.109	0.012	93.593	1.0	1.0	11.2125	1.0	955.0	0.66	Certain	-0.23	3.3	0.0	No		3.5334088335220804				ShowResult	Mixed
2.0	1	25.129	0.02	94.613	1.0	1.0	11.2125	4.568	955.0	0.66	Certain	-0.23	3.3	0.0	No		3.5334088335220804				ISITrial	Mixed
3.0	1	29.726	0.029	99.21	-2.0	-2.0	10.9625	3.0	955.0	1.2	Certain	-0.1	-3.85	2868.0	Yes	4.0	3.7542468856172095	1.026	30.752		GetAnswer	Mixed
3.0	1	30.779	0.027	100.263	-2.0	-2.0	10.9625	4.0	955.0	1.2	Certain	-0.1	-3.85	2868.0	Yes		3.7542468856172095				ShowChoice	Mixed
3.0	1	34.791	0.012	104.275	-2.0	-2.0	10.9625	1.0	955.0	1.2	Certain	-0.1	-3.85	2868.0	Yes		3.7542468856172095				ShowResult	Mixed
3.0	1	35.811	0.02	105.295	-2.0	-2.0	10.9625	3.243	955.0	1.2	Certain	-0.1	-3.85	2868.0	Yes		3.7542468856172095				ISITrial	Mixed
3.0	1	41.963	0.024	111.447	-2.0	-2.0	10.9625	2.197	955.0	1.2	Certain	-0.1	-3.85	2868.0	Yes		3.7542468856172095			424.0	TrialHappiness	Mixed
3.0	1	45.991	4.028	115.475	-2.0	-2.0	10.9625	3.472	955.0	1.2	Certain	-0.1	-3.85	2868.0	Yes		3.7542468856172095				ISIRate	Mixed
4.0	1	49.485	0.022	118.969	1.5	-3.0	11.15	3.0	955.0	0.82	Outcome1	1.5	-8.18	0.0	No		9.682899207248019				GetAnswer	Mixed
4.0	1	52.511	0.026	121.995	1.5	-3.0	11.15	4.0	955.0	0.82	Outcome1	1.5	-8.18	0.0	No		9.682899207248019				ShowChoice	Mixed
4.0	1	56.523	0.012	126.007	1.5	-3.0	11.15	1.0	955.0	0.82	Outcome1	1.5	-8.18	0.0	No		9.682899207248019				ShowResult	Mixed
4.0	1	57.542	0.019	127.026	1.5	-3.0	11.15	2.011	955.0	0.82	Outcome1	1.5	-8.18	0.0	No		9.682899207248019				ISITrial	Mixed
5.0	1	59.582	0.029	129.066	-2.0	-2.0	10.9	3.0	955.0	0.66	Certain	-2.96	-0.7	2582.5	Yes	4.0	-2.26019252548131	2.702	62.284		GetAnswer	Mixed
5.0	1	62.307	0.023	131.791	-2.0	-2.0	10.9	4.0	955.0	0.66	Certain	-2.96	-0.7	2582.5	Yes		-2.26019252548131				ShowChoice	Mixed
5.0	1	66.319	0.012	135.803	-2.0	-2.0	10.9	1.0	955.0	0.66	Certain	-2.96	-0.7	2582.5	Yes		-2.26019252548131				ShowResult	Mixed
5.0	1	67.338	0.019	136.822	-2.0	-2.0	10.9	5.129	955.0	0.66	Certain	-2.96	-0.7	2582.5	Yes		-2.26019252548131				ISITrial	Mixed
5.0	1	75.095	0.026	144.579	-2.0	-2.0	10.9	3.835	955.0	0.66	Certain	-2.96	-0.7	2582.5	Yes		-2.26019252548131			504.0	TrialHappiness	Mixed
5.0	1	79.107	4.012	148.591	-2.0	-2.0	10.9	2.33	955.0	0.66	Certain	-2.96	-0.7	2582.5	Yes		-2.26019252548131				ISIRate	Mixed
6.0	1	81.464	0.027	150.948	7.5	2.0	11.8375	3.0	955.0	2.8	Outcome2	-2.03	7.5	0.0	No	2.0	9.526613816534539	2.093	83.557		GetAnswer	Gain
6.0	1	83.587	0.03	153.071	7.5	2.0	11.8375	4.0	955.0	2.8	Outcome2	-2.03	7.5	0.0	No		9.526613816534539				ShowChoice	Gain
6.0	1	87.616	0.029	157.1	7.5	2.0	11.8375	1.0	955.0	2.8	Outcome2	-2.03	7.5	0.0	No		9.526613816534539				ShowResult	Gain
6.0	1	88.635	0.019	158.119	7.5	2.0	11.8375	6.232	955.0	2.8	Outcome2	-2.03	7.5	0.0	No		9.526613816534539				ISITrial	Gain
7.0	1	94.887	0.02	164.371	10.5	0.23	13.15	3.0	955.0	1.68	Outcome1	10.5	0.46	0.0	No	2.0	10.0373725934315	1.253	96.14		GetAnswer	Loss
7.0	1	96.158	0.018	165.642	10.5	0.23	13.15	4.0	955.0	1.68	Outcome1	10.5	0.46	0.0	No		10.0373725934315				ShowChoice	Loss
7.0	1	100.186	0.028	169.67	10.5	0.23	13.15	1.0	955.0	1.68	Outcome1	10.5	0.46	0.0	No		10.0373725934315				ShowResult	Loss
7.0	1	101.206	0.02	170.69	10.5	0.23	13.15	2.305	955.0	1.68	Outcome1	10.5	0.46	0.0	No		10.0373725934315				ISITrial	Loss
8.0	1	103.53	0.019	173.014	11.5	0.48	14.5875	3.0	955.0	2.8	Outcome1	11.5	0.95	3112.5	Yes	2.0	10.5481313703284	0.998	104.528		GetAnswer	Loss
8.0	1	104.549	0.021	174.033	11.5	0.48	14.5875	4.0	955.0	2.8	Outcome1	11.5	0.95	3112.5	Yes		10.5481313703284				ShowChoice	Loss
8.0	1	108.561	0.012	178.045	11.5	0.48	14.5875	1.0	955.0	2.8	Outcome1	11.5	0.95	3112.5	Yes		10.5481313703284				ShowResult	Loss
8.0	1	109.581	0.02	179.065	11.5	0.48	14.5875	3.506	955.0	2.8	Outcome1	11.5	0.95	3112.5	Yes		10.5481313703284				ISITrial	Loss
8.0	1	116.251	0.031	185.735	11.5	0.48	14.5875	2.196	955.0	2.8	Outcome1	11.5	0.95	3112.5	Yes		10.5481313703284			848.0	TrialHappiness	Loss
8.0	1	120.28	4.029	189.764	11.5	0.48	14.5875	4.45	955.0	2.8	Outcome1	11.5	0.95	3112.5	Yes		10.5481313703284				ISIRate	Loss
9.0	1	124.76	0.03	194.244	11.9	3.34	16.075	3.0	955.0	3.6	Outcome1	11.9	6.68	0.0	No	2.0	5.21517553793884	1.197	125.957		GetAnswer	Loss
9.0	1	125.98	0.023	195.464	11.9	3.34	16.075	4.0	955.0	3.6	Outcome1	11.9	6.68	0.0	No		5.21517553793884				ShowChoice	Loss
9.0	1	130.009	0.029	199.493	11.9	3.34	16.075	1.0	955.0	3.6	Outcome1	11.9	6.68	0.0	No		5.21517553793884				ShowResult	Loss
9.0	1	131.028	0.019	200.512	11.9	3.34	16.075	2.0	955.0	3.6	Outcome1	11.9	6.68	0.0	No		5.21517553793884				ISITrial	Loss
10.0	1	133.051	0.023	202.535	3.77	1.88	16.5462	3.0	955.0	1.68	Outcome2	4.5	3.77	4000.0	Yes	2.0	-0.727444318610797	1.43	134.481		GetAnswer	Gain
10.0	1	134.506	0.025	203.99	3.77	1.88	16.5462	4.0	955.0	1.68	Outcome2	4.5	3.77	4000.0	Yes		-0.727444318610797				ShowChoice	Gain
10.0	1	138.534	0.028	208.018	3.77	1.88	16.5462	1.0	955.0	1.68	Outcome2	4.5	3.77	4000.0	Yes		-0.727444318610797				ShowResult	Gain
10.0	1	139.554	0.02	209.038	3.77	1.88	16.5462	2.0	955.0	1.68	Outcome2	4.5	3.77	4000.0	Yes		-0.727444318610797				ISITrial	Gain
10.0	1	145.605	0.028	215.089	3.77	1.88	16.5462	2.573	955.0	1.68	Outcome2	4.5	3.77	4000.0	Yes	2{-2}2{-2}2{-2}2{-2}	-0.727444318610797	2.573	148.178	844.0	TrialHappiness	Gain
10.0	1	149.617	4.012	219.101	3.77	1.88	16.5462	8.0	955.0	1.68	Outcome2	4.5	3.77	4000.0	Yes		-0.727444318610797				ISIRate	Gain
11.0	1	157.641	0.024	227.125	9.1	1.78	17.6837	3.0	955.0	2.22	Outcome2	3.57	9.1	0.0	No		5.52548131370328				GetAnswer	Gain
11.0	1	160.667	0.026	230.151	9.1	1.78	17.6837	4.0	955.0	2.22	Outcome2	3.57	9.1	0.0	No		5.52548131370328				ShowChoice	Gain
11.0	1	164.679	0.012	234.163	9.1	1.78	17.6837	1.0	955.0	2.22	Outcome2	3.57	9.1	0.0	No		5.52548131370328				ShowResult	Gain
11.0	1	165.699	0.02	235.183	9.1	1.78	17.6837	3.324	955.0	2.22	Outcome2	3.57	9.1	0.0	No		5.52548131370328				ISITrial	Gain
12.0	1	169.042	0.019	238.526	2.34	2.0	17.9762	3.0	955.0	0.52	Outcome1	2.34	3.1	2618.75	Yes		-0.7642506606266509				GetAnswer	Mixed
12.0	1	172.068	0.026	241.552	2.34	2.0	17.9762	4.0	955.0	0.52	Outcome1	2.34	3.1	2618.75	Yes		-0.7642506606266509				ShowChoice	Mixed
12.0	1	176.096	0.028	245.58	2.34	2.0	17.9762	1.0	955.0	0.52	Outcome1	2.34	3.1	2618.75	Yes		-0.7642506606266509				ShowResult	Mixed
12.0	1	177.116	0.02	246.6	2.34	2.0	17.9762	6.642	955.0	0.52	Outcome1	2.34	3.1	2618.75	Yes		-0.7642506606266509				ISITrial	Mixed
12.0	1	186.427	0.022	255.911	2.34	2.0	17.9762	1.193	955.0	0.52	Outcome1	2.34	3.1	2618.75	Yes		-0.7642506606266509			728.0	TrialHappiness	Mixed
12.0	1	190.456	4.029	259.94	2.34	2.0	17.9762	2.475	955.0	0.52	Outcome1	2.34	3.1	2618.75	Yes		-0.7642506606266509				ISIRate	Mixed
13.0	1	192.963	0.032	262.447	-4.0	-4.0	17.4762	3.0	955.0	0.82	Certain	-0.5	-8.25	0.0	No	4.0	7.74745186862967	1.542	194.505		GetAnswer	Mixed
13.0	1	194.535	0.03	264.019	-4.0	-4.0	17.4762	4.0	955.0	0.82	Certain	-0.5	-8.25	0.0	No		7.74745186862967				ShowChoice	Mixed
13.0	1	198.564	0.029	268.048	-4.0	-4.0	17.4762	1.0	955.0	0.82	Certain	-0.5	-8.25	0.0	No		7.74745186862967				ShowResult	Mixed
13.0	1	199.583	0.019	269.067	-4.0	-4.0	17.4762	3.48	955.0	0.82	Certain	-0.5	-8.25	0.0	No		7.74745186862967				ISITrial	Mixed
14.0	1	203.094	0.031	272.578	7.23	3.62	18.38	3.0	955.0	1.68	Outcome2	8.5	7.23	0.0	No	2.0	-1.26689316723292	0.974	204.068		GetAnswer	Gain
14.0	1	204.097	0.029	273.581	7.23	3.62	18.38	4.0	955.0	1.68	Outcome2	8.5	7.23	0.0	No		-1.26689316723292				ShowChoice	Gain
14.0	1	208.125	0.028	277.609	7.23	3.62	18.38	1.0	955.0	1.68	Outcome2	8.5	7.23	0.0	No		-1.26689316723292				ShowResult	Gain
14.0	1	209.145	0.02	278.629	7.23	3.62	18.38	5.019	955.0	1.68	Outcome2	8.5	7.23	0.0	No		-1.26689316723292				ISITrial	Gain
15.0	1	214.194	0.03	283.678	11.61	5.8	19.8313	3.0	955.0	2.0	Outcome1	11.61	12.9	3348.5	Yes	2.0	-1.28831634579086	1.05	215.244		GetAnswer	Loss
15.0	1	215.263	0.019	284.747	11.61	5.8	19.8313	4.0	955.0	2.0	Outcome1	11.61	12.9	3348.5	Yes		-1.28831634579086				ShowChoice	Loss
15.0	1	219.292	0.029	288.776	11.61	5.8	19.8313	1.0	955.0	2.0	Outcome1	11.61	12.9	3348.5	Yes		-1.28831634579086				ShowResult	Loss
15.0	1	220.312	0.02	289.796	11.61	5.8	19.8313	7.614	955.0	2.0	Outcome1	11.61	12.9	3348.5	Yes		-1.28831634579086				ISITrial	Loss
15.0	1	231.328	0.029	300.812	11.61	5.8	19.8313	1.497	955.0	2.0	Outcome1	11.61	12.9	3348.5	Yes		-1.28831634579086			812.0	TrialHappiness	Loss
15.0	1	235.357	4.029	304.841	11.61	5.8	19.8313	5.394	955.0	2.0	Outcome1	11.61	12.9	3348.5	Yes		-1.28831634579086				ISIRate	Loss
16.0	1	240.773	0.022	310.257	7.1	0.0	20.7188	3.0	955.0	2.22	Outcome2	0.01	7.1	0.0	No		7.09173272933182				GetAnswer	Gain
16.0	1	243.799	0.026	313.283	7.1	0.0	20.7188	4.0	955.0	2.22	Outcome2	0.01	7.1	0.0	No		7.09173272933182				ShowChoice	Gain
16.0	1	247.827	0.028	317.311	7.1	0.0	20.7188	1.0	955.0	2.22	Outcome2	0.01	7.1	0.0	No		7.09173272933182				ShowResult	Gain
16.0	1	248.847	0.02	318.331	7.1	0.0	20.7188	3.008	955.0	2.22	Outcome2	0.01	7.1	0.0	No		7.09173272933182				ISITrial	Gain
17.0	1	251.889	0.034	321.373	12.92	6.46	22.3338	3.0	955.0	3.6	Outcome2	13.9	12.92	3041.5	Yes	2.0	-0.9823518308795771	1.091	252.98		GetAnswer	Loss
17.0	1	253.009	0.029	322.493	12.92	6.46	22.3338	4.0	955.0	3.6	Outcome2	13.9	12.92	3041.5	Yes		-0.9823518308795771				ShowChoice	Loss
17.0	1	257.038	0.029	326.522	12.92	6.46	22.3338	1.0	955.0	3.6	Outcome2	13.9	12.92	3041.5	Yes		-0.9823518308795771				ShowResult	Loss
17.0	1	258.058	0.02	327.542	12.92	6.46	22.3338	3.566	955.0	3.6	Outcome2	13.9	12.92	3041.5	Yes		-0.9823518308795771				ISITrial	Loss
17.0	1	264.711	0.017	334.195	12.92	6.46	22.3338	1.764	955.0	3.6	Outcome2	13.9	12.92	3041.5	Yes		-0.9823518308795771			720.0	TrialHappiness	Loss
17.0	1	268.74	4.029	338.224	12.92	6.46	22.3338	4.166	955.0	3.6	Outcome2	13.9	12.92	3041.5	Yes		-0.9823518308795771				ISIRate	Loss
18.0	1	272.936	0.03	342.42	0.0	0.0	22.3338	3.0	955.0	2.0	Certain	-4.08	4.9	0.0	No	4.0	8.978482446206119	1.792	274.728		GetAnswer	Gain
18.0	1	274.758	0.03	344.242	0.0	0.0	22.3338	4.0	955.0	2.0	Certain	-4.08	4.9	0.0	No		8.978482446206119				ShowChoice	Gain
18.0	1	278.786	0.028	348.27	0.0	0.0	22.3338	1.0	955.0	2.0	Certain	-4.08	4.9	0.0	No		8.978482446206119				ShowResult	Gain
18.0	1	279.806	0.02	349.29	0.0	0.0	22.3338	6.787	955.0	2.0	Certain	-4.08	4.9	0.0	No		8.978482446206119				ISITrial	Gain
19.0	1	286.61	0.017	356.094	8.1	-0.57	23.3463	3.0	955.0	4.2	Outcome2	-1.14	8.1	0.0	No	2.0	9.244620611551529	1.331	287.941		GetAnswer	Gain
19.0	1	287.964	0.023	357.448	8.1	-0.57	23.3463	4.0	955.0	4.2	Outcome2	-1.14	8.1	0.0	No		9.244620611551529				ShowChoice	Gain
19.0	1	291.993	0.029	361.477	8.1	-0.57	23.3463	1.0	955.0	4.2	Outcome2	-1.14	8.1	0.0	No		9.244620611551529				ShowResult	Gain
19.0	1	293.012	0.019	362.496	8.1	-0.57	23.3463	2.0	955.0	4.2	Outcome2	-1.14	8.1	0.0	No		9.244620611551529				ISITrial	Gain
20.0	1	295.035	0.023	364.519	-1.0	-1.0	23.2213	3.0	955.0	0.52	Certain	-0.9	-2.31	2921.25	Yes	4.0	-1.41355228388071	2.707	297.742		GetAnswer	Mixed
20.0	1	297.76	0.018	367.244	-1.0	-1.0	23.2213	4.0	955.0	0.52	Certain	-0.9	-2.31	2921.25	Yes		-1.41355228388071				ShowChoice	Mixed
20.0	1	301.772	0.012	371.256	-1.0	-1.0	23.2213	1.0	955.0	0.52	Certain	-0.9	-2.31	2921.25	Yes		-1.41355228388071				ShowResult	Mixed
20.0	1	302.791	0.019	372.275	-1.0	-1.0	23.2213	8.0	955.0	0.52	Certain	-0.9	-2.31	2921.25	Yes		-1.41355228388071				ISITrial	Mixed
20.0	1	313.758	0.022	383.242	-1.0	-1.0	23.2213	2.961	955.0	0.52	Certain	-0.9	-2.31	2921.25	Yes		-1.41355228388071			516.0	TrialHappiness	Mixed
20.0	1	317.786	4.028	387.27	-1.0	-1.0	23.2213	3.685	955.0	0.52	Certain	-0.9	-2.31	2921.25	Yes		-1.41355228388071				ISIRate	Mixed
21.0	1	321.497	0.026	390.981	-4.0	-4.0	22.7213	3.0	955.0	1.2	Certain	1.9	-11.34	0.0	No	4.0	13.242355605889001	1.882	323.379		GetAnswer	Mixed
21.0	1	323.403	0.024	392.887	-4.0	-4.0	22.7213	4.0	955.0	1.2	Certain	1.9	-11.34	0.0	No		13.242355605889001				ShowChoice	Mixed
21.0	1	327.415	0.012	396.899	-4.0	-4.0	22.7213	1.0	955.0	1.2	Certain	1.9	-11.34	0.0	No		13.242355605889001				ShowResult	Mixed
21.0	1	328.435	0.02	397.919	-4.0	-4.0	22.7213	3.555	955.0	1.2	Certain	1.9	-11.34	0.0	No		13.242355605889001				ISITrial	Mixed
22.0	1	332.012	0.022	401.496	-6.0	-6.0	21.9713	3.0	955.0	0.4	Certain	-12.84	0.9	3219.5	Yes	4.0	13.7395243488109	2.469	334.481		GetAnswer	Mixed
22.0	1	334.503	0.022	403.987	-6.0	-6.0	21.9713	4.0	955.0	0.4	Certain	-12.84	0.9	3219.5	Yes		13.7395243488109				ShowChoice	Mixed
22.0	1	338.515	0.012	407.999	-6.0	-6.0	21.9713	1.0	955.0	0.4	Certain	-12.84	0.9	3219.5	Yes		13.7395243488109				ShowResult	Mixed
22.0	1	339.535	0.02	409.019	-6.0	-6.0	21.9713	6.793	955.0	0.4	Certain	-12.84	0.9	3219.5	Yes		13.7395243488109				ISITrial	Mixed
22.0	1	349.598	0.023	419.082	-6.0	-6.0	21.9713	1.194	955.0	0.4	Certain	-12.84	0.9	3219.5	Yes		13.7395243488109			448.0	TrialHappiness	Mixed
22.0	1	353.627	4.029	423.111	-6.0	-6.0	21.9713	4.878	955.0	0.4	Certain	-12.84	0.9	3219.5	Yes		13.7395243488109				ISIRate	Mixed
23.0	1	358.525	0.02	428.009	13.1	-1.14	23.6088	3.0	955.0	2.22	Outcome1	13.1	-2.29	0.0	No	2.0	15.391845979614901	1.62	360.145		GetAnswer	Loss
23.0	1	360.163	0.018	429.647	13.1	-1.14	23.6088	4.0	955.0	2.22	Outcome1	13.1	-2.29	0.0	No		15.391845979614901				ShowChoice	Loss
23.0	1	364.192	0.029	433.676	13.1	-1.14	23.6088	1.0	955.0	2.22	Outcome1	13.1	-2.29	0.0	No		15.391845979614901				ShowResult	Loss
23.0	1	365.211	0.019	434.695	13.1	-1.14	23.6088	8.0	955.0	2.22	Outcome1	13.1	-2.29	0.0	No		15.391845979614901				ISITrial	Loss
24.0	1	373.235	0.024	442.719	7.23	3.62	24.5126	3.0	955.0	3.6	Outcome2	9.9	7.23	3255.0	Yes	2.0	-2.67025292563231	1.29	374.525		GetAnswer	Gain
24.0	1	374.556	0.031	444.04	7.23	3.62	24.5126	4.0	955.0	3.6	Outcome2	9.9	7.23	3255.0	Yes		-2.67025292563231				ShowChoice	Gain
24.0	1	378.584	0.028	448.068	7.23	3.62	24.5126	1.0	955.0	3.6	Outcome2	9.9	7.23	3255.0	Yes		-2.67025292563231				ShowResult	Gain
24.0	1	379.604	0.02	449.088	7.23	3.62	24.5126	2.0	955.0	3.6	Outcome2	9.9	7.23	3255.0	Yes		-2.67025292563231				ISITrial	Gain
24.0	1	384.903	0.021	454.387	7.23	3.62	24.5126	2.243	955.0	3.6	Outcome2	9.9	7.23	3255.0	Yes		-2.67025292563231			620.0	TrialHappiness	Gain
24.0	1	388.932	4.029	458.416	7.23	3.62	24.5126	5.02	955.0	3.6	Outcome2	9.9	7.23	3255.0	Yes		-2.67025292563231				ISIRate	Gain
25.0	1	393.98	0.028	463.464	7.3	0.0	25.4251	3.0	955.0	2.48	Outcome2	-6.32	7.3	0.0	No	2.0	13.618346545866402	1.378	395.358		GetAnswer	Gain
25.0	1	395.385	0.027	464.869	7.3	0.0	25.4251	4.0	955.0	2.48	Outcome2	-6.32	7.3	0.0	No		13.618346545866402				ShowChoice	Gain
25.0	1	399.397	0.012	468.881	7.3	0.0	25.4251	1.0	955.0	2.48	Outcome2	-6.32	7.3	0.0	No		13.618346545866402				ShowResult	Gain
25.0	1	400.416	0.019	469.9	7.3	0.0	25.4251	3.749	955.0	2.48	Outcome2	-6.32	7.3	0.0	No		13.618346545866402				ISITrial	Gain
26.0	1	404.194	0.029	473.678	-1.1	-8.0	25.2876	3.0	955.0	0.4	Outcome1	-1.1	-15.1	0.0	No	2.0	13.997734994337499	2.446	406.64		GetAnswer	Mixed
26.0	1	406.668	0.028	476.152	-1.1	-8.0	25.2876	4.0	955.0	0.4	Outcome1	-1.1	-15.1	0.0	No		13.997734994337499				ShowChoice	Mixed
26.0	1	410.68	0.012	480.164	-1.1	-8.0	25.2876	1.0	955.0	0.4	Outcome1	-1.1	-15.1	0.0	No		13.997734994337499				ShowResult	Mixed
26.0	1	411.7	0.02	481.184	-1.1	-8.0	25.2876	7.834	955.0	0.4	Outcome1	-1.1	-15.1	0.0	No		13.997734994337499				ISITrial	Mixed
27.0	1	419.557	0.023	489.041	1.0	1.0	25.4126	3.0	955.0	5.0	Certain	-6.08	8.3	2549.75	Yes	4.0	14.3771234428086	1.493	421.05		GetAnswer	Gain
27.0	1	421.078	0.028	490.562	1.0	1.0	25.4126	4.0	955.0	5.0	Certain	-6.08	8.3	2549.75	Yes		14.3771234428086				ShowChoice	Gain
27.0	1	425.09	0.012	494.574	1.0	1.0	25.4126	1.0	955.0	5.0	Certain	-6.08	8.3	2549.75	Yes		14.3771234428086				ShowResult	Gain
27.0	1	426.11	0.02	495.594	1.0	1.0	25.4126	4.225	955.0	5.0	Certain	-6.08	8.3	2549.75	Yes		14.3771234428086				ISITrial	Gain
27.0	1	432.93	0.024	502.414	1.0	1.0	25.4126	1.98	955.0	5.0	Certain	-6.08	8.3	2549.75	Yes		14.3771234428086			552.0	TrialHappiness	Gain
27.0	1	436.942	4.012	506.426	1.0	1.0	25.4126	2.199	955.0	5.0	Certain	-6.08	8.3	2549.75	Yes		14.3771234428086				ISIRate	Gain
	1	439.165	0.024	508.649				-0.001								2.0		13.124	452.289		Rest	
	1	452.305	0.016	521.789				4.0													BlockHappyPreview	
	1	456.317	0.012	525.801				3.634												712.0	BlockStartHappiness	
	1	504.644	0.011	574.128				-0.001								5.0		1.953	506.597		ScanWait	
	2	0.02	0.02	576.101				10.0													GetReady	
28.0	2	10.05	0.03	586.131	-1.62	-0.81	25.2101	3.0	70.0	2.48	Outcome2	9.3	-1.62	0.0	No	2.0	-10.918367346938801	1.345	11.395		GetAnswer	Gain
28.0	2	11.421	0.026	587.502	-1.62	-0.81	25.2101	4.0	70.0	2.48	Outcome2	9.3	-1.62	0.0	No		-10.918367346938801				ShowChoice	Gain
28.0	2	15.433	0.012	591.514	-1.62	-0.81	25.2101	1.0	70.0	2.48	Outcome2	9.3	-1.62	0.0	No		-10.918367346938801				ShowResult	Gain
28.0	2	16.452	0.019	592.533	-1.62	-0.81	25.2101	3.575	70.0	2.48	Outcome2	9.3	-1.62	0.0	No		-10.918367346938801				ISITrial	Gain
29.0	2	20.046	0.019	596.127	-0.55	-0.28	25.1413	3.0	70.0	2.22	Outcome2	11.1	-0.55	3529.0	Yes	2.0	-11.646258503401402	1.051	21.097		GetAnswer	Loss
29.0	2	21.116	0.019	597.197	-0.55	-0.28	25.1413	4.0	70.0	2.22	Outcome2	11.1	-0.55	3529.0	Yes		-11.646258503401402				ShowChoice	Loss
29.0	2	25.128	0.012	601.209	-0.55	-0.28	25.1413	1.0	70.0	2.22	Outcome2	11.1	-0.55	3529.0	Yes		-11.646258503401402				ShowResult	Loss
29.0	2	26.148	0.02	602.229	-0.55	-0.28	25.1413	3.955	70.0	2.22	Outcome2	11.1	-0.55	3529.0	Yes		-11.646258503401402				ISITrial	Loss
29.0	2	33.67	0.015	609.751	-0.55	-0.28	25.1413	3.891	70.0	2.22	Outcome2	11.1	-0.55	3529.0	Yes		-11.646258503401402			660.0	TrialHappiness	Loss
29.0	2	37.682	4.012	613.763	-0.55	-0.28	25.1413	6.116	70.0	2.22	Outcome2	11.1	-0.55	3529.0	Yes		-11.646258503401402				ISIRate	Loss
30.0	2	43.817	0.019	619.898	-10.79	-5.0	23.7925	3.0	70.0	0.3	Outcome1	-10.79	0.7	0.0	No	2.0	-11.4897959183673	1.189	45.006		GetAnswer	Mixed
30.0	2	45.021	0.015	621.102	-10.79	-5.0	23.7925	4.0	70.0	0.3	Outcome1	-10.79	0.7	0.0	No		-11.4897959183673				ShowChoice	Mixed
30.0	2	49.033	0.012	625.114	-10.79	-5.0	23.7925	1.0	70.0	0.3	Outcome1	-10.79	0.7	0.0	No		-11.4897959183673				ShowResult	Mixed
30.0	2	50.053	0.02	626.134	-10.79	-5.0	23.7925	4.453	70.0	0.3	Outcome1	-10.79	0.7	0.0	No		-11.4897959183673				ISITrial	Mixed
31.0	2	54.533	0.027	630.614	1.48	0.0	23.9775	3.0	70.0	3.6	Outcome2	-1.09	1.48	2503.25	Yes	2.0	2.57407407407407	1.365	55.898		GetAnswer	Gain
31.0	2	55.92	0.022	632.001	1.48	0.0	23.9775	4.0	70.0	3.6	Outcome2	-1.09	1.48	2503.25	Yes		2.57407407407407				ShowChoice	Gain
31.0	2	59.932	0.012	636.013	1.48	0.0	23.9775	1.0	70.0	3.6	Outcome2	-1.09	1.48	2503.25	Yes		2.57407407407407				ShowResult	Gain
31.0	2	60.952	0.02	637.033	1.48	0.0	23.9775	4.786	70.0	3.6	Outcome2	-1.09	1.48	2503.25	Yes		2.57407407407407				ISITrial	Gain
31.0	2	68.274	0.022	644.355	1.48	0.0	23.9775	3.082	70.0	3.6	Outcome2	-1.09	1.48	2503.25	Yes		2.57407407407407			588.0	TrialHappiness	Gain
31.0	2	72.286	4.012	648.367	1.48	0.0	23.9775	2.013	70.0	3.6	Outcome2	-1.09	1.48	2503.25	Yes		2.57407407407407				ISIRate	Gain
32.0	2	74.325	0.026	650.406	1.02	0.0	24.105	3.0	70.0	1.5	Outcome2	-1.32	1.02	0.0	No	2.0	2.3373015873015897	1.44	75.765		GetAnswer	Mixed
32.0	2	75.779	0.014	651.86	1.02	0.0	24.105	4.0	70.0	1.5	Outcome2	-1.32	1.02	0.0	No		2.3373015873015897				ShowChoice	Mixed
32.0	2	79.791	0.012	655.872	1.02	0.0	24.105	1.0	70.0	1.5	Outcome2	-1.32	1.02	0.0	No		2.3373015873015897				ShowResult	Mixed
32.0	2	80.811	0.02	656.892	1.02	0.0	24.105	2.0	70.0	1.5	Outcome2	-1.32	1.02	0.0	No		2.3373015873015897				ISITrial	Mixed
33.0	2	82.834	0.023	658.915	-2.49	-1.25	23.7937	3.0	70.0	3.16	Outcome2	9.7	-2.49	0.0	No	2.0	-12.190476190476199	1.075	83.909		GetAnswer	Gain
33.0	2	83.92	0.011	660.001	-2.49	-1.25	23.7937	4.0	70.0	3.16	Outcome2	9.7	-2.49	0.0	No		-12.190476190476199				ShowChoice	Gain
33.0	2	87.932	0.012	664.013	-2.49	-1.25	23.7937	1.0	70.0	3.16	Outcome2	9.7	-2.49	0.0	No		-12.190476190476199				ShowResult	Gain
33.0	2	88.952	0.02	665.033	-2.49	-1.25	23.7937	5.099	70.0	3.16	Outcome2	9.7	-2.49	0.0	No		-12.190476190476199				ISITrial	Gain
34.0	2	94.067	0.016	670.148	-0.08	-1.0	23.7837	3.0	70.0	1.0	Outcome2	-2.52	-0.08	3231.5	Yes	2.0	2.43518518518519	1.505	95.572		GetAnswer	Mixed
34.0	2	95.589	0.017	671.67	-0.08	-1.0	23.7837	4.0	70.0	1.0	Outcome2	-2.52	-0.08	3231.5	Yes		2.43518518518519				ShowChoice	Mixed
34.0	2	99.601	0.012	675.682	-0.08	-1.0	23.7837	1.0	70.0	1.0	Outcome2	-2.52	-0.08	3231.5	Yes		2.43518518518519				ShowResult	Mixed
34.0	2	100.62	0.019	676.701	-0.08	-1.0	23.7837	4.784	70.0	1.0	Outcome2	-2.52	-0.08	3231.5	Yes		2.43518518518519				ISITrial	Mixed
34.0	2	108.678	0.028	684.759	-0.08	-1.0	23.7837	0.859	70.0	1.0	Outcome2	-2.52	-0.08	3231.5	Yes		2.43518518518519			560.0	TrialHappiness	Mixed
34.0	2	112.69	4.012	688.771	-0.08	-1.0	23.7837	4.926	70.0	1.0	Outcome2	-2.52	-0.08	3231.5	Yes		2.43518518518519				ISIRate	Mixed
35.0	2	117.638	0.022	693.719	-11.79	-5.0	22.3099	3.0	70.0	0.52	Outcome1	-11.79	1.1	0.0	No	2.0	-12.8888888888889	1.108	118.746		GetAnswer	Mixed
35.0	2	118.758	0.012	694.839	-11.79	-5.0	22.3099	4.0	70.0	0.52	Outcome1	-11.79	1.1	0.0	No		-12.8888888888889				ShowChoice	Mixed
35.0	2	122.77	0.012	698.851	-11.79	-5.0	22.3099	1.0	70.0	0.52	Outcome1	-11.79	1.1	0.0	No		-12.8888888888889				ShowResult	Mixed
35.0	2	123.789	0.019	699.87	-11.79	-5.0	22.3099	2.098	70.0	0.52	Outcome1	-11.79	1.1	0.0	No		-12.8888888888889				ISITrial	Mixed
36.0	2	125.912	0.025	701.993	2.52	1.0	22.6249	3.0	70.0	4.2	Outcome2	0.1	2.52	3335.75	Yes	2.0	2.4166666666666696	2.238	128.15		GetAnswer	Gain
36.0	2	128.169	0.018	704.25	2.52	1.0	22.6249	4.0	70.0	4.2	Outcome2	0.1	2.52	3335.75	Yes		2.4166666666666696				ShowChoice	Gain
36.0	2	132.181	0.012	708.262	2.52	1.0	22.6249	1.0	70.0	4.2	Outcome2	0.1	2.52	3335.75	Yes		2.4166666666666696				ShowResult	Gain
36.0	2	133.201	0.02	709.282	2.52	1.0	22.6249	5.156	70.0	4.2	Outcome2	0.1	2.52	3335.75	Yes		2.4166666666666696				ISITrial	Gain
36.0	2	141.743	0.024	717.824	2.52	1.0	22.6249	2.305	70.0	4.2	Outcome2	0.1	2.52	3335.75	Yes		2.4166666666666696			672.0	TrialHappiness	Gain
36.0	2	145.755	4.012	721.836	2.52	1.0	22.6249	5.343	70.0	4.2	Outcome2	0.1	2.52	3335.75	Yes		2.4166666666666696				ISIRate	Gain
37.0	2	151.121	0.023	727.202	-4.6	-2.3	22.0499	3.0	70.0	2.48	Outcome1	-4.6	11.3	0.0	No	2.0	-15.904761904761902	1.025	152.146		GetAnswer	Loss
37.0	2	152.158	0.012	728.239	-4.6	-2.3	22.0499	4.0	70.0	2.48	Outcome1	-4.6	11.3	0.0	No		-15.904761904761902				ShowChoice	Loss
37.0	2	156.17	0.012	732.251	-4.6	-2.3	22.0499	1.0	70.0	2.48	Outcome1	-4.6	11.3	0.0	No		-15.904761904761902				ShowResult	Loss
37.0	2	157.189	0.019	733.27	-4.6	-2.3	22.0499	3.598	70.0	2.48	Outcome1	-4.6	11.3	0.0	No		-15.904761904761902				ISITrial	Loss
38.0	2	160.817	0.03	736.898	-7.69	0.0	21.0887	3.0	70.0	2.0	Outcome2	8.9	-7.69	0.0	No	2.0	-16.5873015873016	1.296	162.113		GetAnswer	Gain
38.0	2	162.137	0.024	738.218	-7.69	0.0	21.0887	4.0	70.0	2.0	Outcome2	8.9	-7.69	0.0	No		-16.5873015873016				ShowChoice	Gain
38.0	2	166.149	0.012	742.23	-7.69	0.0	21.0887	1.0	70.0	2.0	Outcome2	8.9	-7.69	0.0	No		-16.5873015873016				ShowResult	Gain
38.0	2	167.169	0.02	743.25	-7.69	0.0	21.0887	4.787	70.0	2.0	Outcome2	8.9	-7.69	0.0	No		-16.5873015873016				ISITrial	Gain
39.0	2	171.983	0.027	748.064	-4.57	-2.28	20.5175	3.0	70.0	1.82	Outcome1	-4.57	12.7	2864.25	Yes	2.0	-17.2698412698413	1.298	173.281		GetAnswer	Loss
39.0	2	173.304	0.023	749.385	-4.57	-2.28	20.5175	4.0	70.0	1.82	Outcome1	-4.57	12.7	2864.25	Yes		-17.2698412698413				ShowChoice	Loss
39.0	2	177.316	0.012	753.397	-4.57	-2.28	20.5175	1.0	70.0	1.82	Outcome1	-4.57	12.7	2864.25	Yes		-17.2698412698413				ShowResult	Loss
39.0	2	178.336	0.02	754.417	-4.57	-2.28	20.5175	2.348	70.0	1.82	Outcome1	-4.57	12.7	2864.25	Yes		-17.2698412698413				ISITrial	Loss
39.0	2	183.601	0.028	759.682	-4.57	-2.28	20.5175	3.858	70.0	1.82	Outcome1	-4.57	12.7	2864.25	Yes		-17.2698412698413			428.0	TrialHappiness	Loss
39.0	2	187.613	4.012	763.694	-4.57	-2.28	20.5175	3.457	70.0	1.82	Outcome1	-4.57	12.7	2864.25	Yes		-17.2698412698413				ISIRate	Loss
40.0	2	191.09	0.02	767.171	3.42	2.0	20.945	3.0	70.0	3.16	Outcome1	3.42	1.32	0.0	No	2.0	2.0973167044595598	1.151	192.241		GetAnswer	Loss
40.0	2	192.261	0.02	768.342	3.42	2.0	20.945	4.0	70.0	3.16	Outcome1	3.42	1.32	0.0	No		2.0973167044595598				ShowChoice	Loss
40.0	2	196.273	0.012	772.354	3.42	2.0	20.945	1.0	70.0	3.16	Outcome1	3.42	1.32	0.0	No		2.0973167044595598				ShowResult	Loss
40.0	2	197.292	0.019	773.373	3.42	2.0	20.945	3.158	70.0	3.16	Outcome1	3.42	1.32	0.0	No		2.0973167044595598				ISITrial	Loss
41.0	2	200.468	0.018	776.549	-7.51	0.0	20.0062	3.0	70.0	1.82	Outcome2	6.7	-7.51	4000.0	Yes	2.0	-14.2086167800454	0.827	201.295		GetAnswer	Gain
41.0	2	201.321	0.025	777.402	-7.51	0.0	20.0062	4.0	70.0	1.82	Outcome2	6.7	-7.51	4000.0	Yes		-14.2086167800454				ShowChoice	Gain
41.0	2	205.333	0.012	781.414	-7.51	0.0	20.0062	1.0	70.0	1.82	Outcome2	6.7	-7.51	4000.0	Yes		-14.2086167800454				ShowResult	Gain
41.0	2	206.353	0.02	782.434	-7.51	0.0	20.0062	4.506	70.0	1.82	Outcome2	6.7	-7.51	4000.0	Yes		-14.2086167800454				ISITrial	Gain
41.0	2	214.912	0.029	790.993	-7.51	0.0	20.0062	0.0	70.0	1.82	Outcome2	6.7	-7.51	4000.0	Yes		-14.2086167800454			512.0	TrialHappiness	Gain
41.0	2	218.924	4.012	795.005	-7.51	0.0	20.0062	8.0	70.0	1.82	Outcome2	6.7	-7.51	4000.0	Yes		-14.2086167800454				ISIRate	Gain
42.0	2	226.948	0.024	803.029	1.42	0.0	20.1837	3.0	70.0	3.16	Outcome1	1.42	-1.09	0.0	No	2.0	2.5062358276644	1.283	228.231		GetAnswer	Gain
42.0	2	228.251	0.02	804.332	1.42	0.0	20.1837	4.0	70.0	3.16	Outcome1	1.42	-1.09	0.0	No		2.5062358276644				ShowChoice	Gain
42.0	2	232.263	0.012	808.344	1.42	0.0	20.1837	1.0	70.0	3.16	Outcome1	1.42	-1.09	0.0	No		2.5062358276644				ShowResult	Gain
42.0	2	233.283	0.02	809.364	1.42	0.0	20.1837	6.248	70.0	3.16	Outcome1	1.42	-1.09	0.0	No		2.5062358276644				ISITrial	Gain
43.0	2	239.552	0.021	815.633	-1.0	-1.0	20.0587	3.0	70.0	0.3	Certain	-2.87	-0.32	2775.75	Yes	4.0	2.54799697656841	1.943	241.495		GetAnswer	Mixed
43.0	2	241.508	0.013	817.589	-1.0	-1.0	20.0587	4.0	70.0	0.3	Certain	-2.87	-0.32	2775.75	Yes		2.54799697656841				ShowChoice	Mixed
43.0	2	245.52	0.012	821.601	-1.0	-1.0	20.0587	1.0	70.0	0.3	Certain	-2.87	-0.32	2775.75	Yes		2.54799697656841				ShowResult	Mixed
43.0	2	246.539	0.019	822.62	-1.0	-1.0	20.0587	4.596	70.0	0.3	Certain	-2.87	-0.32	2775.75	Yes		2.54799697656841				ISITrial	Mixed
43.0	2	253.945	0.016	830.026	-1.0	-1.0	20.0587	2.615	70.0	0.3	Certain	-2.87	-0.32	2775.75	Yes		2.54799697656841			488.0	TrialHappiness	Mixed
43.0	2	257.957	4.012	834.038	-1.0	-1.0	20.0587	3.103	70.0	0.3	Certain	-2.87	-0.32	2775.75	Yes		2.54799697656841				ISIRate	Mixed
44.0	2	261.083	0.023	837.164	-10.34	-2.0	18.7662	3.0	70.0	5.0	Outcome2	6.3	-10.34	0.0	No	2.0	-16.6371882086168	1.363	262.446		GetAnswer	Gain
44.0	2	262.47	0.024	838.551	-10.34	-2.0	18.7662	4.0	70.0	5.0	Outcome2	6.3	-10.34	0.0	No		-16.6371882086168				ShowChoice	Gain
44.0	2	266.482	0.012	842.563	-10.34	-2.0	18.7662	1.0	70.0	5.0	Outcome2	6.3	-10.34	0.0	No		-16.6371882086168				ShowResult	Gain
44.0	2	267.502	0.02	843.583	-10.34	-2.0	18.7662	2.42	70.0	5.0	Outcome2	6.3	-10.34	0.0	No		-16.6371882086168				ISITrial	Gain
45.0	2	269.943	0.021	846.024	-5.01	-2.5	18.1399	3.0	70.0	4.2	Outcome1	-5.01	12.1	0.0	No	2.0	-17.1111111111111	0.925	270.868		GetAnswer	Loss
45.0	2	270.895	0.027	846.976	-5.01	-2.5	18.1399	4.0	70.0	4.2	Outcome1	-5.01	12.1	0.0	No		-17.1111111111111				ShowChoice	Loss
45.0	2	274.907	0.012	850.988	-5.01	-2.5	18.1399	1.0	70.0	4.2	Outcome1	-5.01	12.1	0.0	No		-17.1111111111111				ShowResult	Loss
45.0	2	275.927	0.02	852.008	-5.01	-2.5	18.1399	3.144	70.0	4.2	Outcome1	-5.01	12.1	0.0	No		-17.1111111111111				ISITrial	Loss
46.0	2	279.087	0.016	855.168	0.0	0.0	18.1399	3.0	70.0	1.0	Certain	-1.65	0.92	3841.25	Yes	4.0	2.57123960695389	1.809	280.896		GetAnswer	Mixed
46.0	2	280.925	0.029	857.006	0.0	0.0	18.1399	4.0	70.0	1.0	Certain	-1.65	0.92	3841.25	Yes		2.57123960695389				ShowChoice	Mixed
46.0	2	284.937	0.012	861.018	0.0	0.0	18.1399	1.0	70.0	1.0	Certain	-1.65	0.92	3841.25	Yes		2.57123960695389				ShowResult	Mixed
46.0	2	285.957	0.02	862.038	0.0	0.0	18.1399	2.246	70.0	1.0	Certain	-1.65	0.92	3841.25	Yes		2.57123960695389				ISITrial	Mixed
46.0	2	292.075	0.02	868.156	0.0	0.0	18.1399	0.862	70.0	1.0	Certain	-1.65	0.92	3841.25	Yes		2.57123960695389			472.0	TrialHappiness	Mixed
46.0	2	296.087	4.012	872.168	0.0	0.0	18.1399	7.365	70.0	1.0	Certain	-1.65	0.92	3841.25	Yes		2.57123960695389				ISIRate	Mixed
47.0	2	303.476	0.024	879.557	-6.0	-6.0	17.3899	3.0	70.0	2.0	Certain	2.3	-15.49	0.0	No	4.0	-17.7868480725624	1.823	305.299		GetAnswer	Mixed
47.0	2	305.315	0.016	881.396	-6.0	-6.0	17.3899	4.0	70.0	2.0	Certain	2.3	-15.49	0.0	No		-17.7868480725624				ShowChoice	Mixed
47.0	2	309.327	0.012	885.408	-6.0	-6.0	17.3899	1.0	70.0	2.0	Certain	2.3	-15.49	0.0	No		-17.7868480725624				ShowResult	Mixed
47.0	2	310.347	0.02	886.428	-6.0	-6.0	17.3899	2.0	70.0	2.0	Certain	2.3	-15.49	0.0	No		-17.7868480725624				ISITrial	Mixed
48.0	2	312.369	0.022	888.45	-6.54	2.0	16.5724	3.0	70.0	3.16	Outcome2	11.7	-6.54	2831.75	Yes	2.0	-18.242630385487498	0.878	313.247		GetAnswer	Loss
48.0	2	313.272	0.025	889.353	-6.54	2.0	16.5724	4.0	70.0	3.16	Outcome2	11.7	-6.54	2831.75	Yes		-18.242630385487498				ShowChoice	Loss
48.0	2	317.284	0.012	893.365	-6.54	2.0	16.5724	1.0	70.0	3.16	Outcome2	11.7	-6.54	2831.75	Yes		-18.242630385487498				ShowResult	Loss
48.0	2	318.304	0.02	894.385	-6.54	2.0	16.5724	3.692	70.0	3.16	Outcome2	11.7	-6.54	2831.75	Yes		-18.242630385487498				ISITrial	Loss
48.0	2	324.873	0.026	900.954	-6.54	2.0	16.5724	1.239	70.0	3.16	Outcome2	11.7	-6.54	2831.75	Yes		-18.242630385487498			420.0	TrialHappiness	Loss
48.0	2	328.885	4.012	904.966	-6.54	2.0	16.5724	3.327	70.0	3.16	Outcome2	11.7	-6.54	2831.75	Yes		-18.242630385487498				ISIRate	Loss
49.0	2	332.229	0.017	908.31	0.12	-1.0	16.5874	3.0	70.0	0.2	Outcome2	-2.29	0.12	0.0	No	2.0	2.41043083900227	1.743	333.972		GetAnswer	Mixed
49.0	2	333.984	0.012	910.065	0.12	-1.0	16.5874	4.0	70.0	0.2	Outcome2	-2.29	0.12	0.0	No		2.41043083900227				ShowChoice	Mixed
49.0	2	337.996	0.012	914.077	0.12	-1.0	16.5874	1.0	70.0	0.2	Outcome2	-2.29	0.12	0.0	No		2.41043083900227				ShowResult	Mixed
49.0	2	339.016	0.02	915.097	0.12	-1.0	16.5874	8.0	70.0	0.2	Outcome2	-2.29	0.12	0.0	No		2.41043083900227				ISITrial	Mixed
50.0	2	347.04	0.024	923.121	-12.11	-3.0	15.0736	3.0	70.0	4.2	Outcome1	-12.11	6.1	3547.25	Yes	2.0	-18.210884353741502	1.436	348.476		GetAnswer	Gain
50.0	2	348.494	0.018	924.575	-12.11	-3.0	15.0736	4.0	70.0	4.2	Outcome1	-12.11	6.1	3547.25	Yes		-18.210884353741502				ShowChoice	Gain
50.0	2	352.506	0.012	928.587	-12.11	-3.0	15.0736	1.0	70.0	4.2	Outcome1	-12.11	6.1	3547.25	Yes		-18.210884353741502				ShowResult	Gain
50.0	2	353.526	0.02	929.607	-12.11	-3.0	15.0736	7.537	70.0	4.2	Outcome1	-12.11	6.1	3547.25	Yes		-18.210884353741502				ISITrial	Gain
50.0	2	364.659	0.031	940.74	-12.11	-3.0	15.0736	1.294	70.0	4.2	Outcome1	-12.11	6.1	3547.25	Yes		-18.210884353741502			432.0	TrialHappiness	Gain
50.0	2	368.671	4.012	944.752	-12.11	-3.0	15.0736	6.189	70.0	4.2	Outcome1	-12.11	6.1	3547.25	Yes		-18.210884353741502				ISIRate	Gain
51.0	2	374.889	0.029	950.97	-7.0	-7.0	14.1986	3.0	70.0	0.2	Certain	2.5	-16.31	0.0	No	4.0	-18.81179138322	1.718	376.607		GetAnswer	Mixed
51.0	2	376.628	0.021	952.709	-7.0	-7.0	14.1986	4.0	70.0	0.2	Certain	2.5	-16.31	0.0	No		-18.81179138322				ShowChoice	Mixed
51.0	2	380.64	0.012	956.721	-7.0	-7.0	14.1986	1.0	70.0	0.2	Certain	2.5	-16.31	0.0	No		-18.81179138322				ShowResult	Mixed
51.0	2	381.66	0.02	957.741	-7.0	-7.0	14.1986	5.508	70.0	0.2	Certain	2.5	-16.31	0.0	No		-18.81179138322				ISITrial	Mixed
52.0	2	387.193	0.025	963.274	0.68	0.0	14.2836	3.0	70.0	0.3	Outcome2	-1.88	0.68	0.0	No	2.0	2.55952380952381	1.792	388.985		GetAnswer	Mixed
52.0	2	388.998	0.013	965.079	0.68	0.0	14.2836	4.0	70.0	0.3	Outcome2	-1.88	0.68	0.0	No		2.55952380952381				ShowChoice	Mixed
52.0	2	393.01	0.012	969.091	0.68	0.0	14.2836	1.0	70.0	0.3	Outcome2	-1.88	0.68	0.0	No		2.55952380952381				ShowResult	Mixed
52.0	2	394.03	0.02	970.111	0.68	0.0	14.2836	5.913	70.0	0.3	Outcome2	-1.88	0.68	0.0	No		2.55952380952381				ISITrial	Mixed
53.0	2	399.964	0.021	976.045	-14.33	-4.0	12.4924	3.0	70.0	2.48	Outcome1	-14.33	5.3	2996.75	Yes	2.0	-19.632653061224502	1.727	401.691		GetAnswer	Gain
53.0	2	401.72	0.029	977.801	-14.33	-4.0	12.4924	4.0	70.0	2.48	Outcome1	-14.33	5.3	2996.75	Yes		-19.632653061224502				ShowChoice	Gain
53.0	2	405.732	0.012	981.813	-14.33	-4.0	12.4924	1.0	70.0	2.48	Outcome1	-14.33	5.3	2996.75	Yes		-19.632653061224502				ShowResult	Gain
53.0	2	406.751	0.019	982.832	-14.33	-4.0	12.4924	3.66	70.0	2.48	Outcome1	-14.33	5.3	2996.75	Yes		-19.632653061224502				ISITrial	Gain
53.0	2	413.455	0.029	989.536	-14.33	-4.0	12.4924	1.578	70.0	2.48	Outcome1	-14.33	5.3	2996.75	Yes		-19.632653061224502			428.0	TrialHappiness	Gain
53.0	2	417.467	4.012	993.548	-14.33	-4.0	12.4924	3.987	70.0	2.48	Outcome1	-14.33	5.3	2996.75	Yes		-19.632653061224502				ISIRate	Gain
54.0	2	421.479	0.025	997.56	-13.08	-3.0	10.8574	3.0	70.0	2.0	Outcome2	6.9	-13.08	0.0	No	2.0	-19.9750566893424	1.547	423.026		GetAnswer	Gain
54.0	2	423.05	0.024	999.131	-13.08	-3.0	10.8574	4.0	70.0	2.0	Outcome2	6.9	-13.08	0.0	No		-19.9750566893424				ShowChoice	Gain
54.0	2	427.062	0.012	1003.143	-13.08	-3.0	10.8574	1.0	70.0	2.0	Outcome2	6.9	-13.08	0.0	No		-19.9750566893424				ShowResult	Gain
54.0	2	428.082	0.02	1004.163	-13.08	-3.0	10.8574	8.0	70.0	2.0	Outcome2	6.9	-13.08	0.0	No		-19.9750566893424				ISITrial	Gain
	2	436.106	0.024	1012.187				-0.001								2.0		7.539	443.645		Rest	
	2	443.661	0.016	1019.742				4.0													BlockHappyPreview	
	2	447.673	0.012	1023.754				1.287												560.0	BlockStartHappiness	
	2	502.47	0.016	1078.551				-0.001								5.0		2.563	505.033		ScanWait	
	3	0.012	0.012	1081.126				10.0													GetReady	
55.0	3	10.025	0.013	1091.139	7.7	0.5	11.8199	3.0	955.0	3.16	Outcome2	0.99	7.7	2533.25	Yes	2.0	6.71007927519819	1.563	11.588		GetAnswer	Gain
55.0	3	11.613	0.025	1092.727	7.7	0.5	11.8199	4.0	955.0	3.16	Outcome2	0.99	7.7	2533.25	Yes		6.71007927519819				ShowChoice	Gain
55.0	3	15.642	0.029	1096.756	7.7	0.5	11.8199	1.0	955.0	3.16	Outcome2	0.99	7.7	2533.25	Yes		6.71007927519819				ShowResult	Gain
55.0	3	16.662	0.02	1097.776	7.7	0.5	11.8199	7.709	955.0	3.16	Outcome2	0.99	7.7	2533.25	Yes		6.71007927519819				ISITrial	Gain
55.0	3	26.942	0.024	1108.056	7.7	0.5	11.8199	0.842	955.0	3.16	Outcome2	0.99	7.7	2533.25	Yes	2{-2}	6.71007927519819	0.842	27.784	728.0	TrialHappiness	Gain
55.0	3	30.954	4.012	1112.068	7.7	0.5	11.8199	2.133	955.0	3.16	Outcome2	0.99	7.7	2533.25	Yes		6.71007927519819				ISIRate	Gain
56.0	3	33.111	0.024	1114.225	7.9	1.8	12.8074	3.0	955.0	3.6	Outcome2	3.6	7.9	0.0	No	2.0	4.3035107587769	1.362	34.473		GetAnswer	Gain
56.0	3	34.498	0.025	1115.612	7.9	1.8	12.8074	4.0	955.0	3.6	Outcome2	3.6	7.9	0.0	No		4.3035107587769				ShowChoice	Gain
56.0	3	38.51	0.012	1119.624	7.9	1.8	12.8074	1.0	955.0	3.6	Outcome2	3.6	7.9	0.0	No		4.3035107587769				ShowResult	Gain
56.0	3	39.53	0.02	1120.644	7.9	1.8	12.8074	4.697	955.0	3.6	Outcome2	3.6	7.9	0.0	No		4.3035107587769				ISITrial	Gain
57.0	3	44.244	0.017	1125.358	5.1	0.27	13.4449	3.0	955.0	2.22	Outcome1	5.1	0.54	0.0	No	2.0	4.56058890147225	0.957	45.201		GetAnswer	Gain
57.0	3	45.213	0.012	1126.327	5.1	0.27	13.4449	4.0	955.0	2.22	Outcome1	5.1	0.54	0.0	No		4.56058890147225				ShowChoice	Gain
57.0	3	49.225	0.012	1130.339	5.1	0.27	13.4449	1.0	955.0	2.22	Outcome1	5.1	0.54	0.0	No		4.56058890147225				ShowResult	Gain
57.0	3	50.245	0.02	1131.359	5.1	0.27	13.4449	4.291	955.0	2.22	Outcome1	5.1	0.54	0.0	No		4.56058890147225				ISITrial	Gain
58.0	3	54.558	0.022	1135.672	4.3	2.0	13.9824	3.0	955.0	2.0	Outcome1	4.3	-0.52	3045.75	Yes	2.0	4.81766704416761	1.233	55.791		GetAnswer	Mixed
58.0	3	55.812	0.021	1136.926	4.3	2.0	13.9824	4.0	955.0	2.0	Outcome1	4.3	-0.52	3045.75	Yes		4.81766704416761				ShowChoice	Mixed
58.0	3	59.824	0.012	1140.938	4.3	2.0	13.9824	1.0	955.0	2.0	Outcome1	4.3	-0.52	3045.75	Yes		4.81766704416761				ShowResult	Mixed
58.0	3	60.843	0.019	1141.957	4.3	2.0	13.9824	2.037	955.0	2.0	Outcome1	4.3	-0.52	3045.75	Yes		4.81766704416761				ISITrial	Mixed
58.0	3	65.975	0.029	1147.089	4.3	2.0	13.9824	0.959	955.0	2.0	Outcome1	4.3	-0.52	3045.75	Yes		4.81766704416761			784.0	TrialHappiness	Mixed
58.0	3	69.987	4.012	1151.101	4.3	2.0	13.9824	4.183	955.0	2.0	Outcome1	4.3	-0.52	3045.75	Yes		4.81766704416761				ISIRate	Mixed
59.0	3	74.2	0.03	1155.314	3.1	1.55	14.3699	3.0	955.0	1.2	Outcome2	3.9	3.1	0.0	No	2.0	-0.7954888637221591	1.317	75.517		GetAnswer	Mixed
59.0	3	75.537	0.02	1156.651	3.1	1.55	14.3699	4.0	955.0	1.2	Outcome2	3.9	3.1	0.0	No		-0.7954888637221591				ShowChoice	Mixed
59.0	3	79.549	0.012	1160.663	3.1	1.55	14.3699	1.0	955.0	1.2	Outcome2	3.9	3.1	0.0	No		-0.7954888637221591				ShowResult	Mixed
59.0	3	80.569	0.02	1161.683	3.1	1.55	14.3699	5.064	955.0	1.2	Outcome2	3.9	3.1	0.0	No		-0.7954888637221591				ISITrial	Mixed
60.0	3	85.651	0.018	1166.765	13.3	4.49	16.0324	3.0	955.0	2.48	Outcome2	8.98	13.3	3562.5	Yes	2.0	4.3171007927519796	1.637	87.288		GetAnswer	Loss
60.0	3	87.306	0.018	1168.42	13.3	4.49	16.0324	4.0	955.0	2.48	Outcome2	8.98	13.3	3562.5	Yes		4.3171007927519796				ShowChoice	Loss
60.0	3	91.318	0.012	1172.432	13.3	4.49	16.0324	1.0	955.0	2.48	Outcome2	8.98	13.3	3562.5	Yes		4.3171007927519796				ShowResult	Loss
60.0	3	92.338	0.02	1173.452	13.3	4.49	16.0324	8.0	955.0	2.48	Outcome2	8.98	13.3	3562.5	Yes		4.3171007927519796				ISITrial	Loss
60.0	3	103.939	0.016	1185.053	13.3	4.49	16.0324	0.958	955.0	2.48	Outcome2	8.98	13.3	3562.5	Yes		4.3171007927519796			704.0	TrialHappiness	Loss
60.0	3	107.951	4.012	1189.065	13.3	4.49	16.0324	6.25	955.0	2.48	Outcome2	8.98	13.3	3562.5	Yes		4.3171007927519796				ISIRate	Loss
61.0	3	114.22	0.019	1195.334	0.55	1.0	16.1012	3.0	955.0	1.0	Outcome1	0.55	1.7	0.0	No	2.0	-1.15241600604002	2.397	116.617		GetAnswer	Mixed
61.0	3	116.643	0.026	1197.757	0.55	1.0	16.1012	4.0	955.0	1.0	Outcome1	0.55	1.7	0.0	No		-1.15241600604002				ShowChoice	Mixed
61.0	3	120.655	0.012	1201.769	0.55	1.0	16.1012	1.0	955.0	1.0	Outcome1	0.55	1.7	0.0	No		-1.15241600604002				ShowResult	Mixed
61.0	3	121.675	0.02	1202.789	0.55	1.0	16.1012	4.586	955.0	1.0	Outcome1	0.55	1.7	0.0	No		-1.15241600604002				ISITrial	Mixed
62.0	3	126.289	0.028	1207.403	9.52	4.76	17.2912	3.0	955.0	1.82	Outcome2	10.7	9.52	3748.75	Yes	2.0	-1.17610419026048	1.682	127.971		GetAnswer	Loss
62.0	3	127.994	0.023	1209.108	9.52	4.76	17.2912	4.0	955.0	1.82	Outcome2	10.7	9.52	3748.75	Yes		-1.17610419026048				ShowChoice	Loss
62.0	3	132.006	0.012	1213.12	9.52	4.76	17.2912	1.0	955.0	1.82	Outcome2	10.7	9.52	3748.75	Yes		-1.17610419026048				ShowResult	Loss
62.0	3	133.026	0.02	1214.14	9.52	4.76	17.2912	5.212	955.0	1.82	Outcome2	10.7	9.52	3748.75	Yes		-1.17610419026048				ISITrial	Loss
62.0	3	142.036	0.029	1223.15	9.52	4.76	17.2912	1.176	955.0	1.82	Outcome2	10.7	9.52	3748.75	Yes		-1.17610419026048			792.0	TrialHappiness	Loss
62.0	3	146.048	4.012	1227.162	9.52	4.76	17.2912	6.995	955.0	1.82	Outcome2	10.7	9.52	3748.75	Yes		-1.17610419026048				ISIRate	Loss
63.0	3	153.069	0.026	1234.183	11.66	5.83	18.7487	3.0	955.0	1.68	Outcome1	11.66	12.5	0.0	No	2.0	-0.8426764816912041	1.086	154.155		GetAnswer	Loss
63.0	3	154.172	0.017	1235.286	11.66	5.83	18.7487	4.0	955.0	1.68	Outcome1	11.66	12.5	0.0	No		-0.8426764816912041				ShowChoice	Loss
63.0	3	158.184	0.012	1239.298	11.66	5.83	18.7487	1.0	955.0	1.68	Outcome1	11.66	12.5	0.0	No		-0.8426764816912041				ShowResult	Loss
63.0	3	159.204	0.02	1240.318	11.66	5.83	18.7487	5.595	955.0	1.68	Outcome1	11.66	12.5	0.0	No		-0.8426764816912041				ISITrial	Loss
64.0	3	164.821	0.022	1245.935	2.1	0.0	19.0112	3.0	955.0	1.5	Outcome1	2.1	-3.03	0.0	No	2.0	5.127972819932049	1.301	166.122		GetAnswer	Mixed
64.0	3	166.141	0.019	1247.255	2.1	0.0	19.0112	4.0	955.0	1.5	Outcome1	2.1	-3.03	0.0	No		5.127972819932049				ShowChoice	Mixed
64.0	3	170.153	0.012	1251.267	2.1	0.0	19.0112	1.0	955.0	1.5	Outcome1	2.1	-3.03	0.0	No		5.127972819932049				ShowResult	Mixed
64.0	3	171.173	0.02	1252.287	2.1	0.0	19.0112	5.47	955.0	1.5	Outcome1	2.1	-3.03	0.0	No		5.127972819932049				ISITrial	Mixed
65.0	3	176.673	0.03	1257.787	-1.5	-4.0	18.8237	3.0	955.0	0.2	Outcome2	-6.81	-1.5	2996.75	Yes	2.0	5.31257078142695	1.696	178.369		GetAnswer	Mixed
65.0	3	178.395	0.026	1259.509	-1.5	-4.0	18.8237	4.0	955.0	0.2	Outcome2	-6.81	-1.5	2996.75	Yes		5.31257078142695				ShowChoice	Mixed
65.0	3	182.423	0.028	1263.537	-1.5	-4.0	18.8237	1.0	955.0	0.2	Outcome2	-6.81	-1.5	2996.75	Yes		5.31257078142695				ShowResult	Mixed
65.0	3	183.443	0.02	1264.557	-1.5	-4.0	18.8237	3.344	955.0	0.2	Outcome2	-6.81	-1.5	2996.75	Yes		5.31257078142695				ISITrial	Mixed
65.0	3	189.829	0.029	1270.943	-1.5	-4.0	18.8237	2.347	955.0	0.2	Outcome2	-6.81	-1.5	2996.75	Yes		5.31257078142695			664.0	TrialHappiness	Mixed
65.0	3	193.841	4.012	1274.955	-1.5	-4.0	18.8237	3.987	955.0	0.2	Outcome2	-6.81	-1.5	2996.75	Yes		5.31257078142695				ISIRate	Mixed
66.0	3	197.853	0.025	1278.967	1.49	2.0	19.0099	3.0	955.0	0.4	Outcome2	2.9	1.49	0.0	No	2.0	-1.40826727066818	1.481	199.334		GetAnswer	Mixed
66.0	3	199.357	0.023	1280.471	1.49	2.0	19.0099	4.0	955.0	0.4	Outcome2	2.9	1.49	0.0	No		-1.40826727066818				ShowChoice	Mixed
66.0	3	203.369	0.012	1284.483	1.49	2.0	19.0099	1.0	955.0	0.4	Outcome2	2.9	1.49	0.0	No		-1.40826727066818				ShowResult	Mixed
66.0	3	204.389	0.02	1285.503	1.49	2.0	19.0099	3.959	955.0	0.4	Outcome2	2.9	1.49	0.0	No		-1.40826727066818				ISITrial	Mixed
67.0	3	208.367	0.019	1289.481	-1.34	0.0	18.8424	3.0	955.0	1.5	Outcome2	0.1	-1.34	2918.5	Yes		-1.43573046432616				GetAnswer	Mixed
67.0	3	211.393	0.026	1292.507	-1.34	0.0	18.8424	4.0	955.0	1.5	Outcome2	0.1	-1.34	2918.5	Yes		-1.43573046432616				ShowChoice	Mixed
67.0	3	215.405	0.012	1296.519	-1.34	0.0	18.8424	1.0	955.0	1.5	Outcome2	0.1	-1.34	2918.5	Yes		-1.43573046432616				ShowResult	Mixed
67.0	3	216.425	0.02	1297.539	-1.34	0.0	18.8424	4.199	955.0	1.5	Outcome2	0.1	-1.34	2918.5	Yes		-1.43573046432616				ISITrial	Mixed
67.0	3	223.579	0.024	1304.693	-1.34	0.0	18.8424	0.0	955.0	1.5	Outcome2	0.1	-1.34	2918.5	Yes		-1.43573046432616			512.0	TrialHappiness	Mixed
67.0	3	227.591	4.012	1308.705	-1.34	0.0	18.8424	3.674	955.0	1.5	Outcome2	0.1	-1.34	2918.5	Yes		-1.43573046432616				ISIRate	Mixed
68.0	3	231.286	0.021	1312.4	10.3	-0.3	20.1299	3.0	955.0	5.0	Outcome1	10.3	-0.61	0.0	No	2.0	10.912797281993198	1.277	232.563		GetAnswer	Gain
68.0	3	232.59	0.027	1313.704	10.3	-0.3	20.1299	4.0	955.0	5.0	Outcome1	10.3	-0.61	0.0	No		10.912797281993198				ShowChoice	Gain
68.0	3	236.618	0.028	1317.732	10.3	-0.3	20.1299	1.0	955.0	5.0	Outcome1	10.3	-0.61	0.0	No		10.912797281993198				ShowResult	Gain
68.0	3	237.638	0.02	1318.752	10.3	-0.3	20.1299	2.185	955.0	5.0	Outcome1	10.3	-0.61	0.0	No		10.912797281993198				ISITrial	Gain
69.0	3	239.845	0.022	1320.959	12.3	0.44	21.6674	3.0	955.0	5.0	Outcome2	0.89	12.3	0.0	No	2.0	11.414496036240099	1.829	241.674		GetAnswer	Loss
69.0	3	241.7	0.026	1322.814	12.3	0.44	21.6674	4.0	955.0	5.0	Outcome2	0.89	12.3	0.0	No		11.414496036240099				ShowChoice	Loss
69.0	3	245.729	0.029	1326.843	12.3	0.44	21.6674	1.0	955.0	5.0	Outcome2	0.89	12.3	0.0	No		11.414496036240099				ShowResult	Loss
69.0	3	246.749	0.02	1327.863	12.3	0.44	21.6674	2.0	955.0	5.0	Outcome2	0.89	12.3	0.0	No		11.414496036240099				ISITrial	Loss
70.0	3	248.771	0.022	1329.885	1.3	-4.0	21.8299	3.0	955.0	0.66	Outcome2	-10.62	1.3	3651.25	Yes	2.0	11.916194790487001	1.86	250.631		GetAnswer	Mixed
70.0	3	250.66	0.029	1331.774	1.3	-4.0	21.8299	4.0	955.0	0.66	Outcome2	-10.62	1.3	3651.25	Yes		11.916194790487001				ShowChoice	Mixed
70.0	3	254.672	0.012	1335.786	1.3	-4.0	21.8299	1.0	955.0	0.66	Outcome2	-10.62	1.3	3651.25	Yes		11.916194790487001				ShowResult	Mixed
70.0	3	255.692	0.02	1336.806	1.3	-4.0	21.8299	2.623	955.0	0.66	Outcome2	-10.62	1.3	3651.25	Yes		11.916194790487001				ISITrial	Mixed
70.0	3	262.011	0.027	1343.125	1.3	-4.0	21.8299	1.293	955.0	0.66	Outcome2	-10.62	1.3	3651.25	Yes		11.916194790487001			760.0	TrialHappiness	Mixed
70.0	3	266.023	4.012	1347.137	1.3	-4.0	21.8299	6.605	955.0	0.66	Outcome2	-10.62	1.3	3651.25	Yes		11.916194790487001				ISIRate	Mixed
71.0	3	272.659	0.031	1353.773	9.5	0.65	23.0174	3.0	955.0	2.8	Outcome2	1.3	9.5	0.0	No	2.0	8.20498301245753	1.232	273.891		GetAnswer	Gain
71.0	3	273.913	0.022	1355.027	9.5	0.65	23.0174	4.0	955.0	2.8	Outcome2	1.3	9.5	0.0	No		8.20498301245753				ShowChoice	Gain
71.0	3	277.925	0.012	1359.039	9.5	0.65	23.0174	1.0	955.0	2.8	Outcome2	1.3	9.5	0.0	No		8.20498301245753				ShowResult	Gain
71.0	3	278.945	0.02	1360.059	9.5	0.65	23.0174	5.499	955.0	2.8	Outcome2	1.3	9.5	0.0	No		8.20498301245753				ISITrial	Gain
72.0	3	284.461	0.017	1365.575	0.3	-4.0	23.0549	3.0	955.0	2.0	Outcome2	-8.13	0.3	3080.5	Yes	2.0	8.42582106455266	1.809	286.27		GetAnswer	Mixed
72.0	3	286.283	0.013	1367.397	0.3	-4.0	23.0549	4.0	955.0	2.0	Outcome2	-8.13	0.3	3080.5	Yes		8.42582106455266				ShowChoice	Mixed
72.0	3	290.295	0.012	1371.409	0.3	-4.0	23.0549	1.0	955.0	2.0	Outcome2	-8.13	0.3	3080.5	Yes		8.42582106455266				ShowResult	Mixed
72.0	3	291.315	0.02	1372.429	0.3	-4.0	23.0549	5.672	955.0	2.0	Outcome2	-8.13	0.3	3080.5	Yes		8.42582106455266				ISITrial	Mixed
72.0	3	300.108	0.029	1381.222	0.3	-4.0	23.0549	0.527	955.0	2.0	Outcome2	-8.13	0.3	3080.5	Yes		8.42582106455266			464.0	TrialHappiness	Mixed
72.0	3	304.12	4.012	1385.234	0.3	-4.0	23.0549	4.322	955.0	2.0	Outcome2	-8.13	0.3	3080.5	Yes		8.42582106455266				ISIRate	Mixed
73.0	3	308.466	0.024	1389.58	4.06	2.03	23.5624	3.0	955.0	1.68	Outcome2	6.5	4.06	0.0	No	2.0	-2.43705171762929	1.03	309.496		GetAnswer	Gain
73.0	3	309.519	0.023	1390.633	4.06	2.03	23.5624	4.0	955.0	1.68	Outcome2	6.5	4.06	0.0	No		-2.43705171762929				ShowChoice	Gain
73.0	3	313.531	0.012	1394.645	4.06	2.03	23.5624	1.0	955.0	1.68	Outcome2	6.5	4.06	0.0	No		-2.43705171762929				ShowResult	Gain
73.0	3	314.551	0.02	1395.665	4.06	2.03	23.5624	4.616	955.0	1.68	Outcome2	6.5	4.06	0.0	No		-2.43705171762929				ISITrial	Gain
74.0	3	319.198	0.031	1400.312	13.5	-0.36	25.2499	3.0	955.0	2.8	Outcome2	-0.73	13.5	3056.25	Yes	2.0	14.231030577576401	1.294	320.492		GetAnswer	Loss
74.0	3	320.519	0.027	1401.633	13.5	-0.36	25.2499	4.0	955.0	2.8	Outcome2	-0.73	13.5	3056.25	Yes		14.231030577576401				ShowChoice	Loss
74.0	3	324.531	0.012	1405.645	13.5	-0.36	25.2499	1.0	955.0	2.8	Outcome2	-0.73	13.5	3056.25	Yes		14.231030577576401				ShowResult	Loss
74.0	3	325.551	0.02	1406.665	13.5	-0.36	25.2499	3.909	955.0	2.8	Outcome2	-0.73	13.5	3056.25	Yes		14.231030577576401				ISITrial	Loss
74.0	3	332.555	0.02	1413.669	13.5	-0.36	25.2499	3.935	955.0	2.8	Outcome2	-0.73	13.5	3056.25	Yes		14.231030577576401			784.0	TrialHappiness	Loss
74.0	3	336.567	4.012	1417.681	13.5	-0.36	25.2499	4.225	955.0	2.8	Outcome2	-0.73	13.5	3056.25	Yes		14.231030577576401				ISIRate	Loss
75.0	3	340.813	0.021	1421.927	5.5	1.0	25.9374	3.0	955.0	2.8	Outcome1	5.5	-3.85	0.0	No	2.0	9.35107587768969	0.909	341.722		GetAnswer	Gain
75.0	3	341.749	0.027	1422.863	5.5	1.0	25.9374	4.0	955.0	2.8	Outcome1	5.5	-3.85	0.0	No		9.35107587768969				ShowChoice	Gain
75.0	3	345.761	0.012	1426.875	5.5	1.0	25.9374	1.0	955.0	2.8	Outcome1	5.5	-3.85	0.0	No		9.35107587768969				ShowResult	Gain
75.0	3	346.781	0.02	1427.895	5.5	1.0	25.9374	4.979	955.0	2.8	Outcome1	5.5	-3.85	0.0	No		9.35107587768969				ISITrial	Gain
76.0	3	351.779	0.019	1432.893	2.25	1.12	26.2186	3.0	955.0	0.82	Outcome2	3.5	2.25	0.0	No	2.0	-1.2472631181578	1.539	353.318		GetAnswer	Mixed
76.0	3	353.334	0.016	1434.448	2.25	1.12	26.2186	4.0	955.0	0.82	Outcome2	3.5	2.25	0.0	No		-1.2472631181578				ShowChoice	Mixed
76.0	3	357.346	0.012	1438.46	2.25	1.12	26.2186	1.0	955.0	0.82	Outcome2	3.5	2.25	0.0	No		-1.2472631181578				ShowResult	Mixed
76.0	3	358.365	0.019	1439.479	2.25	1.12	26.2186	3.931	955.0	0.82	Outcome2	3.5	2.25	0.0	No		-1.2472631181578				ISITrial	Mixed
77.0	3	362.327	0.031	1443.441	0.0	0.0	26.2186	3.0	955.0	1.82	Certain	-5.04	4.7	4000.0	Yes	4.0	9.738391845979619	1.616	363.943		GetAnswer	Gain
77.0	3	363.965	0.022	1445.079	0.0	0.0	26.2186	4.0	955.0	1.82	Certain	-5.04	4.7	4000.0	Yes		9.738391845979619				ShowChoice	Gain
77.0	3	367.977	0.012	1449.091	0.0	0.0	26.2186	1.0	955.0	1.82	Certain	-5.04	4.7	4000.0	Yes		9.738391845979619				ShowResult	Gain
77.0	3	368.997	0.02	1450.111	0.0	0.0	26.2186	7.022	955.0	1.82	Certain	-5.04	4.7	4000.0	Yes		9.738391845979619				ISITrial	Gain
77.0	3	380.063	0.028	1461.177	0.0	0.0	26.2186	0.0	955.0	1.82	Certain	-5.04	4.7	4000.0	Yes		9.738391845979619			512.0	TrialHappiness	Gain
77.0	3	384.075	4.012	1465.189	0.0	0.0	26.2186	8.0	955.0	1.82	Certain	-5.04	4.7	4000.0	Yes		9.738391845979619				ISIRate	Gain
78.0	3	392.099	0.024	1473.213	10.9	-1.82	27.5811	3.0	955.0	2.0	Outcome2	-3.65	10.9	0.0	No		14.5526613816535				GetAnswer	Loss
78.0	3	395.125	0.026	1476.239	10.9	-1.82	27.5811	4.0	955.0	2.0	Outcome2	-3.65	10.9	0.0	No		14.5526613816535				ShowChoice	Loss
78.0	3	399.137	0.012	1480.251	10.9	-1.82	27.5811	1.0	955.0	2.0	Outcome2	-3.65	10.9	0.0	No		14.5526613816535				ShowResult	Loss
78.0	3	400.157	0.02	1481.271	10.9	-1.82	27.5811	2.078	955.0	2.0	Outcome2	-3.65	10.9	0.0	No		14.5526613816535				ISITrial	Loss
79.0	3	402.263	0.028	1483.377	-0.9	-8.0	27.4686	3.0	955.0	0.52	Outcome2	-15.95	-0.9	2729.5	Yes	2.0	15.054360135900302	2.425	404.688		GetAnswer	Mixed
79.0	3	404.704	0.016	1485.818	-0.9	-8.0	27.4686	4.0	955.0	0.52	Outcome2	-15.95	-0.9	2729.5	Yes		15.054360135900302				ShowChoice	Mixed
79.0	3	408.716	0.012	1489.83	-0.9	-8.0	27.4686	1.0	955.0	0.52	Outcome2	-15.95	-0.9	2729.5	Yes		15.054360135900302				ShowResult	Mixed
79.0	3	409.735	0.019	1490.849	-0.9	-8.0	27.4686	3.829	955.0	0.52	Outcome2	-15.95	-0.9	2729.5	Yes		15.054360135900302				ISITrial	Mixed
79.0	3	416.338	0.028	1497.452	-0.9	-8.0	27.4686	2.861	955.0	0.52	Outcome2	-15.95	-0.9	2729.5	Yes		15.054360135900302			464.0	TrialHappiness	Mixed
79.0	3	420.35	4.012	1501.464	-0.9	-8.0	27.4686	2.918	955.0	0.52	Outcome2	-15.95	-0.9	2729.5	Yes		15.054360135900302				ISIRate	Mixed
80.0	3	423.293	0.025	1504.407	3.04	1.52	27.8486	3.0	955.0	3.16	Outcome1	3.04	5.7	0.0	No	2.0	-2.6617591543978905	1.057	424.35		GetAnswer	Gain
80.0	3	424.362	0.012	1505.476	3.04	1.52	27.8486	4.0	955.0	3.16	Outcome1	3.04	5.7	0.0	No		-2.6617591543978905				ShowChoice	Gain
80.0	3	428.374	0.012	1509.488	3.04	1.52	27.8486	1.0	955.0	3.16	Outcome1	3.04	5.7	0.0	No		-2.6617591543978905				ShowResult	Gain
80.0	3	429.394	0.02	1510.508	3.04	1.52	27.8486	3.336	955.0	3.16	Outcome1	3.04	5.7	0.0	No		-2.6617591543978905				ISITrial	Gain
81.0	3	432.754	0.024	1513.868	6.59	3.3	28.6724	3.0	955.0	2.48	Outcome1	6.59	9.3	3923.75	Yes	2.0	-2.7080973952434904	0.862	433.616		GetAnswer	Gain
81.0	3	433.64	0.024	1514.754	6.59	3.3	28.6724	4.0	955.0	2.48	Outcome1	6.59	9.3	3923.75	Yes		-2.7080973952434904				ShowChoice	Gain
81.0	3	437.652	0.012	1518.766	6.59	3.3	28.6724	1.0	955.0	2.48	Outcome1	6.59	9.3	3923.75	Yes		-2.7080973952434904				ShowResult	Gain
81.0	3	438.672	0.02	1519.786	6.59	3.3	28.6724	3.919	955.0	2.48	Outcome1	6.59	9.3	3923.75	Yes		-2.7080973952434904				ISITrial	Gain
81.0	3	446.562	0.021	1527.676	6.59	3.3	28.6724	1.435	955.0	2.48	Outcome1	6.59	9.3	3923.75	Yes	2{-2}2{-2}2{-2}2{-2}2{-2}2{-2}2{-2}2{-2}	-2.7080973952434904	1.435	447.997	672.0	TrialHappiness	Gain
81.0	3	450.574	4.012	1531.688	6.59	3.3	28.6724	7.695	955.0	2.48	Outcome1	6.59	9.3	3923.75	Yes		-2.7080973952434904				ISIRate	Gain
	3	458.297	0.028	1539.411				3.0													CurrentEarnings	
	3	461.323	0.026	1542.437				-0.001								2.0		4.052	465.375		Goodbye	
