trial_number	block	onset	onset_delay	onset_unadjusted	amount_change	certain_amount	current_amount	duration	mood_target	multiplier	outcome	outcome1_amount	outcome2_amount	question_duration	rating	response	rpe	rt	rt_time	slider_response	trial_phase	trial_type
	0	-46.289	0.02	23.484				-0.001								{SPACE}		4.145	-42.144		Welcome	
	0	-42.127	0.017	27.646				5.0													LifeHappyPreview	
	0	-37.095	0.032	32.678				1.362												888.0	LifeHappiness	
	0	-19.877	0.02	49.896				4.0													BlockHappyPreview	
	0	-15.865	0.012	53.908				3.116												824.0	BlockStartHappiness	
	0	-5.818	0.023	63.955				-0.001								5.0					ScanWait	
	1	0.016	0.016	69.789				10.0													GetReady	
1.0	1	10.046	0.03	79.819	2.5	1.0	10.3125	3.0	955.0	0.2	Outcome2	0.27	2.5	0.0	No	2.0	2.2253680634201602	0.804	10.85		GetAnswer	Mixed
1.0	1	10.882	0.032	80.655	2.5	1.0	10.3125	4.0	955.0	0.2	Outcome2	0.27	2.5	0.0	No		2.2253680634201602				ShowChoice	Mixed
1.0	1	14.91	0.028	84.683	2.5	1.0	10.3125	1.0	955.0	0.2	Outcome2	0.27	2.5	0.0	No		2.2253680634201602				ShowResult	Mixed
1.0	1	15.93	0.02	85.703	2.5	1.0	10.3125	2.431	955.0	0.2	Outcome2	0.27	2.5	0.0	No		2.2253680634201602				ISITrial	Mixed
2.0	1	18.387	0.026	88.16	12.5	5.07	11.875	3.0	955.0	1.68	Outcome2	10.13	12.5	0.0	No	2.0	2.37372593431484	0.951	19.338		GetAnswer	Loss
2.0	1	19.357	0.019	89.13	12.5	5.07	11.875	4.0	955.0	1.68	Outcome2	10.13	12.5	0.0	No		2.37372593431484				ShowChoice	Loss
2.0	1	23.369	0.012	93.142	12.5	5.07	11.875	1.0	955.0	1.68	Outcome2	10.13	12.5	0.0	No		2.37372593431484				ShowResult	Loss
2.0	1	24.389	0.02	94.162	12.5	5.07	11.875	4.568	955.0	1.68	Outcome2	10.13	12.5	0.0	No		2.37372593431484				ISITrial	Loss
3.0	1	28.986	0.029	98.759	10.3	3.89	13.1625	3.0	955.0	5.0	Outcome1	10.3	7.78	2868.0	Yes	2.0	2.5220838052095096	0.798	29.784		GetAnswer	Gain
3.0	1	29.805	0.021	99.578	10.3	3.89	13.1625	4.0	955.0	5.0	Outcome1	10.3	7.78	2868.0	Yes		2.5220838052095096				ShowChoice	Gain
3.0	1	33.834	0.029	103.607	10.3	3.89	13.1625	1.0	955.0	5.0	Outcome1	10.3	7.78	2868.0	Yes		2.5220838052095096				ShowResult	Gain
3.0	1	34.853	0.019	104.626	10.3	3.89	13.1625	3.243	955.0	5.0	Outcome1	10.3	7.78	2868.0	Yes		2.5220838052095096				ISITrial	Gain
3.0	1	41.005	0.024	110.778	10.3	3.89	13.1625	1.276	955.0	5.0	Outcome1	10.3	7.78	2868.0	Yes		2.5220838052095096			904.0	TrialHappiness	Gain
3.0	1	45.034	4.029	114.807	10.3	3.89	13.1625	3.472	955.0	5.0	Outcome1	10.3	7.78	2868.0	Yes		2.5220838052095096				ISIRate	Gain
4.0	1	48.527	0.021	118.3	10.1	4.39	14.425	3.0	955.0	4.2	Outcome1	10.1	8.79	0.0	No	2.0	1.3114382785957	0.765	49.292		GetAnswer	Gain
4.0	1	49.313	0.021	119.086	10.1	4.39	14.425	4.0	955.0	4.2	Outcome1	10.1	8.79	0.0	No		1.3114382785957				ShowChoice	Gain
4.0	1	53.325	0.012	123.098	10.1	4.39	14.425	1.0	955.0	4.2	Outcome1	10.1	8.79	0.0	No		1.3114382785957				ShowResult	Gain
4.0	1	54.345	0.02	124.118	10.1	4.39	14.425	2.011	955.0	4.2	Outcome1	10.1	8.79	0.0	No		1.3114382785957				ISITrial	Gain
5.0	1	56.384	0.028	126.157	12.65	6.32	16.0062	3.0	955.0	2.0	Outcome1	12.65	12.9	2582.5	Yes	2.0	-0.248867497168743	1.436	57.82		GetAnswer	Loss
5.0	1	57.839	0.019	127.612	12.65	6.32	16.0062	4.0	955.0	2.0	Outcome1	12.65	12.9	2582.5	Yes		-0.248867497168743				ShowChoice	Loss
5.0	1	61.867	0.028	131.64	12.65	6.32	16.0062	1.0	955.0	2.0	Outcome1	12.65	12.9	2582.5	Yes		-0.248867497168743				ShowResult	Loss
5.0	1	62.887	0.02	132.66	12.65	6.32	16.0062	5.129	955.0	2.0	Outcome1	12.65	12.9	2582.5	Yes		-0.248867497168743				ISITrial	Loss
5.0	1	70.643	0.025	140.416	12.65	6.32	16.0062	1.36	955.0	2.0	Outcome1	12.65	12.9	2582.5	Yes		-0.248867497168743			928.0	TrialHappiness	Loss
5.0	1	74.655	4.012	144.428	12.65	6.32	16.0062	2.33	955.0	2.0	Outcome1	12.65	12.9	2582.5	Yes		-0.248867497168743				ISIRate	Loss
6.0	1	77.012	0.027	146.785	0.54	0.0	16.0737	3.0	955.0	0.3	Outcome1	0.54	0.7	0.0	No	2.0	-0.156285390713477	0.988	78.0		GetAnswer	Mixed
6.0	1	78.015	0.015	147.788	0.54	0.0	16.0737	4.0	955.0	0.3	Outcome1	0.54	0.7	0.0	No		-0.156285390713477				ShowChoice	Mixed
6.0	1	82.027	0.012	151.8	0.54	0.0	16.0737	1.0	955.0	0.3	Outcome1	0.54	0.7	0.0	No		-0.156285390713477				ShowResult	Mixed
6.0	1	83.047	0.02	152.82	0.54	0.0	16.0737	6.232	955.0	0.3	Outcome1	0.54	0.7	0.0	No		-0.156285390713477				ISITrial	Mixed
7.0	1	89.299	0.02	159.072	13.9	6.42	17.8112	3.0	955.0	3.6	Outcome2	12.85	13.9	0.0	No	2.0	1.04983012457531	0.896	90.195		GetAnswer	Loss
7.0	1	90.219	0.024	159.992	13.9	6.42	17.8112	4.0	955.0	3.6	Outcome2	12.85	13.9	0.0	No		1.04983012457531				ShowChoice	Loss
7.0	1	94.231	0.012	164.004	13.9	6.42	17.8112	1.0	955.0	3.6	Outcome2	12.85	13.9	0.0	No		1.04983012457531				ShowResult	Loss
7.0	1	95.25	0.019	165.023	13.9	6.42	17.8112	2.305	955.0	3.6	Outcome2	12.85	13.9	0.0	No		1.04983012457531				ISITrial	Loss
8.0	1	97.574	0.019	167.347	0.14	0.0	17.8287	3.0	955.0	2.0	Outcome2	0.3	0.14	3112.5	Yes	2.0	-0.161381653454134	0.931	98.505		GetAnswer	Mixed
8.0	1	98.527	0.022	168.3	0.14	0.0	17.8287	4.0	955.0	2.0	Outcome2	0.3	0.14	3112.5	Yes		-0.161381653454134				ShowChoice	Mixed
8.0	1	102.539	0.012	172.312	0.14	0.0	17.8287	1.0	955.0	2.0	Outcome2	0.3	0.14	3112.5	Yes		-0.161381653454134				ShowResult	Mixed
8.0	1	103.558	0.019	173.331	0.14	0.0	17.8287	3.506	955.0	2.0	Outcome2	0.3	0.14	3112.5	Yes		-0.161381653454134				ISITrial	Mixed
8.0	1	110.228	0.03	180.001	0.14	0.0	17.8287	1.361	955.0	2.0	Outcome2	0.3	0.14	3112.5	Yes	2{-2}	-0.161381653454134	1.361	111.589	920.0	TrialHappiness	Mixed
8.0	1	114.24	4.012	184.013	0.14	0.0	17.8287	4.45	955.0	2.0	Outcome2	0.3	0.14	3112.5	Yes		-0.161381653454134				ISIRate	Mixed
9.0	1	118.72	0.03	188.493	6.9	2.82	18.6912	3.0	955.0	2.0	Outcome1	6.9	5.65	0.0	No	2.0	1.2468856172140401	1.006	119.726		GetAnswer	Gain
9.0	1	119.74	0.014	189.513	6.9	2.82	18.6912	4.0	955.0	2.0	Outcome1	6.9	5.65	0.0	No		1.2468856172140401				ShowChoice	Gain
9.0	1	123.752	0.012	193.525	6.9	2.82	18.6912	1.0	955.0	2.0	Outcome1	6.9	5.65	0.0	No		1.2468856172140401				ShowResult	Gain
9.0	1	124.772	0.02	194.545	6.9	2.82	18.6912	2.0	955.0	2.0	Outcome1	6.9	5.65	0.0	No		1.2468856172140401				ISITrial	Gain
10.0	1	126.794	0.022	196.567	1.0	1.0	18.8162	3.0	955.0	1.0	Certain	0.41	1.7	4000.0	Yes	4.0	1.28652321630804	2.126	128.92		GetAnswer	Mixed
10.0	1	128.934	0.014	198.707	1.0	1.0	18.8162	4.0	955.0	1.0	Certain	0.41	1.7	4000.0	Yes		1.28652321630804				ShowChoice	Mixed
10.0	1	132.946	0.012	202.719	1.0	1.0	18.8162	1.0	955.0	1.0	Certain	0.41	1.7	4000.0	Yes		1.28652321630804				ShowResult	Mixed
10.0	1	133.966	0.02	203.739	1.0	1.0	18.8162	2.0	955.0	1.0	Certain	0.41	1.7	4000.0	Yes		1.28652321630804				ISITrial	Mixed
10.0	1	140.017	0.028	209.79	1.0	1.0	18.8162	1.41	955.0	1.0	Certain	0.41	1.7	4000.0	Yes		1.28652321630804			912.0	TrialHappiness	Mixed
10.0	1	144.029	4.012	213.802	1.0	1.0	18.8162	8.0	955.0	1.0	Certain	0.41	1.7	4000.0	Yes		1.28652321630804				ISIRate	Mixed
11.0	1	152.053	0.024	221.826	12.7	5.62	20.4037	3.0	955.0	1.82	Outcome1	12.7	11.24	0.0	No	2.0	1.4620611551528897	0.329	152.382		GetAnswer	Loss
11.0	1	152.404	0.022	222.177	12.7	5.62	20.4037	4.0	955.0	1.82	Outcome1	12.7	11.24	0.0	No		1.4620611551528897				ShowChoice	Loss
11.0	1	156.416	0.012	226.189	12.7	5.62	20.4037	1.0	955.0	1.82	Outcome1	12.7	11.24	0.0	No		1.4620611551528897				ShowResult	Loss
11.0	1	157.436	0.02	227.209	12.7	5.62	20.4037	3.324	955.0	1.82	Outcome1	12.7	11.24	0.0	No		1.4620611551528897				ISITrial	Loss
12.0	1	160.779	0.019	230.552	-2.0	-2.0	20.1537	3.0	955.0	0.3	Certain	-2.81	-1.3	2618.75	Yes	4.0	1.51075877689694	2.138	162.917		GetAnswer	Mixed
12.0	1	162.936	0.019	232.709	-2.0	-2.0	20.1537	4.0	955.0	0.3	Certain	-2.81	-1.3	2618.75	Yes		1.51075877689694				ShowChoice	Mixed
12.0	1	166.948	0.012	236.721	-2.0	-2.0	20.1537	1.0	955.0	0.3	Certain	-2.81	-1.3	2618.75	Yes		1.51075877689694				ShowResult	Mixed
12.0	1	167.967	0.019	237.74	-2.0	-2.0	20.1537	6.642	955.0	0.3	Certain	-2.81	-1.3	2618.75	Yes		1.51075877689694				ISITrial	Mixed
12.0	1	177.262	0.022	247.035	-2.0	-2.0	20.1537	3.3	955.0	0.3	Certain	-2.81	-1.3	2618.75	Yes		1.51075877689694			920.0	TrialHappiness	Mixed
12.0	1	181.274	4.012	251.047	-2.0	-2.0	20.1537	2.475	955.0	0.3	Certain	-2.81	-1.3	2618.75	Yes		1.51075877689694				ISIRate	Mixed
13.0	1	183.765	0.016	253.538	4.49	2.24	20.7149	3.0	955.0	1.82	Outcome1	4.49	4.7	0.0	No	2.0	-0.211117402793507	0.957	184.722		GetAnswer	Gain
13.0	1	184.734	0.012	254.507	4.49	2.24	20.7149	4.0	955.0	1.82	Outcome1	4.49	4.7	0.0	No		-0.211117402793507				ShowChoice	Gain
13.0	1	188.746	0.012	258.519	4.49	2.24	20.7149	1.0	955.0	1.82	Outcome1	4.49	4.7	0.0	No		-0.211117402793507				ShowResult	Gain
13.0	1	189.766	0.02	259.539	4.49	2.24	20.7149	3.48	955.0	1.82	Outcome1	4.49	4.7	0.0	No		-0.211117402793507				ISITrial	Gain
14.0	1	193.276	0.03	263.049	1.29	1.0	20.8761	3.0	955.0	0.82	Outcome1	1.29	1.5	0.0	No	2.0	-0.21442053605133998	1.023	194.299		GetAnswer	Mixed
14.0	1	194.313	0.013	264.086	1.29	1.0	20.8761	4.0	955.0	0.82	Outcome1	1.29	1.5	0.0	No		-0.21442053605133998				ShowChoice	Mixed
14.0	1	198.325	0.012	268.098	1.29	1.0	20.8761	1.0	955.0	0.82	Outcome1	1.29	1.5	0.0	No		-0.21442053605133998				ShowResult	Mixed
14.0	1	199.344	0.019	269.117	1.29	1.0	20.8761	5.019	955.0	0.82	Outcome1	1.29	1.5	0.0	No		-0.21442053605133998				ISITrial	Mixed
15.0	1	204.393	0.03	274.166	3.1	2.0	21.2636	3.0	955.0	0.52	Outcome1	3.1	1.6	3348.5	Yes	2.0	1.5028312570781397	1.685	206.078		GetAnswer	Mixed
15.0	1	206.098	0.02	275.871	3.1	2.0	21.2636	4.0	955.0	0.52	Outcome1	3.1	1.6	3348.5	Yes		1.5028312570781397				ShowChoice	Mixed
15.0	1	210.11	0.012	279.883	3.1	2.0	21.2636	1.0	955.0	0.52	Outcome1	3.1	1.6	3348.5	Yes		1.5028312570781397				ShowResult	Mixed
15.0	1	211.13	0.02	280.903	3.1	2.0	21.2636	7.614	955.0	0.52	Outcome1	3.1	1.6	3348.5	Yes		1.5028312570781397				ISITrial	Mixed
15.0	1	222.146	0.029	291.919	3.1	2.0	21.2636	2.281	955.0	0.52	Outcome1	3.1	1.6	3348.5	Yes		1.5028312570781397			936.0	TrialHappiness	Mixed
15.0	1	226.158	4.012	295.931	3.1	2.0	21.2636	5.394	955.0	0.52	Outcome1	3.1	1.6	3348.5	Yes		1.5028312570781397				ISIRate	Mixed
16.0	1	231.574	0.022	301.347	8.74	4.37	22.3561	3.0	955.0	2.0	Outcome1	8.74	8.9	0.0	No	2.0	-0.15609664024160097	0.995	232.569		GetAnswer	Gain
16.0	1	232.594	0.025	302.367	8.74	4.37	22.3561	4.0	955.0	2.0	Outcome1	8.74	8.9	0.0	No		-0.15609664024160097				ShowChoice	Gain
16.0	1	236.606	0.012	306.379	8.74	4.37	22.3561	1.0	955.0	2.0	Outcome1	8.74	8.9	0.0	No		-0.15609664024160097				ShowResult	Gain
16.0	1	237.625	0.019	307.398	8.74	4.37	22.3561	3.008	955.0	2.0	Outcome1	8.74	8.9	0.0	No		-0.15609664024160097				ISITrial	Gain
17.0	1	240.651	0.018	310.424	13.1	5.9	23.9936	3.0	955.0	2.22	Outcome2	11.81	13.1	3041.5	Yes	2.0	1.29218573046433	1.113	241.764		GetAnswer	Loss
17.0	1	241.788	0.024	311.561	13.1	5.9	23.9936	4.0	955.0	2.22	Outcome2	11.81	13.1	3041.5	Yes		1.29218573046433				ShowChoice	Loss
17.0	1	245.8	0.012	315.573	13.1	5.9	23.9936	1.0	955.0	2.22	Outcome2	11.81	13.1	3041.5	Yes		1.29218573046433				ShowResult	Loss
17.0	1	246.82	0.02	316.593	13.1	5.9	23.9936	3.566	955.0	2.22	Outcome2	11.81	13.1	3041.5	Yes		1.29218573046433				ISITrial	Loss
17.0	1	253.456	0.017	323.229	13.1	5.9	23.9936	3.38	955.0	2.22	Outcome2	11.81	13.1	3041.5	Yes		1.29218573046433			944.0	TrialHappiness	Loss
17.0	1	257.468	4.012	327.241	13.1	5.9	23.9936	4.166	955.0	2.22	Outcome2	11.81	13.1	3041.5	Yes		1.29218573046433				ISIRate	Loss
18.0	1	261.664	0.03	331.437	0.0	0.0	23.9936	3.0	955.0	0.2	Certain	-0.68	0.5	0.0	No	4.0	1.1778029445073601	1.714	263.378		GetAnswer	Mixed
18.0	1	263.402	0.024	333.175	0.0	0.0	23.9936	4.0	955.0	0.2	Certain	-0.68	0.5	0.0	No		1.1778029445073601				ShowChoice	Mixed
18.0	1	267.414	0.012	337.187	0.0	0.0	23.9936	1.0	955.0	0.2	Certain	-0.68	0.5	0.0	No		1.1778029445073601				ShowResult	Mixed
18.0	1	268.434	0.02	338.207	0.0	0.0	23.9936	6.787	955.0	0.2	Certain	-0.68	0.5	0.0	No		1.1778029445073601				ISITrial	Mixed
19.0	1	275.238	0.017	345.011	2.9	2.0	24.3561	3.0	955.0	0.4	Outcome1	2.9	1.71	0.0	No	2.0	1.19026047565119	1.269	276.507		GetAnswer	Mixed
19.0	1	276.525	0.018	346.298	2.9	2.0	24.3561	4.0	955.0	0.4	Outcome1	2.9	1.71	0.0	No		1.19026047565119				ShowChoice	Mixed
19.0	1	280.537	0.012	350.31	2.9	2.0	24.3561	1.0	955.0	0.4	Outcome1	2.9	1.71	0.0	No		1.19026047565119				ShowResult	Mixed
19.0	1	281.557	0.02	351.33	2.9	2.0	24.3561	2.0	955.0	0.4	Outcome1	2.9	1.71	0.0	No		1.19026047565119				ISITrial	Mixed
20.0	1	283.579	0.022	353.352	3.7	1.25	24.8186	3.0	955.0	1.0	Outcome2	2.5	3.7	2921.25	Yes	2.0	1.20271800679502	1.055	284.634		GetAnswer	Mixed
20.0	1	284.649	0.015	354.422	3.7	1.25	24.8186	4.0	955.0	1.0	Outcome2	2.5	3.7	2921.25	Yes		1.20271800679502				ShowChoice	Mixed
20.0	1	288.661	0.012	358.434	3.7	1.25	24.8186	1.0	955.0	1.0	Outcome2	2.5	3.7	2921.25	Yes		1.20271800679502				ShowResult	Mixed
20.0	1	289.681	0.02	359.454	3.7	1.25	24.8186	8.0	955.0	1.0	Outcome2	2.5	3.7	2921.25	Yes		1.20271800679502				ISITrial	Mixed
20.0	1	300.647	0.021	370.42	3.7	1.25	24.8186	2.114	955.0	1.0	Outcome2	2.5	3.7	2921.25	Yes		1.20271800679502			944.0	TrialHappiness	Mixed
20.0	1	304.659	4.012	374.432	3.7	1.25	24.8186	3.685	955.0	1.0	Outcome2	2.5	3.7	2921.25	Yes		1.20271800679502				ISIRate	Mixed
21.0	1	308.37	0.026	378.143	9.9	4.34	26.0561	3.0	955.0	3.6	Outcome2	8.68	9.9	0.0	No	2.0	1.21517553793885	0.771	309.141		GetAnswer	Gain
21.0	1	309.156	0.015	378.929	9.9	4.34	26.0561	4.0	955.0	3.6	Outcome2	8.68	9.9	0.0	No		1.21517553793885				ShowChoice	Gain
21.0	1	313.168	0.012	382.941	9.9	4.34	26.0561	1.0	955.0	3.6	Outcome2	8.68	9.9	0.0	No		1.21517553793885				ShowResult	Gain
21.0	1	314.187	0.019	383.96	9.9	4.34	26.0561	3.555	955.0	3.6	Outcome2	8.68	9.9	0.0	No		1.21517553793885				ISITrial	Gain
22.0	1	317.765	0.023	387.538	4.77	2.38	26.6524	3.0	955.0	2.0	Outcome1	4.77	4.9	3219.5	Yes	2.0	-0.131370328425821	0.685	318.45		GetAnswer	Gain
22.0	1	318.467	0.017	388.24	4.77	2.38	26.6524	4.0	955.0	2.0	Outcome1	4.77	4.9	3219.5	Yes		-0.131370328425821				ShowChoice	Gain
22.0	1	322.479	0.012	392.252	4.77	2.38	26.6524	1.0	955.0	2.0	Outcome1	4.77	4.9	3219.5	Yes		-0.131370328425821				ShowResult	Gain
22.0	1	323.499	0.02	393.272	4.77	2.38	26.6524	6.793	955.0	2.0	Outcome1	4.77	4.9	3219.5	Yes		-0.131370328425821				ISITrial	Gain
22.0	1	333.562	0.023	403.335	4.77	2.38	26.6524	1.796	955.0	2.0	Outcome1	4.77	4.9	3219.5	Yes		-0.131370328425821			936.0	TrialHappiness	Gain
22.0	1	337.574	4.012	407.347	4.77	2.38	26.6524	4.878	955.0	2.0	Outcome1	4.77	4.9	3219.5	Yes		-0.131370328425821				ISIRate	Gain
23.0	1	342.472	0.02	412.245	9.5	4.06	27.8399	3.0	955.0	2.8	Outcome1	9.5	8.12	0.0	No	2.0	1.3759909399773502	0.907	343.379		GetAnswer	Gain
23.0	1	343.408	0.029	413.181	9.5	4.06	27.8399	4.0	955.0	2.8	Outcome1	9.5	8.12	0.0	No		1.3759909399773502				ShowChoice	Gain
23.0	1	347.42	0.012	417.193	9.5	4.06	27.8399	1.0	955.0	2.8	Outcome1	9.5	8.12	0.0	No		1.3759909399773502				ShowResult	Gain
23.0	1	348.44	0.02	418.213	9.5	4.06	27.8399	8.0	955.0	2.8	Outcome1	9.5	8.12	0.0	No		1.3759909399773502				ISITrial	Gain
24.0	1	356.464	0.024	426.237	6.3	2.45	28.6274	3.0	955.0	5.0	Outcome1	6.3	4.9	3255.0	Yes	2.0	1.39750849377124	0.879	357.343		GetAnswer	Gain
24.0	1	357.366	0.023	427.139	6.3	2.45	28.6274	4.0	955.0	5.0	Outcome1	6.3	4.9	3255.0	Yes		1.39750849377124				ShowChoice	Gain
24.0	1	361.378	0.012	431.151	6.3	2.45	28.6274	1.0	955.0	5.0	Outcome1	6.3	4.9	3255.0	Yes		1.39750849377124				ShowResult	Gain
24.0	1	362.398	0.02	432.171	6.3	2.45	28.6274	2.0	955.0	5.0	Outcome1	6.3	4.9	3255.0	Yes		1.39750849377124				ISITrial	Gain
24.0	1	367.697	0.021	437.47	6.3	2.45	28.6274	3.284	955.0	5.0	Outcome1	6.3	4.9	3255.0	Yes		1.39750849377124			928.0	TrialHappiness	Gain
24.0	1	371.726	4.029	441.499	6.3	2.45	28.6274	5.02	955.0	5.0	Outcome1	6.3	4.9	3255.0	Yes		1.39750849377124				ISIRate	Gain
25.0	1	376.774	0.028	446.547	5.5	1.98	29.3149	3.0	955.0	2.8	Outcome1	5.5	3.95	0.0	No	2.0	1.55492638731597	0.985	377.759		GetAnswer	Gain
25.0	1	377.777	0.018	447.55	5.5	1.98	29.3149	4.0	955.0	2.8	Outcome1	5.5	3.95	0.0	No		1.55492638731597				ShowChoice	Gain
25.0	1	381.789	0.012	451.562	5.5	1.98	29.3149	1.0	955.0	2.8	Outcome1	5.5	3.95	0.0	No		1.55492638731597				ShowResult	Gain
25.0	1	382.809	0.02	452.582	5.5	1.98	29.3149	3.749	955.0	2.8	Outcome1	5.5	3.95	0.0	No		1.55492638731597				ISITrial	Gain
26.0	1	386.587	0.029	456.36	3.5	2.0	29.7524	3.0	955.0	0.82	Outcome2	1.91	3.5	0.0	No	2.0	1.5855039637599098	1.106	387.693		GetAnswer	Mixed
26.0	1	387.724	0.031	457.497	3.5	2.0	29.7524	4.0	955.0	0.82	Outcome2	1.91	3.5	0.0	No		1.5855039637599098				ShowChoice	Mixed
26.0	1	391.752	0.028	461.525	3.5	2.0	29.7524	1.0	955.0	0.82	Outcome2	1.91	3.5	0.0	No		1.5855039637599098				ShowResult	Mixed
26.0	1	392.772	0.02	462.545	3.5	2.0	29.7524	7.834	955.0	0.82	Outcome2	1.91	3.5	0.0	No		1.5855039637599098				ISITrial	Mixed
27.0	1	400.629	0.023	470.402	11.3	4.84	31.1649	3.0	955.0	2.48	Outcome1	11.3	9.68	2549.75	Yes	2.0	1.61608154020385	0.893	401.522		GetAnswer	Loss
27.0	1	401.548	0.026	471.321	11.3	4.84	31.1649	4.0	955.0	2.48	Outcome1	11.3	9.68	2549.75	Yes		1.61608154020385				ShowChoice	Loss
27.0	1	405.56	0.012	475.333	11.3	4.84	31.1649	1.0	955.0	2.48	Outcome1	11.3	9.68	2549.75	Yes		1.61608154020385				ShowResult	Loss
27.0	1	406.58	0.02	476.353	11.3	4.84	31.1649	4.225	955.0	2.48	Outcome1	11.3	9.68	2549.75	Yes		1.61608154020385				ISITrial	Loss
27.0	1	413.4	0.024	483.173	11.3	4.84	31.1649	1.427	955.0	2.48	Outcome1	11.3	9.68	2549.75	Yes		1.61608154020385			936.0	TrialHappiness	Loss
27.0	1	417.412	4.012	487.185	11.3	4.84	31.1649	2.199	955.0	2.48	Outcome1	11.3	9.68	2549.75	Yes		1.61608154020385				ISIRate	Loss
	1	419.636	0.025	489.409				-0.001								{SPACE}		44.254	463.89		Rest	
	1	463.918	0.028	533.691				4.0													BlockHappyPreview	
	1	467.93	0.012	537.703				2.46												940.0	BlockStartHappiness	
	1	473.914	0.024	543.687				-0.001								5.0		2.604	476.518		ScanWait	
	2	0.021	0.021	546.312				10.0													GetReady	
28.0	2	10.034	0.013	556.325	-15.3	-8.0	29.2524	3.0	70.0	0.82	Outcome2	-0.5	-15.3	0.0	No	2.0	-14.7959183673469	2.589	12.623		GetAnswer	Mixed
28.0	2	12.642	0.019	558.933	-15.3	-8.0	29.2524	4.0	70.0	0.82	Outcome2	-0.5	-15.3	0.0	No		-14.7959183673469				ShowChoice	Mixed
28.0	2	16.654	0.012	562.945	-15.3	-8.0	29.2524	1.0	70.0	0.82	Outcome2	-0.5	-15.3	0.0	No		-14.7959183673469				ShowResult	Mixed
28.0	2	17.674	0.02	563.965	-15.3	-8.0	29.2524	3.575	70.0	0.82	Outcome2	-0.5	-15.3	0.0	No		-14.7959183673469				ISITrial	Mixed
29.0	2	21.268	0.019	567.559	0.0	0.0	29.2524	3.0	70.0	4.2	Certain	-2.1	1.52	3529.0	Yes	4.0	3.61678004535147	1.035	22.303		GetAnswer	Gain
29.0	2	22.321	0.018	568.612	0.0	0.0	29.2524	4.0	70.0	4.2	Certain	-2.1	1.52	3529.0	Yes		3.61678004535147				ShowChoice	Gain
29.0	2	26.333	0.012	572.624	0.0	0.0	29.2524	1.0	70.0	4.2	Certain	-2.1	1.52	3529.0	Yes		3.61678004535147				ShowResult	Gain
29.0	2	27.353	0.02	573.644	0.0	0.0	29.2524	3.955	70.0	4.2	Certain	-2.1	1.52	3529.0	Yes		3.61678004535147				ISITrial	Gain
29.0	2	34.875	0.015	581.166	0.0	0.0	29.2524	1.919	70.0	4.2	Certain	-2.1	1.52	3529.0	Yes		3.61678004535147			736.0	TrialHappiness	Gain
29.0	2	38.887	4.012	585.178	0.0	0.0	29.2524	6.116	70.0	4.2	Certain	-2.1	1.52	3529.0	Yes		3.61678004535147				ISIRate	Gain
30.0	2	45.022	0.019	591.313	0.0	0.0	29.2524	3.0	70.0	2.22	Certain	-1.6	1.27	0.0	No	4.0	2.8701814058956896	1.557	46.579		GetAnswer	Gain
30.0	2	46.593	0.014	592.884	0.0	0.0	29.2524	4.0	70.0	2.22	Certain	-1.6	1.27	0.0	No		2.8701814058956896				ShowChoice	Gain
30.0	2	50.605	0.012	596.896	0.0	0.0	29.2524	1.0	70.0	2.22	Certain	-1.6	1.27	0.0	No		2.8701814058956896				ShowResult	Gain
30.0	2	51.625	0.02	597.916	0.0	0.0	29.2524	4.453	70.0	2.22	Certain	-1.6	1.27	0.0	No		2.8701814058956896				ISITrial	Gain
31.0	2	56.105	0.027	602.396	-11.95	-5.0	27.7586	3.0	70.0	1.5	Outcome2	2.1	-11.95	2503.25	Yes	2.0	-14.054421768707499	1.331	57.436		GetAnswer	Mixed
31.0	2	57.459	0.023	603.75	-11.95	-5.0	27.7586	4.0	70.0	1.5	Outcome2	2.1	-11.95	2503.25	Yes		-14.054421768707499				ShowChoice	Mixed
31.0	2	61.471	0.012	607.762	-11.95	-5.0	27.7586	1.0	70.0	1.5	Outcome2	2.1	-11.95	2503.25	Yes		-14.054421768707499				ShowResult	Mixed
31.0	2	62.491	0.02	608.782	-11.95	-5.0	27.7586	4.786	70.0	1.5	Outcome2	2.1	-11.95	2503.25	Yes		-14.054421768707499				ISITrial	Mixed
31.0	2	69.813	0.021	616.104	-11.95	-5.0	27.7586	3.809	70.0	1.5	Outcome2	2.1	-11.95	2503.25	Yes		-14.054421768707499			664.0	TrialHappiness	Mixed
31.0	2	73.841	4.028	620.132	-11.95	-5.0	27.7586	2.013	70.0	1.5	Outcome2	2.1	-11.95	2503.25	Yes		-14.054421768707499				ISIRate	Mixed
32.0	2	75.881	0.027	622.172	2.0	2.0	28.0086	3.0	70.0	2.22	Certain	-4.49	9.1	0.0	No	4.0	-13.585034013605402	1.003	76.884		GetAnswer	Gain
32.0	2	76.901	0.017	623.192	2.0	2.0	28.0086	4.0	70.0	2.22	Certain	-4.49	9.1	0.0	No		-13.585034013605402				ShowChoice	Gain
32.0	2	80.913	0.012	627.204	2.0	2.0	28.0086	1.0	70.0	2.22	Certain	-4.49	9.1	0.0	No		-13.585034013605402				ShowResult	Gain
32.0	2	81.932	0.019	628.223	2.0	2.0	28.0086	2.0	70.0	2.22	Certain	-4.49	9.1	0.0	No		-13.585034013605402				ISITrial	Gain
33.0	2	83.955	0.023	630.246	-14.56	-7.0	26.1886	3.0	70.0	1.0	Outcome1	-14.56	-0.3	0.0	No	2.0	-14.2585034013605	2.482	86.437		GetAnswer	Mixed
33.0	2	86.462	0.025	632.753	-14.56	-7.0	26.1886	4.0	70.0	1.0	Outcome1	-14.56	-0.3	0.0	No		-14.2585034013605				ShowChoice	Mixed
33.0	2	90.474	0.012	636.765	-14.56	-7.0	26.1886	1.0	70.0	1.0	Outcome1	-14.56	-0.3	0.0	No		-14.2585034013605				ShowResult	Mixed
33.0	2	91.494	0.02	637.785	-14.56	-7.0	26.1886	5.099	70.0	1.0	Outcome1	-14.56	-0.3	0.0	No		-14.2585034013605				ISITrial	Mixed
34.0	2	96.609	0.016	642.9	-9.63	-2.0	24.9848	3.0	70.0	2.48	Outcome1	-9.63	5.3	3231.5	Yes	2.0	-14.931972789115601	1.252	97.861		GetAnswer	Gain
34.0	2	97.88	0.019	644.171	-9.63	-2.0	24.9848	4.0	70.0	2.48	Outcome1	-9.63	5.3	3231.5	Yes		-14.931972789115601				ShowChoice	Gain
34.0	2	101.892	0.012	648.183	-9.63	-2.0	24.9848	1.0	70.0	2.48	Outcome1	-9.63	5.3	3231.5	Yes		-14.931972789115601				ShowResult	Gain
34.0	2	102.912	0.02	649.203	-9.63	-2.0	24.9848	4.784	70.0	2.48	Outcome1	-9.63	5.3	3231.5	Yes		-14.931972789115601				ISITrial	Gain
34.0	2	110.969	0.028	657.26	-9.63	-2.0	24.9848	1.701	70.0	2.48	Outcome1	-9.63	5.3	3231.5	Yes		-14.931972789115601			476.0	TrialHappiness	Gain
34.0	2	114.981	4.012	661.272	-9.63	-2.0	24.9848	4.926	70.0	2.48	Outcome1	-9.63	5.3	3231.5	Yes		-14.931972789115601				ISIRate	Gain
35.0	2	119.929	0.022	666.22	-7.91	-1.0	23.996	3.0	70.0	1.68	Outcome1	-7.91	4.5	0.0	No	2.0	-12.408163265306099	0.899	120.828		GetAnswer	Gain
35.0	2	120.849	0.021	667.14	-7.91	-1.0	23.996	4.0	70.0	1.68	Outcome1	-7.91	4.5	0.0	No		-12.408163265306099				ShowChoice	Gain
35.0	2	124.861	0.012	671.152	-7.91	-1.0	23.996	1.0	70.0	1.68	Outcome1	-7.91	4.5	0.0	No		-12.408163265306099				ShowResult	Gain
35.0	2	125.88	0.019	672.171	-7.91	-1.0	23.996	2.098	70.0	1.68	Outcome1	-7.91	4.5	0.0	No		-12.408163265306099				ISITrial	Gain
36.0	2	128.003	0.025	674.294	-1.17	-0.58	23.8497	3.0	70.0	3.16	Outcome1	-1.17	11.7	3335.75	Yes	2.0	-12.8684807256236	1.216	129.219		GetAnswer	Loss
36.0	2	129.24	0.021	675.531	-1.17	-0.58	23.8497	4.0	70.0	3.16	Outcome1	-1.17	11.7	3335.75	Yes		-12.8684807256236				ShowChoice	Loss
36.0	2	133.252	0.012	679.543	-1.17	-0.58	23.8497	1.0	70.0	3.16	Outcome1	-1.17	11.7	3335.75	Yes		-12.8684807256236				ShowResult	Loss
36.0	2	134.272	0.02	680.563	-1.17	-0.58	23.8497	5.156	70.0	3.16	Outcome1	-1.17	11.7	3335.75	Yes		-12.8684807256236				ISITrial	Loss
36.0	2	142.814	0.024	689.105	-1.17	-0.58	23.8497	1.401	70.0	3.16	Outcome1	-1.17	11.7	3335.75	Yes		-12.8684807256236			420.0	TrialHappiness	Loss
36.0	2	146.826	4.012	693.117	-1.17	-0.58	23.8497	5.343	70.0	3.16	Outcome1	-1.17	11.7	3335.75	Yes		-12.8684807256236				ISIRate	Loss
37.0	2	152.192	0.023	698.483	1.0	1.0	23.9747	3.0	70.0	2.48	Certain	7.3	-5.08	0.0	No	4.0	-12.3764172335601	1.01	153.202		GetAnswer	Gain
37.0	2	153.229	0.027	699.52	1.0	1.0	23.9747	4.0	70.0	2.48	Certain	7.3	-5.08	0.0	No		-12.3764172335601				ShowChoice	Gain
37.0	2	157.241	0.012	703.532	1.0	1.0	23.9747	1.0	70.0	2.48	Certain	7.3	-5.08	0.0	No		-12.3764172335601				ShowResult	Gain
37.0	2	158.26	0.019	704.551	1.0	1.0	23.9747	3.598	70.0	2.48	Certain	7.3	-5.08	0.0	No		-12.3764172335601				ISITrial	Gain
38.0	2	161.888	0.03	708.179	1.0	1.0	24.0997	3.0	70.0	3.6	Certain	-0.01	1.98	0.0	No	4.0	1.9903628117913799	1.137	163.025		GetAnswer	Gain
38.0	2	163.041	0.016	709.332	1.0	1.0	24.0997	4.0	70.0	3.6	Certain	-0.01	1.98	0.0	No		1.9903628117913799				ShowChoice	Gain
38.0	2	167.053	0.012	713.344	1.0	1.0	24.0997	1.0	70.0	3.6	Certain	-0.01	1.98	0.0	No		1.9903628117913799				ShowResult	Gain
38.0	2	168.073	0.02	714.364	1.0	1.0	24.0997	4.787	70.0	3.6	Certain	-0.01	1.98	0.0	No		1.9903628117913799				ISITrial	Gain
39.0	2	172.887	0.027	719.178	-1.27	-0.64	23.9409	3.0	70.0	3.6	Outcome2	11.9	-1.27	2864.25	Yes	2.0	-13.1700680272109	1.481	174.368		GetAnswer	Loss
39.0	2	174.392	0.024	720.683	-1.27	-0.64	23.9409	4.0	70.0	3.6	Outcome2	11.9	-1.27	2864.25	Yes		-13.1700680272109				ShowChoice	Loss
39.0	2	178.404	0.012	724.695	-1.27	-0.64	23.9409	1.0	70.0	3.6	Outcome2	11.9	-1.27	2864.25	Yes		-13.1700680272109				ShowResult	Loss
39.0	2	179.423	0.019	725.714	-1.27	-0.64	23.9409	2.348	70.0	3.6	Outcome2	11.9	-1.27	2864.25	Yes		-13.1700680272109				ISITrial	Loss
39.0	2	184.689	0.028	730.98	-1.27	-0.64	23.9409	1.529	70.0	3.6	Outcome2	11.9	-1.27	2864.25	Yes	4{-4}4{-4}	-13.1700680272109	1.529	186.218	408.0	TrialHappiness	Loss
39.0	2	188.701	4.012	734.992	-1.27	-0.64	23.9409	3.457	70.0	3.6	Outcome2	11.9	-1.27	2864.25	Yes		-13.1700680272109				ISIRate	Loss
40.0	2	192.178	0.02	738.469	-7.46	-1.0	23.0084	3.0	70.0	3.6	Outcome2	5.9	-7.46	0.0	No	2.0	-13.3628117913832	0.773	192.951		GetAnswer	Gain
40.0	2	192.964	0.013	739.255	-7.46	-1.0	23.0084	4.0	70.0	3.6	Outcome2	5.9	-7.46	0.0	No		-13.3628117913832				ShowChoice	Gain
40.0	2	196.976	0.012	743.267	-7.46	-1.0	23.0084	1.0	70.0	3.6	Outcome2	5.9	-7.46	0.0	No		-13.3628117913832				ShowResult	Gain
40.0	2	197.996	0.02	744.287	-7.46	-1.0	23.0084	3.158	70.0	3.6	Outcome2	5.9	-7.46	0.0	No		-13.3628117913832				ISITrial	Gain
41.0	2	201.172	0.018	747.463	0.0	0.0	23.0084	3.0	70.0	1.2	Certain	0.98	-1.06	4000.0	Yes	4.0	2.03968253968254	1.437	202.609		GetAnswer	Mixed
41.0	2	202.626	0.017	748.917	0.0	0.0	23.0084	4.0	70.0	1.2	Certain	0.98	-1.06	4000.0	Yes		2.03968253968254				ShowChoice	Mixed
41.0	2	206.638	0.012	752.929	0.0	0.0	23.0084	1.0	70.0	1.2	Certain	0.98	-1.06	4000.0	Yes		2.03968253968254				ShowResult	Mixed
41.0	2	207.658	0.02	753.949	0.0	0.0	23.0084	4.506	70.0	1.2	Certain	0.98	-1.06	4000.0	Yes		2.03968253968254				ISITrial	Mixed
41.0	2	216.217	0.029	762.508	0.0	0.0	23.0084	0.927	70.0	1.2	Certain	0.98	-1.06	4000.0	Yes		2.03968253968254			408.0	TrialHappiness	Mixed
41.0	2	220.229	4.012	766.52	0.0	0.0	23.0084	8.0	70.0	1.2	Certain	0.98	-1.06	4000.0	Yes		2.03968253968254				ISIRate	Mixed
42.0	2	228.253	0.024	774.544	-0.83	-0.42	22.9046	3.0	70.0	2.48	Outcome2	13.3	-0.83	0.0	No	2.0	-14.129251700680301	1.607	229.86		GetAnswer	Loss
42.0	2	229.874	0.014	776.165	-0.83	-0.42	22.9046	4.0	70.0	2.48	Outcome2	13.3	-0.83	0.0	No		-14.129251700680301				ShowChoice	Loss
42.0	2	233.886	0.012	780.177	-0.83	-0.42	22.9046	1.0	70.0	2.48	Outcome2	13.3	-0.83	0.0	No		-14.129251700680301				ShowResult	Loss
42.0	2	234.906	0.02	781.197	-0.83	-0.42	22.9046	6.248	70.0	2.48	Outcome2	13.3	-0.83	0.0	No		-14.129251700680301				ISITrial	Loss
43.0	2	241.175	0.021	787.466	-0.81	-0.4	22.8033	3.0	70.0	3.16	Outcome1	-0.81	13.7	2775.75	Yes	2.0	-14.5124716553288	0.679	241.854		GetAnswer	Loss
43.0	2	241.877	0.022	788.168	-0.81	-0.4	22.8033	4.0	70.0	3.16	Outcome1	-0.81	13.7	2775.75	Yes		-14.5124716553288				ShowChoice	Loss
43.0	2	245.889	0.012	792.18	-0.81	-0.4	22.8033	1.0	70.0	3.16	Outcome1	-0.81	13.7	2775.75	Yes		-14.5124716553288				ShowResult	Loss
43.0	2	246.908	0.019	793.199	-0.81	-0.4	22.8033	4.596	70.0	3.16	Outcome1	-0.81	13.7	2775.75	Yes		-14.5124716553288				ISITrial	Loss
43.0	2	254.314	0.016	800.605	-0.81	-0.4	22.8033	1.663	70.0	3.16	Outcome1	-0.81	13.7	2775.75	Yes	4{-4}4{-4}	-14.5124716553288	1.663	255.977	240.0	TrialHappiness	Loss
43.0	2	258.326	4.012	804.617	-0.81	-0.4	22.8033	3.103	70.0	3.16	Outcome1	-0.81	13.7	2775.75	Yes		-14.5124716553288				ISIRate	Loss
44.0	2	261.452	0.023	807.743	2.33	1.0	23.0945	3.0	70.0	2.48	Outcome2	0.88	2.33	0.0	No	2.0	1.45294784580499	0.895	262.347		GetAnswer	Gain
44.0	2	262.371	0.024	808.662	2.33	1.0	23.0945	4.0	70.0	2.48	Outcome2	0.88	2.33	0.0	No		1.45294784580499				ShowChoice	Gain
44.0	2	266.383	0.012	812.674	2.33	1.0	23.0945	1.0	70.0	2.48	Outcome2	0.88	2.33	0.0	No		1.45294784580499				ShowResult	Gain
44.0	2	267.403	0.02	813.694	2.33	1.0	23.0945	2.42	70.0	2.48	Outcome2	0.88	2.33	0.0	No		1.45294784580499				ISITrial	Gain
45.0	2	269.844	0.021	816.135	2.78	2.0	23.441999999999997	3.0	70.0	2.22	Outcome2	1.31	2.78	0.0	No	2.0	1.4690098261526798	1.655	271.499		GetAnswer	Loss
45.0	2	271.515	0.016	817.806	2.78	2.0	23.441999999999997	4.0	70.0	2.22	Outcome2	1.31	2.78	0.0	No		1.4690098261526798				ShowChoice	Loss
45.0	2	275.527	0.012	821.818	2.78	2.0	23.441999999999997	1.0	70.0	2.22	Outcome2	1.31	2.78	0.0	No		1.4690098261526798				ShowResult	Loss
45.0	2	276.547	0.02	822.838	2.78	2.0	23.441999999999997	3.144	70.0	2.22	Outcome2	1.31	2.78	0.0	No		1.4690098261526798				ISITrial	Loss
46.0	2	279.723	0.032	826.014	1.78	1.0	23.6645	3.0	70.0	2.22	Outcome1	1.78	0.29	3841.25	Yes	2.0	1.4850718065003798	1.063	280.786		GetAnswer	Gain
46.0	2	280.81	0.024	827.101	1.78	1.0	23.6645	4.0	70.0	2.22	Outcome1	1.78	0.29	3841.25	Yes		1.4850718065003798				ShowChoice	Gain
46.0	2	284.822	0.012	831.113	1.78	1.0	23.6645	1.0	70.0	2.22	Outcome1	1.78	0.29	3841.25	Yes		1.4850718065003798				ShowResult	Gain
46.0	2	285.841	0.019	832.132	1.78	1.0	23.6645	2.246	70.0	2.22	Outcome1	1.78	0.29	3841.25	Yes		1.4850718065003798				ISITrial	Gain
46.0	2	291.96	0.021	838.251	1.78	1.0	23.6645	2.314	70.0	2.22	Outcome1	1.78	0.29	3841.25	Yes		1.4850718065003798			476.0	TrialHappiness	Gain
46.0	2	295.972	4.012	842.263	1.78	1.0	23.6645	7.365	70.0	2.22	Outcome1	1.78	0.29	3841.25	Yes		1.4850718065003798				ISIRate	Gain
47.0	2	303.36	0.023	849.651	-4.33	-2.16	23.1233	3.0	70.0	5.0	Outcome2	12.3	-4.33	0.0	No	2.0	-16.6303854875283	1.73	305.09		GetAnswer	Loss
47.0	2	305.116	0.026	851.407	-4.33	-2.16	23.1233	4.0	70.0	5.0	Outcome2	12.3	-4.33	0.0	No		-16.6303854875283				ShowChoice	Loss
47.0	2	309.127	0.011	855.418	-4.33	-2.16	23.1233	1.0	70.0	5.0	Outcome2	12.3	-4.33	0.0	No		-16.6303854875283				ShowResult	Loss
47.0	2	310.147	0.02	856.438	-4.33	-2.16	23.1233	2.0	70.0	5.0	Outcome2	12.3	-4.33	0.0	No		-16.6303854875283				ISITrial	Loss
48.0	2	312.17	0.023	858.461	-8.99	0.0	21.9995	3.0	70.0	4.2	Outcome1	-8.99	8.1	2831.75	Yes	2.0	-17.0907029478458	1.046	313.216		GetAnswer	Gain
48.0	2	313.24	0.024	859.531	-8.99	0.0	21.9995	4.0	70.0	4.2	Outcome1	-8.99	8.1	2831.75	Yes		-17.0907029478458				ShowChoice	Gain
48.0	2	317.252	0.012	863.543	-8.99	0.0	21.9995	1.0	70.0	4.2	Outcome1	-8.99	8.1	2831.75	Yes		-17.0907029478458				ShowResult	Gain
48.0	2	318.271	0.019	864.562	-8.99	0.0	21.9995	3.692	70.0	4.2	Outcome1	-8.99	8.1	2831.75	Yes		-17.0907029478458				ISITrial	Gain
48.0	2	324.841	0.026	871.132	-8.99	0.0	21.9995	0.708	70.0	4.2	Outcome1	-8.99	8.1	2831.75	Yes		-17.0907029478458			400.0	TrialHappiness	Gain
48.0	2	328.853	4.012	875.144	-8.99	0.0	21.9995	3.327	70.0	4.2	Outcome1	-8.99	8.1	2831.75	Yes		-17.0907029478458				ISIRate	Gain
49.0	2	332.196	0.016	878.487	1.0	1.0	22.1245	3.0	70.0	3.16	Certain	2.42	0.19	0.0	No	4.0	2.2278911564625896	0.902	333.098		GetAnswer	Gain
49.0	2	333.116	0.018	879.407	1.0	1.0	22.1245	4.0	70.0	3.16	Certain	2.42	0.19	0.0	No		2.2278911564625896				ShowChoice	Gain
49.0	2	337.128	0.012	883.419	1.0	1.0	22.1245	1.0	70.0	3.16	Certain	2.42	0.19	0.0	No		2.2278911564625896				ShowResult	Gain
49.0	2	338.147	0.019	884.438	1.0	1.0	22.1245	8.0	70.0	3.16	Certain	2.42	0.19	0.0	No		2.2278911564625896				ISITrial	Gain
50.0	2	346.171	0.024	892.462	-17.33	-9.0	19.9582	3.0	70.0	0.66	Outcome1	-17.33	-0.7	3547.25	Yes	2.0	-16.632653061224502	2.113	348.284		GetAnswer	Mixed
50.0	2	348.311	0.027	894.602	-17.33	-9.0	19.9582	4.0	70.0	0.66	Outcome1	-17.33	-0.7	3547.25	Yes		-16.632653061224502				ShowChoice	Mixed
50.0	2	352.323	0.012	898.614	-17.33	-9.0	19.9582	1.0	70.0	0.66	Outcome1	-17.33	-0.7	3547.25	Yes		-16.632653061224502				ShowResult	Mixed
50.0	2	353.343	0.02	899.634	-17.33	-9.0	19.9582	7.537	70.0	0.66	Outcome1	-17.33	-0.7	3547.25	Yes		-16.632653061224502				ISITrial	Mixed
50.0	2	364.476	0.03	910.767	-17.33	-9.0	19.9582	0.91	70.0	0.66	Outcome1	-17.33	-0.7	3547.25	Yes		-16.632653061224502			192.0	TrialHappiness	Mixed
50.0	2	368.488	4.012	914.779	-17.33	-9.0	19.9582	6.189	70.0	0.66	Outcome1	-17.33	-0.7	3547.25	Yes		-16.632653061224502				ISIRate	Mixed
51.0	2	374.707	0.03	920.998	0.0	0.0	19.9582	3.0	70.0	1.82	Certain	6.7	-6.77	0.0	No	4.0	-13.469387755102	1.028	375.735		GetAnswer	Gain
51.0	2	375.76	0.025	922.051	0.0	0.0	19.9582	4.0	70.0	1.82	Certain	6.7	-6.77	0.0	No		-13.469387755102				ShowChoice	Gain
51.0	2	379.772	0.012	926.063	0.0	0.0	19.9582	1.0	70.0	1.82	Certain	6.7	-6.77	0.0	No		-13.469387755102				ShowResult	Gain
51.0	2	380.792	0.02	927.083	0.0	0.0	19.9582	5.508	70.0	1.82	Certain	6.7	-6.77	0.0	No		-13.469387755102				ISITrial	Gain
52.0	2	386.325	0.025	932.616	-2.11	-1.06	19.6944	3.0	70.0	2.8	Outcome1	-2.11	11.5	0.0	No	2.0	-13.6077097505669	1.812	388.137		GetAnswer	Loss
52.0	2	388.164	0.027	934.455	-2.11	-1.06	19.6944	4.0	70.0	2.8	Outcome1	-2.11	11.5	0.0	No		-13.6077097505669				ShowChoice	Loss
52.0	2	392.176	0.012	938.467	-2.11	-1.06	19.6944	1.0	70.0	2.8	Outcome1	-2.11	11.5	0.0	No		-13.6077097505669				ShowResult	Loss
52.0	2	393.195	0.019	939.486	-2.11	-1.06	19.6944	5.913	70.0	2.8	Outcome1	-2.11	11.5	0.0	No		-13.6077097505669				ISITrial	Loss
53.0	2	399.13	0.022	945.421	3.02	2.0	20.0719	3.0	70.0	4.2	Outcome2	1.55	3.02	2996.75	Yes	2.0	1.46825396825397	1.279	400.409		GetAnswer	Loss
53.0	2	400.434	0.025	946.725	3.02	2.0	20.0719	4.0	70.0	4.2	Outcome2	1.55	3.02	2996.75	Yes		1.46825396825397				ShowChoice	Loss
53.0	2	404.445	0.011	950.736	3.02	2.0	20.0719	1.0	70.0	4.2	Outcome2	1.55	3.02	2996.75	Yes		1.46825396825397				ShowResult	Loss
53.0	2	405.465	0.02	951.756	3.02	2.0	20.0719	3.66	70.0	4.2	Outcome2	1.55	3.02	2996.75	Yes		1.46825396825397				ISITrial	Loss
53.0	2	412.169	0.029	958.46	3.02	2.0	20.0719	0.575	70.0	4.2	Outcome2	1.55	3.02	2996.75	Yes		1.46825396825397			424.0	TrialHappiness	Loss
53.0	2	416.181	4.012	962.472	3.02	2.0	20.0719	3.987	70.0	4.2	Outcome2	1.55	3.02	2996.75	Yes		1.46825396825397				ISIRate	Loss
54.0	2	420.193	0.025	966.484	-1.0	-1.0	19.9469	3.0	70.0	1.2	Certain	-2.44	-0.02	0.0	No	4.0	2.42233560090703	1.27	421.463		GetAnswer	Mixed
54.0	2	421.48	0.017	967.771	-1.0	-1.0	19.9469	4.0	70.0	1.2	Certain	-2.44	-0.02	0.0	No		2.42233560090703				ShowChoice	Mixed
54.0	2	425.492	0.012	971.783	-1.0	-1.0	19.9469	1.0	70.0	1.2	Certain	-2.44	-0.02	0.0	No		2.42233560090703				ShowResult	Mixed
54.0	2	426.511	0.019	972.802	-1.0	-1.0	19.9469	8.0	70.0	1.2	Certain	-2.44	-0.02	0.0	No		2.42233560090703				ISITrial	Mixed
	2	434.535	0.024	980.826				-0.001								{SPACE}		59.08	493.615		Rest	
	2	493.628	0.013	1039.919				4.0													BlockHappyPreview	
	2	497.64	0.012	1043.931				1.579												440.0	BlockStartHappiness	
	2	516.129	0.019	1062.42				-0.001								5.0		4.556	520.685		ScanWait	
	3	0.024	0.024	1067.0				10.0													GetReady	
55.0	3	10.038	0.014	1077.014	0.0	0.0	19.9469	3.0	955.0	1.5	Certain	4.1	-4.65	2533.25	Yes	4.0	8.74858437146093	0.96	10.998		GetAnswer	Mixed
55.0	3	11.024	0.026	1078.0	0.0	0.0	19.9469	4.0	955.0	1.5	Certain	4.1	-4.65	2533.25	Yes		8.74858437146093				ShowChoice	Mixed
55.0	3	15.036	0.012	1082.012	0.0	0.0	19.9469	1.0	955.0	1.5	Certain	4.1	-4.65	2533.25	Yes		8.74858437146093				ShowResult	Mixed
55.0	3	16.056	0.02	1083.032	0.0	0.0	19.9469	7.709	955.0	1.5	Certain	4.1	-4.65	2533.25	Yes		8.74858437146093				ISITrial	Mixed
55.0	3	26.336	0.024	1093.312	0.0	0.0	19.9469	0.725	955.0	1.5	Certain	4.1	-4.65	2533.25	Yes		8.74858437146093			392.0	TrialHappiness	Mixed
55.0	3	30.348	4.012	1097.324	0.0	0.0	19.9469	2.133	955.0	1.5	Certain	4.1	-4.65	2533.25	Yes		8.74858437146093				ISIRate	Mixed
56.0	3	32.505	0.024	1099.481	3.37	1.68	20.3681	3.0	955.0	3.16	Outcome2	5.7	3.37	0.0	No	2.0	-2.3333333333333304	0.582	33.087		GetAnswer	Gain
56.0	3	33.107	0.02	1100.083	3.37	1.68	20.3681	4.0	955.0	3.16	Outcome2	5.7	3.37	0.0	No		-2.3333333333333304				ShowChoice	Gain
56.0	3	37.118	0.011	1104.094	3.37	1.68	20.3681	1.0	955.0	3.16	Outcome2	5.7	3.37	0.0	No		-2.3333333333333304				ShowResult	Gain
56.0	3	38.138	0.02	1105.114	3.37	1.68	20.3681	4.697	955.0	3.16	Outcome2	5.7	3.37	0.0	No		-2.3333333333333304				ISITrial	Gain
57.0	3	42.852	0.017	1109.828	-1.14	-1.14	20.2256	3.0	955.0	1.68	Certain	8.5	-2.28	0.0	No	4.0	10.7848244620612	0.922	43.774		GetAnswer	Gain
57.0	3	43.788	0.014	1110.764	-1.14	-1.14	20.2256	4.0	955.0	1.68	Certain	8.5	-2.28	0.0	No		10.7848244620612				ShowChoice	Gain
57.0	3	47.8	0.012	1114.776	-1.14	-1.14	20.2256	1.0	955.0	1.68	Certain	8.5	-2.28	0.0	No		10.7848244620612				ShowResult	Gain
57.0	3	48.82	0.02	1115.796	-1.14	-1.14	20.2256	4.291	955.0	1.68	Certain	8.5	-2.28	0.0	No		10.7848244620612				ISITrial	Gain
58.0	3	53.133	0.022	1120.109	7.5	2.0	21.1631	3.0	955.0	2.8	Outcome2	-3.92	7.5	3045.75	Yes	2.0	11.4224235560589	0.858	53.991		GetAnswer	Gain
58.0	3	54.002	0.011	1120.978	7.5	2.0	21.1631	4.0	955.0	2.8	Outcome2	-3.92	7.5	3045.75	Yes		11.4224235560589				ShowChoice	Gain
58.0	3	58.014	0.012	1124.99	7.5	2.0	21.1631	1.0	955.0	2.8	Outcome2	-3.92	7.5	3045.75	Yes		11.4224235560589				ShowResult	Gain
58.0	3	59.034	0.02	1126.01	7.5	2.0	21.1631	2.037	955.0	2.8	Outcome2	-3.92	7.5	3045.75	Yes		11.4224235560589				ISITrial	Gain
58.0	3	64.166	0.03	1131.142	7.5	2.0	21.1631	3.92	955.0	2.8	Outcome2	-3.92	7.5	3045.75	Yes		11.4224235560589			464.0	TrialHappiness	Gain
58.0	3	68.178	4.012	1135.154	7.5	2.0	21.1631	4.183	955.0	2.8	Outcome2	-3.92	7.5	3045.75	Yes		11.4224235560589				ISIRate	Gain
59.0	3	72.391	0.03	1139.367	-6.0	-6.0	20.4131	3.0	955.0	0.52	Certain	-11.74	-0.9	0.0	No	4.0	10.836919592299	1.545	73.936		GetAnswer	Mixed
59.0	3	73.962	0.026	1140.938	-6.0	-6.0	20.4131	4.0	955.0	0.52	Certain	-11.74	-0.9	0.0	No		10.836919592299				ShowChoice	Mixed
59.0	3	77.974	0.012	1144.95	-6.0	-6.0	20.4131	1.0	955.0	0.52	Certain	-11.74	-0.9	0.0	No		10.836919592299				ShowResult	Mixed
59.0	3	78.994	0.02	1145.97	-6.0	-6.0	20.4131	5.064	955.0	0.52	Certain	-11.74	-0.9	0.0	No		10.836919592299				ISITrial	Mixed
60.0	3	84.075	0.017	1151.051	0.9	-5.0	20.5256	3.0	955.0	0.4	Outcome2	-10.49	0.9	3562.5	Yes	2.0	11.392978482446198	0.901	84.976		GetAnswer	Mixed
60.0	3	84.995	0.019	1151.971	0.9	-5.0	20.5256	4.0	955.0	0.4	Outcome2	-10.49	0.9	3562.5	Yes		11.392978482446198				ShowChoice	Mixed
60.0	3	89.007	0.012	1155.983	0.9	-5.0	20.5256	1.0	955.0	0.4	Outcome2	-10.49	0.9	3562.5	Yes		11.392978482446198				ShowResult	Mixed
60.0	3	90.026	0.019	1157.002	0.9	-5.0	20.5256	8.0	955.0	0.4	Outcome2	-10.49	0.9	3562.5	Yes		11.392978482446198				ISITrial	Mixed
60.0	3	101.628	0.016	1168.604	0.9	-5.0	20.5256	1.863	955.0	0.4	Outcome2	-10.49	0.9	3562.5	Yes		11.392978482446198			476.0	TrialHappiness	Mixed
60.0	3	105.64	4.012	1172.616	0.9	-5.0	20.5256	6.25	955.0	0.4	Outcome2	-10.49	0.9	3562.5	Yes		11.392978482446198				ISIRate	Mixed
61.0	3	111.909	0.019	1178.885	6.06	3.03	21.2831	3.0	955.0	5.0	Outcome1	6.06	8.3	0.0	No	2.0	-2.24452623631559	0.992	112.901		GetAnswer	Gain
61.0	3	112.928	0.027	1179.904	6.06	3.03	21.2831	4.0	955.0	5.0	Outcome1	6.06	8.3	0.0	No		-2.24452623631559				ShowChoice	Gain
61.0	3	116.94	0.012	1183.916	6.06	3.03	21.2831	1.0	955.0	5.0	Outcome1	6.06	8.3	0.0	No		-2.24452623631559				ShowResult	Gain
61.0	3	117.96	0.02	1184.936	6.06	3.03	21.2831	4.586	955.0	5.0	Outcome1	6.06	8.3	0.0	No		-2.24452623631559				ISITrial	Gain
62.0	3	122.574	0.028	1189.55	6.41	3.2	22.0843	3.0	955.0	1.82	Outcome2	8.7	6.41	3748.75	Yes	2.0	-2.28973197432994	0.914	123.488		GetAnswer	Gain
62.0	3	123.51	0.022	1190.486	6.41	3.2	22.0843	4.0	955.0	1.82	Outcome2	8.7	6.41	3748.75	Yes		-2.28973197432994				ShowChoice	Gain
62.0	3	127.522	0.012	1194.498	6.41	3.2	22.0843	1.0	955.0	1.82	Outcome2	8.7	6.41	3748.75	Yes		-2.28973197432994				ShowResult	Gain
62.0	3	128.542	0.02	1195.518	6.41	3.2	22.0843	5.212	955.0	1.82	Outcome2	8.7	6.41	3748.75	Yes		-2.28973197432994				ISITrial	Gain
62.0	3	137.552	0.029	1204.528	6.41	3.2	22.0843	1.395	955.0	1.82	Outcome2	8.7	6.41	3748.75	Yes		-2.28973197432994			608.0	TrialHappiness	Gain
62.0	3	141.564	4.012	1208.54	6.41	3.2	22.0843	6.995	955.0	1.82	Outcome2	8.7	6.41	3748.75	Yes		-2.28973197432994				ISIRate	Gain
63.0	3	148.585	0.026	1215.561	2.7	-2.0	22.4218	3.0	955.0	0.3	Outcome2	-7.89	2.7	0.0	No	2.0	10.5877689694224	1.157	149.742		GetAnswer	Mixed
63.0	3	149.755	0.013	1216.731	2.7	-2.0	22.4218	4.0	955.0	0.3	Outcome2	-7.89	2.7	0.0	No		10.5877689694224				ShowChoice	Mixed
63.0	3	153.767	0.012	1220.743	2.7	-2.0	22.4218	1.0	955.0	0.3	Outcome2	-7.89	2.7	0.0	No		10.5877689694224				ShowResult	Mixed
63.0	3	154.787	0.02	1221.763	2.7	-2.0	22.4218	5.595	955.0	0.3	Outcome2	-7.89	2.7	0.0	No		10.5877689694224				ISITrial	Mixed
64.0	3	160.403	0.021	1227.379	-5.0	-5.0	21.7968	3.0	955.0	1.5	Certain	0.1	-10.88	0.0	No	4.0	10.980747451868599	1.282	161.685		GetAnswer	Mixed
64.0	3	161.707	0.022	1228.683	-5.0	-5.0	21.7968	4.0	955.0	1.5	Certain	0.1	-10.88	0.0	No		10.980747451868599				ShowChoice	Mixed
64.0	3	165.719	0.012	1232.695	-5.0	-5.0	21.7968	1.0	955.0	1.5	Certain	0.1	-10.88	0.0	No		10.980747451868599				ShowResult	Mixed
64.0	3	166.739	0.02	1233.715	-5.0	-5.0	21.7968	5.47	955.0	1.5	Certain	0.1	-10.88	0.0	No		10.980747451868599				ISITrial	Mixed
65.0	3	172.239	0.03	1239.215	11.64	5.82	23.2518	3.0	955.0	2.8	Outcome1	11.64	13.5	2996.75	Yes	2.0	-1.86476028690072	0.832	173.071		GetAnswer	Loss
65.0	3	173.091	0.02	1240.067	11.64	5.82	23.2518	4.0	955.0	2.8	Outcome1	11.64	13.5	2996.75	Yes		-1.86476028690072				ShowChoice	Loss
65.0	3	177.103	0.012	1244.079	11.64	5.82	23.2518	1.0	955.0	2.8	Outcome1	11.64	13.5	2996.75	Yes		-1.86476028690072				ShowResult	Loss
65.0	3	178.123	0.02	1245.099	11.64	5.82	23.2518	3.344	955.0	2.8	Outcome1	11.64	13.5	2996.75	Yes		-1.86476028690072				ISITrial	Loss
65.0	3	184.509	0.029	1251.485	11.64	5.82	23.2518	0.0	955.0	2.8	Outcome1	11.64	13.5	2996.75	Yes		-1.86476028690072			512.0	TrialHappiness	Loss
65.0	3	188.521	4.012	1255.497	11.64	5.82	23.2518	3.987	955.0	2.8	Outcome1	11.64	13.5	2996.75	Yes		-1.86476028690072				ISIRate	Loss
66.0	3	192.533	0.025	1259.509	10.5	-1.45	24.5643	3.0	955.0	1.68	Outcome1	10.5	-2.9	0.0	No	2.0	13.3975084937712	1.407	193.94		GetAnswer	Loss
66.0	3	193.954	0.014	1260.93	10.5	-1.45	24.5643	4.0	955.0	1.68	Outcome1	10.5	-2.9	0.0	No		13.3975084937712				ShowChoice	Loss
66.0	3	197.966	0.012	1264.942	10.5	-1.45	24.5643	1.0	955.0	1.68	Outcome1	10.5	-2.9	0.0	No		13.3975084937712				ShowResult	Loss
66.0	3	198.985	0.019	1265.961	10.5	-1.45	24.5643	3.959	955.0	1.68	Outcome1	10.5	-2.9	0.0	No		13.3975084937712				ISITrial	Loss
67.0	3	202.964	0.02	1269.94	-2.0	-2.0	24.3143	3.0	955.0	0.2	Certain	-1.5	-3.83	2918.5	Yes	4.0	-2.3288976972442406	1.246	204.21		GetAnswer	Mixed
67.0	3	204.234	0.024	1271.21	-2.0	-2.0	24.3143	4.0	955.0	0.2	Certain	-1.5	-3.83	2918.5	Yes		-2.3288976972442406				ShowChoice	Mixed
67.0	3	208.246	0.012	1275.222	-2.0	-2.0	24.3143	1.0	955.0	0.2	Certain	-1.5	-3.83	2918.5	Yes		-2.3288976972442406				ShowResult	Mixed
67.0	3	209.266	0.02	1276.242	-2.0	-2.0	24.3143	4.199	955.0	0.2	Certain	-1.5	-3.83	2918.5	Yes		-2.3288976972442406				ISITrial	Mixed
67.0	3	216.421	0.024	1283.397	-2.0	-2.0	24.3143	0.0	955.0	0.2	Certain	-1.5	-3.83	2918.5	Yes		-2.3288976972442406			512.0	TrialHappiness	Mixed
67.0	3	220.433	4.012	1287.409	-2.0	-2.0	24.3143	3.674	955.0	0.2	Certain	-1.5	-3.83	2918.5	Yes		-2.3288976972442406				ISIRate	Mixed
68.0	3	224.127	0.02	1291.103	6.5	0.0	25.1268	3.0	955.0	1.68	Outcome2	-7.9	6.5	0.0	No	2.0	14.400906002265	1.061	225.188		GetAnswer	Gain
68.0	3	225.214	0.026	1292.19	6.5	0.0	25.1268	4.0	955.0	1.68	Outcome2	-7.9	6.5	0.0	No		14.400906002265				ShowChoice	Gain
68.0	3	229.226	0.012	1296.202	6.5	0.0	25.1268	1.0	955.0	1.68	Outcome2	-7.9	6.5	0.0	No		14.400906002265				ShowResult	Gain
68.0	3	230.245	0.019	1297.221	6.5	0.0	25.1268	2.185	955.0	1.68	Outcome2	-7.9	6.5	0.0	No		14.400906002265				ISITrial	Gain
69.0	3	232.452	0.022	1299.428	-2.1	-2.1	24.8643	3.0	955.0	1.82	Certain	10.7	-4.2	0.0	No	4.0	14.9026047565119	1.238	233.69		GetAnswer	Loss
69.0	3	233.706	0.016	1300.682	-2.1	-2.1	24.8643	4.0	955.0	1.82	Certain	10.7	-4.2	0.0	No		14.9026047565119				ShowChoice	Loss
69.0	3	237.718	0.012	1304.694	-2.1	-2.1	24.8643	1.0	955.0	1.82	Certain	10.7	-4.2	0.0	No		14.9026047565119				ShowResult	Loss
69.0	3	238.737	0.019	1305.713	-2.1	-2.1	24.8643	2.0	955.0	1.82	Certain	10.7	-4.2	0.0	No		14.9026047565119				ISITrial	Loss
70.0	3	240.76	0.023	1307.736	0.0	0.0	24.8643	3.0	955.0	3.16	Certain	7.7	-7.7	3651.25	Yes	4.0	15.404303510758801	1.028	241.788		GetAnswer	Gain
70.0	3	241.813	0.025	1308.789	0.0	0.0	24.8643	4.0	955.0	3.16	Certain	7.7	-7.7	3651.25	Yes		15.404303510758801				ShowChoice	Gain
70.0	3	245.825	0.012	1312.801	0.0	0.0	24.8643	1.0	955.0	3.16	Certain	7.7	-7.7	3651.25	Yes		15.404303510758801				ShowResult	Gain
70.0	3	246.845	0.02	1313.821	0.0	0.0	24.8643	2.623	955.0	3.16	Certain	7.7	-7.7	3651.25	Yes		15.404303510758801				ISITrial	Gain
70.0	3	253.164	0.027	1320.14	0.0	0.0	24.8643	2.045	955.0	3.16	Certain	7.7	-7.7	3651.25	Yes	4{-4}2{-2}	15.404303510758801	2.045	255.209	512.0	TrialHappiness	Gain
70.0	3	257.176	4.012	1324.152	0.0	0.0	24.8643	6.605	955.0	3.16	Certain	7.7	-7.7	3651.25	Yes		15.404303510758801				ISIRate	Gain
71.0	3	263.812	0.031	1330.788	10.9	-2.5	26.2268	3.0	955.0	2.0	Outcome2	-5.01	10.9	0.0	No	2.0	15.906002265005698	0.874	264.686		GetAnswer	Loss
71.0	3	264.698	0.012	1331.674	10.9	-2.5	26.2268	4.0	955.0	2.0	Outcome2	-5.01	10.9	0.0	No		15.906002265005698				ShowChoice	Loss
71.0	3	268.71	0.012	1335.686	10.9	-2.5	26.2268	1.0	955.0	2.0	Outcome2	-5.01	10.9	0.0	No		15.906002265005698				ShowResult	Loss
71.0	3	269.73	0.02	1336.706	10.9	-2.5	26.2268	5.499	955.0	2.0	Outcome2	-5.01	10.9	0.0	No		15.906002265005698				ISITrial	Loss
72.0	3	275.246	0.017	1342.222	2.3	-6.0	26.5143	3.0	955.0	2.0	Outcome1	2.3	-14.11	3080.5	Yes	2.0	16.4077010192525	1.156	276.402		GetAnswer	Mixed
72.0	3	276.416	0.014	1343.392	2.3	-6.0	26.5143	4.0	955.0	2.0	Outcome1	2.3	-14.11	3080.5	Yes		16.4077010192525				ShowChoice	Mixed
72.0	3	280.428	0.012	1347.404	2.3	-6.0	26.5143	1.0	955.0	2.0	Outcome1	2.3	-14.11	3080.5	Yes		16.4077010192525				ShowResult	Mixed
72.0	3	281.448	0.02	1348.424	2.3	-6.0	26.5143	5.672	955.0	2.0	Outcome1	2.3	-14.11	3080.5	Yes		16.4077010192525				ISITrial	Mixed
72.0	3	290.241	0.029	1357.217	2.3	-6.0	26.5143	0.0	955.0	2.0	Outcome1	2.3	-14.11	3080.5	Yes		16.4077010192525			512.0	TrialHappiness	Mixed
72.0	3	294.253	4.012	1361.229	2.3	-6.0	26.5143	4.322	955.0	2.0	Outcome1	2.3	-14.11	3080.5	Yes		16.4077010192525				ISIRate	Mixed
73.0	3	298.599	0.024	1365.575	-6.0	-6.0	25.7643	3.0	955.0	1.2	Certain	1.9	-15.01	0.0	No	4.0	16.909399773499402	2.095	300.694		GetAnswer	Mixed
73.0	3	300.706	0.012	1367.682	-6.0	-6.0	25.7643	4.0	955.0	1.2	Certain	1.9	-15.01	0.0	No		16.909399773499402				ShowChoice	Mixed
73.0	3	304.718	0.012	1371.694	-6.0	-6.0	25.7643	1.0	955.0	1.2	Certain	1.9	-15.01	0.0	No		16.909399773499402				ShowResult	Mixed
73.0	3	305.737	0.019	1372.713	-6.0	-6.0	25.7643	4.616	955.0	1.2	Certain	1.9	-15.01	0.0	No		16.909399773499402				ISITrial	Mixed
74.0	3	310.385	0.032	1377.361	-3.72	-2.0	25.2993	3.0	955.0	0.4	Outcome2	-1.1	-3.72	3056.25	Yes	2.0	-2.6215553038882597	0.628	311.013		GetAnswer	Mixed
74.0	3	311.037	0.024	1378.013	-3.72	-2.0	25.2993	4.0	955.0	0.4	Outcome2	-1.1	-3.72	3056.25	Yes		-2.6215553038882597				ShowChoice	Mixed
74.0	3	315.049	0.012	1382.025	-3.72	-2.0	25.2993	1.0	955.0	0.4	Outcome2	-1.1	-3.72	3056.25	Yes		-2.6215553038882597				ShowResult	Mixed
74.0	3	316.068	0.019	1383.044	-3.72	-2.0	25.2993	3.909	955.0	0.4	Outcome2	-1.1	-3.72	3056.25	Yes		-2.6215553038882597				ISITrial	Mixed
74.0	3	323.072	0.019	1390.048	-3.72	-2.0	25.2993	0.0	955.0	0.4	Outcome2	-1.1	-3.72	3056.25	Yes		-2.6215553038882597			512.0	TrialHappiness	Mixed
74.0	3	327.084	4.012	1394.06	-3.72	-2.0	25.2993	4.225	955.0	0.4	Outcome2	-1.1	-3.72	3056.25	Yes		-2.6215553038882597				ISIRate	Mixed
75.0	3	331.33	0.021	1398.306	3.3	-5.0	25.7118	3.0	955.0	0.66	Outcome1	3.3	-14.61	0.0	No	2.0	17.9127972819932	0.959	332.289		GetAnswer	Mixed
75.0	3	332.3	0.011	1399.276	3.3	-5.0	25.7118	4.0	955.0	0.66	Outcome1	3.3	-14.61	0.0	No		17.9127972819932				ShowChoice	Mixed
75.0	3	336.312	0.012	1403.288	3.3	-5.0	25.7118	1.0	955.0	0.66	Outcome1	3.3	-14.61	0.0	No		17.9127972819932				ShowResult	Mixed
75.0	3	337.332	0.02	1404.308	3.3	-5.0	25.7118	4.979	955.0	0.66	Outcome1	3.3	-14.61	0.0	No		17.9127972819932				ISITrial	Mixed
76.0	3	342.33	0.019	1409.306	0.0	0.0	25.7118	3.0	955.0	0.52	Certain	-1.61	1.1	0.0	No	4.0	-2.7051717629294103	0.902	343.232		GetAnswer	Mixed
76.0	3	343.249	0.017	1410.225	0.0	0.0	25.7118	4.0	955.0	0.52	Certain	-1.61	1.1	0.0	No		-2.7051717629294103				ShowChoice	Mixed
76.0	3	347.261	0.012	1414.237	0.0	0.0	25.7118	1.0	955.0	0.52	Certain	-1.61	1.1	0.0	No		-2.7051717629294103				ShowResult	Mixed
76.0	3	348.281	0.02	1415.257	0.0	0.0	25.7118	3.931	955.0	0.52	Certain	-1.61	1.1	0.0	No		-2.7051717629294103				ISITrial	Mixed
77.0	3	352.243	0.031	1419.219	1.3	-8.0	25.8743	3.0	955.0	0.66	Outcome2	-17.62	1.3	4000.0	Yes	2.0	18.916194790487	0.872	353.115		GetAnswer	Mixed
77.0	3	353.129	0.014	1420.105	1.3	-8.0	25.8743	4.0	955.0	0.66	Outcome2	-17.62	1.3	4000.0	Yes		18.916194790487				ShowChoice	Mixed
77.0	3	357.141	0.012	1424.117	1.3	-8.0	25.8743	1.0	955.0	0.66	Outcome2	-17.62	1.3	4000.0	Yes		18.916194790487				ShowResult	Mixed
77.0	3	358.161	0.02	1425.137	1.3	-8.0	25.8743	7.022	955.0	0.66	Outcome2	-17.62	1.3	4000.0	Yes		18.916194790487				ISITrial	Mixed
77.0	3	369.227	0.029	1436.203	1.3	-8.0	25.8743	2.237	955.0	0.66	Outcome2	-17.62	1.3	4000.0	Yes		18.916194790487			576.0	TrialHappiness	Mixed
77.0	3	373.239	4.012	1440.215	1.3	-8.0	25.8743	8.0	955.0	0.66	Outcome2	-17.62	1.3	4000.0	Yes		18.916194790487				ISIRate	Mixed
78.0	3	381.263	0.024	1448.239	4.3	-5.0	26.4118	3.0	955.0	2.0	Outcome2	-14.03	4.3	0.0	No	2.0	18.330690826727103	1.885	383.148		GetAnswer	Mixed
78.0	3	383.169	0.021	1450.145	4.3	-5.0	26.4118	4.0	955.0	2.0	Outcome2	-14.03	4.3	0.0	No		18.330690826727103				ShowChoice	Mixed
78.0	3	387.181	0.012	1454.157	4.3	-5.0	26.4118	1.0	955.0	2.0	Outcome2	-14.03	4.3	0.0	No		18.330690826727103				ShowResult	Mixed
78.0	3	388.2	0.019	1455.176	4.3	-5.0	26.4118	2.078	955.0	2.0	Outcome2	-14.03	4.3	0.0	No		18.330690826727103				ISITrial	Mixed
79.0	3	390.307	0.029	1457.283	2.34	1.17	26.7043	3.0	955.0	2.0	Outcome2	4.9	2.34	2729.5	Yes	2.0	-2.5648357870894705	0.823	391.13		GetAnswer	Gain
79.0	3	391.142	0.012	1458.118	2.34	1.17	26.7043	4.0	955.0	2.0	Outcome2	4.9	2.34	2729.5	Yes		-2.5648357870894705				ShowChoice	Gain
79.0	3	395.154	0.012	1462.13	2.34	1.17	26.7043	1.0	955.0	2.0	Outcome2	4.9	2.34	2729.5	Yes		-2.5648357870894705				ShowResult	Gain
79.0	3	396.174	0.02	1463.15	2.34	1.17	26.7043	3.829	955.0	2.0	Outcome2	4.9	2.34	2729.5	Yes		-2.5648357870894705				ISITrial	Gain
79.0	3	402.777	0.028	1469.753	2.34	1.17	26.7043	1.559	955.0	2.0	Outcome2	4.9	2.34	2729.5	Yes		-2.5648357870894705			548.0	TrialHappiness	Gain
79.0	3	406.789	4.012	1473.765	2.34	1.17	26.7043	2.918	955.0	2.0	Outcome2	4.9	2.34	2729.5	Yes		-2.5648357870894705				ISIRate	Gain
80.0	3	409.731	0.024	1476.707	4.39	2.19	27.2531	3.0	955.0	2.22	Outcome1	4.39	7.1	0.0	No	2.0	-2.7142317855794595	0.701	410.432		GetAnswer	Gain
80.0	3	410.45	0.018	1477.426	4.39	2.19	27.2531	4.0	955.0	2.22	Outcome1	4.39	7.1	0.0	No		-2.7142317855794595				ShowChoice	Gain
80.0	3	414.462	0.012	1481.438	4.39	2.19	27.2531	1.0	955.0	2.22	Outcome1	4.39	7.1	0.0	No		-2.7142317855794595				ShowResult	Gain
80.0	3	415.482	0.02	1482.458	4.39	2.19	27.2531	3.336	955.0	2.22	Outcome1	4.39	7.1	0.0	No		-2.7142317855794595				ISITrial	Gain
81.0	3	418.842	0.024	1485.818	11.3	1.0	28.6656	3.0	955.0	2.48	Outcome2	-8.83	11.3	3923.75	Yes	2.0	20.1257078142695	0.72	419.562		GetAnswer	Loss
81.0	3	419.577	0.015	1486.553	11.3	1.0	28.6656	4.0	955.0	2.48	Outcome2	-8.83	11.3	3923.75	Yes		20.1257078142695				ShowChoice	Loss
81.0	3	423.589	0.012	1490.565	11.3	1.0	28.6656	1.0	955.0	2.48	Outcome2	-8.83	11.3	3923.75	Yes		20.1257078142695				ShowResult	Loss
81.0	3	424.609	0.02	1491.585	11.3	1.0	28.6656	3.919	955.0	2.48	Outcome2	-8.83	11.3	3923.75	Yes		20.1257078142695				ISITrial	Loss
81.0	3	432.499	0.021	1499.475	11.3	1.0	28.6656	0.743	955.0	2.48	Outcome2	-8.83	11.3	3923.75	Yes		20.1257078142695			568.0	TrialHappiness	Loss
81.0	3	436.511	4.012	1503.487	11.3	1.0	28.6656	7.695	955.0	2.48	Outcome2	-8.83	11.3	3923.75	Yes		20.1257078142695				ISIRate	Loss
	3	444.234	0.028	1511.21				3.0													CurrentEarnings	
	3	447.26	0.026	1514.236				-0.001								{SPACE}		144.517	591.777		Goodbye	
