trial_number	block	onset	onset_delay	onset_unadjusted	amount_change	certain_amount	current_amount	duration	mood_target	multiplier	outcome	outcome1_amount	outcome2_amount	question_duration	rating	response	rpe	rt	rt_time	slider_response	trial_phase	trial_type
	0	-185.349	0.019	26.981				-0.001								{SPACE}		4.59	-180.759		Welcome	
	0	-180.732	0.027	31.598				5.0													LifeHappyPreview	
	0	-175.7	0.032	36.63				1.026								2{-2}		1.026	-174.674	728.0	LifeHappiness	
	0	-168.612	0.019	43.718				4.0													BlockHappyPreview	
	0	-164.6	0.012	47.73				1.175												736.0	BlockStartHappiness	
	0	-2.564	0.021	209.766				-0.001								5.0					ScanWait	
	1	0.027	0.027	212.357				10.0													GetReady	
1.0	1	10.057	0.03	222.387	1.5	0.0	10.1875	3.0	955.0	0.82	Outcome1	1.5	-2.22	0.0	No	2.0	3.7202718006795	1.766	11.823		GetAnswer	Mixed
1.0	1	11.846	0.023	224.176	1.5	0.0	10.1875	4.0	955.0	0.82	Outcome1	1.5	-2.22	0.0	No		3.7202718006795				ShowChoice	Mixed
1.0	1	15.874	0.028	228.204	1.5	0.0	10.1875	1.0	955.0	0.82	Outcome1	1.5	-2.22	0.0	No		3.7202718006795				ShowResult	Mixed
1.0	1	16.894	0.02	229.224	1.5	0.0	10.1875	2.431	955.0	0.82	Outcome1	1.5	-2.22	0.0	No		3.7202718006795				ISITrial	Mixed
2.0	1	19.352	0.027	231.682	-0.7	-2.0	10.1	3.0	955.0	0.66	Outcome2	-4.67	-0.7	0.0	No	2.0	3.9682899207247995	2.048	21.4		GetAnswer	Mixed
2.0	1	21.424	0.023	233.754	-0.7	-2.0	10.1	4.0	955.0	0.66	Outcome2	-4.67	-0.7	0.0	No		3.9682899207247995				ShowChoice	Mixed
2.0	1	25.453	0.029	237.783	-0.7	-2.0	10.1	1.0	955.0	0.66	Outcome2	-4.67	-0.7	0.0	No		3.9682899207247995				ShowResult	Mixed
2.0	1	26.473	0.02	238.803	-0.7	-2.0	10.1	4.568	955.0	0.66	Outcome2	-4.67	-0.7	0.0	No		3.9682899207247995				ISITrial	Mixed
3.0	1	31.07	0.029	243.4	6.3	1.04	10.8875	3.0	955.0	5.0	Outcome1	6.3	2.08	2868.0	Yes	2.0	4.216308040770101	1.548	32.618		GetAnswer	Gain
3.0	1	32.641	0.023	244.971	6.3	1.04	10.8875	4.0	955.0	5.0	Outcome1	6.3	2.08	2868.0	Yes		4.216308040770101				ShowChoice	Gain
3.0	1	36.67	0.029	249.0	6.3	1.04	10.8875	1.0	955.0	5.0	Outcome1	6.3	2.08	2868.0	Yes		4.216308040770101				ShowResult	Gain
3.0	1	37.69	0.02	250.02	6.3	1.04	10.8875	3.243	955.0	5.0	Outcome1	6.3	2.08	2868.0	Yes		4.216308040770101				ISITrial	Gain
3.0	1	43.842	0.024	256.172	6.3	1.04	10.8875	0.975	955.0	5.0	Outcome1	6.3	2.08	2868.0	Yes		4.216308040770101			728.0	TrialHappiness	Gain
3.0	1	47.87	4.028	260.2	6.3	1.04	10.8875	3.472	955.0	5.0	Outcome1	6.3	2.08	2868.0	Yes		4.216308040770101				ISIRate	Gain
4.0	1	51.364	0.022	263.694	9.3	2.35	12.05	3.0	955.0	2.48	Outcome2	4.7	9.3	0.0	No	2.0	4.60022650056625	1.091	52.455		GetAnswer	Gain
4.0	1	52.484	0.029	264.814	9.3	2.35	12.05	4.0	955.0	2.48	Outcome2	4.7	9.3	0.0	No		4.60022650056625				ShowChoice	Gain
4.0	1	56.496	0.012	268.826	9.3	2.35	12.05	1.0	955.0	2.48	Outcome2	4.7	9.3	0.0	No		4.60022650056625				ShowResult	Gain
4.0	1	57.516	0.02	269.846	9.3	2.35	12.05	2.011	955.0	2.48	Outcome2	4.7	9.3	0.0	No		4.60022650056625				ISITrial	Gain
5.0	1	59.556	0.029	271.886	2.0	2.0	12.3	3.0	955.0	1.82	Certain	-0.16	4.7	2582.5	Yes	4.0	4.85730464326161	2.721	62.277		GetAnswer	Gain
5.0	1	62.297	0.02	274.627	2.0	2.0	12.3	4.0	955.0	1.82	Certain	-0.16	4.7	2582.5	Yes		4.85730464326161				ShowChoice	Gain
5.0	1	66.326	0.029	278.656	2.0	2.0	12.3	1.0	955.0	1.82	Certain	-0.16	4.7	2582.5	Yes		4.85730464326161				ShowResult	Gain
5.0	1	67.346	0.02	279.676	2.0	2.0	12.3	5.129	955.0	1.82	Certain	-0.16	4.7	2582.5	Yes		4.85730464326161				ISITrial	Gain
5.0	1	75.102	0.026	287.432	2.0	2.0	12.3	1.226	955.0	1.82	Certain	-0.16	4.7	2582.5	Yes		4.85730464326161			744.0	TrialHappiness	Gain
5.0	1	79.131	4.029	291.461	2.0	2.0	12.3	2.33	955.0	1.82	Certain	-0.16	4.7	2582.5	Yes		4.85730464326161				ISIRate	Gain
6.0	1	81.488	0.027	293.818	2.34	1.17	12.5925	3.0	955.0	0.66	Outcome1	2.34	3.3	0.0	No	2.0	-0.9611174027935071	0.934	82.422		GetAnswer	Mixed
6.0	1	82.441	0.019	294.771	2.34	1.17	12.5925	4.0	955.0	0.66	Outcome1	2.34	3.3	0.0	No		-0.9611174027935071				ShowChoice	Mixed
6.0	1	86.47	0.029	298.8	2.34	1.17	12.5925	1.0	955.0	0.66	Outcome1	2.34	3.3	0.0	No		-0.9611174027935071				ShowResult	Mixed
6.0	1	87.489	0.019	299.819	2.34	1.17	12.5925	6.232	955.0	0.66	Outcome1	2.34	3.3	0.0	No		-0.9611174027935071				ISITrial	Mixed
7.0	1	93.741	0.02	306.071	1.9	0.0	12.83	3.0	955.0	1.2	Outcome2	-3.18	1.9	0.0	No	2.0	5.081540203850509	1.879	95.62		GetAnswer	Mixed
7.0	1	95.647	0.026	307.977	1.9	0.0	12.83	4.0	955.0	1.2	Outcome2	-3.18	1.9	0.0	No		5.081540203850509				ShowChoice	Mixed
7.0	1	99.676	0.029	312.006	1.9	0.0	12.83	1.0	955.0	1.2	Outcome2	-3.18	1.9	0.0	No		5.081540203850509				ShowResult	Mixed
7.0	1	100.696	0.02	313.026	1.9	0.0	12.83	2.305	955.0	1.2	Outcome2	-3.18	1.9	0.0	No		5.081540203850509				ISITrial	Mixed
8.0	1	103.019	0.018	315.349	10.9	2.79	14.1925	3.0	955.0	2.0	Outcome2	5.58	10.9	3112.5	Yes	2.0	5.32049830124575	0.912	103.931		GetAnswer	Loss
8.0	1	103.955	0.024	316.285	10.9	2.79	14.1925	4.0	955.0	2.0	Outcome2	5.58	10.9	3112.5	Yes		5.32049830124575				ShowChoice	Loss
8.0	1	107.967	0.012	320.297	10.9	2.79	14.1925	1.0	955.0	2.0	Outcome2	5.58	10.9	3112.5	Yes		5.32049830124575				ShowResult	Loss
8.0	1	108.987	0.02	321.317	10.9	2.79	14.1925	3.506	955.0	2.0	Outcome2	5.58	10.9	3112.5	Yes		5.32049830124575				ISITrial	Loss
8.0	1	115.657	0.031	327.987	10.9	2.79	14.1925	1.26	955.0	2.0	Outcome2	5.58	10.9	3112.5	Yes		5.32049830124575			784.0	TrialHappiness	Loss
8.0	1	119.686	4.029	332.016	10.9	2.79	14.1925	4.45	955.0	2.0	Outcome2	5.58	10.9	3112.5	Yes		5.32049830124575				ISIRate	Loss
9.0	1	124.166	0.03	336.496	0.1	-2.0	14.205	3.0	955.0	1.5	Outcome1	0.1	-4.78	0.0	No		4.87995469988675				GetAnswer	Mixed
9.0	1	127.192	0.026	339.522	0.1	-2.0	14.205	4.0	955.0	1.5	Outcome1	0.1	-4.78	0.0	No		4.87995469988675				ShowChoice	Mixed
9.0	1	131.22	0.028	343.55	0.1	-2.0	14.205	1.0	955.0	1.5	Outcome1	0.1	-4.78	0.0	No		4.87995469988675				ShowResult	Mixed
9.0	1	132.24	0.02	344.57	0.1	-2.0	14.205	2.0	955.0	1.5	Outcome1	0.1	-4.78	0.0	No		4.87995469988675				ISITrial	Mixed
10.0	1	134.263	0.023	346.593	12.7	3.82	15.7925	3.0	955.0	1.82	Outcome1	12.7	7.63	4000.0	Yes	2.0	5.07361268403171	1.354	135.617		GetAnswer	Loss
10.0	1	135.634	0.017	347.964	12.7	3.82	15.7925	4.0	955.0	1.82	Outcome1	12.7	7.63	4000.0	Yes		5.07361268403171				ShowChoice	Loss
10.0	1	139.662	0.028	351.992	12.7	3.82	15.7925	1.0	955.0	1.82	Outcome1	12.7	7.63	4000.0	Yes		5.07361268403171				ShowResult	Loss
10.0	1	140.682	0.02	353.012	12.7	3.82	15.7925	2.0	955.0	1.82	Outcome1	12.7	7.63	4000.0	Yes		5.07361268403171				ISITrial	Loss
10.0	1	146.734	0.029	359.064	12.7	3.82	15.7925	1.879	955.0	1.82	Outcome1	12.7	7.63	4000.0	Yes		5.07361268403171			768.0	TrialHappiness	Loss
10.0	1	150.762	4.028	363.092	12.7	3.82	15.7925	8.0	955.0	1.82	Outcome1	12.7	7.63	4000.0	Yes		5.07361268403171				ISIRate	Loss
11.0	1	158.787	0.025	371.117	2.1	0.0	16.055	3.0	955.0	1.5	Outcome1	2.1	-3.44	0.0	No	2.0	5.53907134767837	1.723	160.51		GetAnswer	Mixed
11.0	1	160.525	0.015	372.855	2.1	0.0	16.055	4.0	955.0	1.5	Outcome1	2.1	-3.44	0.0	No		5.53907134767837				ShowChoice	Mixed
11.0	1	164.537	0.012	376.867	2.1	0.0	16.055	1.0	955.0	1.5	Outcome1	2.1	-3.44	0.0	No		5.53907134767837				ShowResult	Mixed
11.0	1	165.557	0.02	377.887	2.1	0.0	16.055	3.324	955.0	1.5	Outcome1	2.1	-3.44	0.0	No		5.53907134767837				ISITrial	Mixed
12.0	1	168.9	0.019	381.23	13.9	4.08	17.7925	3.0	955.0	3.6	Outcome2	8.15	13.9	2618.75	Yes	2.0	5.750849377123441	0.991	169.891		GetAnswer	Loss
12.0	1	169.92	0.028	382.25	13.9	4.08	17.7925	4.0	955.0	3.6	Outcome2	8.15	13.9	2618.75	Yes		5.750849377123441				ShowChoice	Loss
12.0	1	173.949	0.029	386.279	13.9	4.08	17.7925	1.0	955.0	3.6	Outcome2	8.15	13.9	2618.75	Yes		5.750849377123441				ShowResult	Loss
12.0	1	174.968	0.019	387.298	13.9	4.08	17.7925	6.642	955.0	3.6	Outcome2	8.15	13.9	2618.75	Yes		5.750849377123441				ISITrial	Loss
12.0	1	184.28	0.023	396.61	13.9	4.08	17.7925	1.309	955.0	3.6	Outcome2	8.15	13.9	2618.75	Yes	2{-2}	5.750849377123441	1.309	185.589	840.0	TrialHappiness	Loss
12.0	1	188.308	4.028	400.638	13.9	4.08	17.7925	2.475	955.0	3.6	Outcome2	8.15	13.9	2618.75	Yes		5.750849377123441				ISIRate	Loss
13.0	1	190.816	0.033	403.146	10.3	2.78	19.08	3.0	955.0	5.0	Outcome2	5.56	10.3	0.0	No	2.0	4.73952434881087	0.817	191.633		GetAnswer	Gain
13.0	1	191.652	0.019	403.982	10.3	2.78	19.08	4.0	955.0	5.0	Outcome2	5.56	10.3	0.0	No		4.73952434881087				ShowChoice	Gain
13.0	1	195.681	0.029	408.011	10.3	2.78	19.08	1.0	955.0	5.0	Outcome2	5.56	10.3	0.0	No		4.73952434881087				ShowResult	Gain
13.0	1	196.7	0.019	409.03	10.3	2.78	19.08	3.48	955.0	5.0	Outcome2	5.56	10.3	0.0	No		4.73952434881087				ISITrial	Gain
14.0	1	200.211	0.031	412.541	2.79	1.4	19.4288	3.0	955.0	0.82	Outcome1	2.79	3.5	0.0	No	2.0	-0.7097017742544359	1.369	201.58		GetAnswer	Mixed
14.0	1	201.598	0.018	413.928	2.79	1.4	19.4288	4.0	955.0	0.82	Outcome1	2.79	3.5	0.0	No		-0.7097017742544359				ShowChoice	Mixed
14.0	1	205.61	0.012	417.94	2.79	1.4	19.4288	1.0	955.0	0.82	Outcome1	2.79	3.5	0.0	No		-0.7097017742544359				ShowResult	Mixed
14.0	1	206.63	0.02	418.96	2.79	1.4	19.4288	5.019	955.0	0.82	Outcome1	2.79	3.5	0.0	No		-0.7097017742544359				ISITrial	Mixed
15.0	1	211.679	0.03	424.009	2.38	2.0	19.7263	3.0	955.0	0.52	Outcome2	3.1	2.38	3348.5	Yes	2.0	-0.720554926387316	1.463	213.142		GetAnswer	Mixed
15.0	1	213.166	0.024	425.496	2.38	2.0	19.7263	4.0	955.0	0.52	Outcome2	3.1	2.38	3348.5	Yes		-0.720554926387316				ShowChoice	Mixed
15.0	1	217.195	0.029	429.525	2.38	2.0	19.7263	1.0	955.0	0.52	Outcome2	3.1	2.38	3348.5	Yes		-0.720554926387316				ShowResult	Mixed
15.0	1	218.215	0.02	430.545	2.38	2.0	19.7263	7.614	955.0	0.52	Outcome2	3.1	2.38	3348.5	Yes		-0.720554926387316				ISITrial	Mixed
15.0	1	229.231	0.029	441.561	2.38	2.0	19.7263	3.718	955.0	0.52	Outcome2	3.1	2.38	3348.5	Yes		-0.720554926387316			896.0	TrialHappiness	Mixed
15.0	1	233.26	4.029	445.59	2.38	2.0	19.7263	5.394	955.0	0.52	Outcome2	3.1	2.38	3348.5	Yes		-0.720554926387316				ISIRate	Mixed
16.0	1	238.676	0.022	451.006	6.5	1.16	20.5388	3.0	955.0	1.68	Outcome2	2.32	6.5	0.0	No	2.0	4.1789354473386195	0.964	239.64		GetAnswer	Gain
16.0	1	239.662	0.022	451.992	6.5	1.16	20.5388	4.0	955.0	1.68	Outcome2	2.32	6.5	0.0	No		4.1789354473386195				ShowChoice	Gain
16.0	1	243.691	0.029	456.021	6.5	1.16	20.5388	1.0	955.0	1.68	Outcome2	2.32	6.5	0.0	No		4.1789354473386195				ShowResult	Gain
16.0	1	244.711	0.02	457.041	6.5	1.16	20.5388	3.008	955.0	1.68	Outcome2	2.32	6.5	0.0	No		4.1789354473386195				ISITrial	Gain
17.0	1	247.753	0.034	460.083	9.9	2.82	21.7763	3.0	955.0	3.6	Outcome1	9.9	5.65	3041.5	Yes	2.0	4.24575311438279	0.644	248.397		GetAnswer	Gain
17.0	1	248.422	0.024	460.752	9.9	2.82	21.7763	4.0	955.0	3.6	Outcome1	9.9	5.65	3041.5	Yes		4.24575311438279				ShowChoice	Gain
17.0	1	252.434	0.012	464.764	9.9	2.82	21.7763	1.0	955.0	3.6	Outcome1	9.9	5.65	3041.5	Yes		4.24575311438279				ShowResult	Gain
17.0	1	253.454	0.02	465.784	9.9	2.82	21.7763	3.566	955.0	3.6	Outcome1	9.9	5.65	3041.5	Yes		4.24575311438279				ISITrial	Gain
17.0	1	260.107	0.017	472.437	9.9	2.82	21.7763	1.78	955.0	3.6	Outcome1	9.9	5.65	3041.5	Yes		4.24575311438279			744.0	TrialHappiness	Gain
17.0	1	264.136	4.029	476.466	9.9	2.82	21.7763	4.166	955.0	3.6	Outcome1	9.9	5.65	3041.5	Yes		4.24575311438279				ISIRate	Gain
18.0	1	268.332	0.03	480.662	12.9	3.0	23.3888	3.0	955.0	2.0	Outcome2	6.01	12.9	0.0	No	2.0	6.894677236693091	0.873	269.205		GetAnswer	Loss
18.0	1	269.235	0.03	481.565	12.9	3.0	23.3888	4.0	955.0	2.0	Outcome2	6.01	12.9	0.0	No		6.894677236693091				ShowChoice	Loss
18.0	1	273.263	0.028	485.593	12.9	3.0	23.3888	1.0	955.0	2.0	Outcome2	6.01	12.9	0.0	No		6.894677236693091				ShowResult	Loss
18.0	1	274.283	0.02	486.613	12.9	3.0	23.3888	6.787	955.0	2.0	Outcome2	6.01	12.9	0.0	No		6.894677236693091				ISITrial	Loss
19.0	1	281.103	0.033	493.433	7.5	0.18	24.3263	3.0	955.0	2.8	Outcome2	0.37	7.5	0.0	No	2.0	7.13363533408834	0.687	281.79		GetAnswer	Gain
19.0	1	281.806	0.016	494.136	7.5	0.18	24.3263	4.0	955.0	2.8	Outcome2	0.37	7.5	0.0	No		7.13363533408834				ShowChoice	Gain
19.0	1	285.834	0.028	498.164	7.5	0.18	24.3263	1.0	955.0	2.8	Outcome2	0.37	7.5	0.0	No		7.13363533408834				ShowResult	Gain
19.0	1	286.854	0.02	499.184	7.5	0.18	24.3263	2.0	955.0	2.8	Outcome2	0.37	7.5	0.0	No		7.13363533408834				ISITrial	Gain
20.0	1	288.877	0.023	501.207	2.53	1.26	24.6426	3.0	955.0	1.0	Outcome1	2.53	3.7	2921.25	Yes	2.0	-1.1719516798792	1.073	289.95		GetAnswer	Mixed
20.0	1	289.98	0.03	502.31	2.53	1.26	24.6426	4.0	955.0	1.0	Outcome1	2.53	3.7	2921.25	Yes		-1.1719516798792				ShowChoice	Mixed
20.0	1	293.992	0.012	506.322	2.53	1.26	24.6426	1.0	955.0	1.0	Outcome1	2.53	3.7	2921.25	Yes		-1.1719516798792				ShowResult	Mixed
20.0	1	295.012	0.02	507.342	2.53	1.26	24.6426	8.0	955.0	1.0	Outcome1	2.53	3.7	2921.25	Yes		-1.1719516798792				ISITrial	Mixed
20.0	1	305.978	0.021	518.308	2.53	1.26	24.6426	1.31	955.0	1.0	Outcome1	2.53	3.7	2921.25	Yes		-1.1719516798792			704.0	TrialHappiness	Mixed
20.0	1	309.99	4.012	522.32	2.53	1.26	24.6426	3.685	955.0	1.0	Outcome1	2.53	3.7	2921.25	Yes		-1.1719516798792				ISIRate	Mixed
21.0	1	313.701	0.026	526.031	-1.1	-5.0	24.5051	3.0	955.0	0.4	Outcome2	-9.39	-1.1	0.0	No	2.0	8.29105322763307	1.556	315.257		GetAnswer	Mixed
21.0	1	315.273	0.016	527.603	-1.1	-5.0	24.5051	4.0	955.0	0.4	Outcome2	-9.39	-1.1	0.0	No		8.29105322763307				ShowChoice	Mixed
21.0	1	319.285	0.012	531.615	-1.1	-5.0	24.5051	1.0	955.0	0.4	Outcome2	-9.39	-1.1	0.0	No		8.29105322763307				ShowResult	Mixed
21.0	1	320.304	0.019	532.634	-1.1	-5.0	24.5051	3.555	955.0	0.4	Outcome2	-9.39	-1.1	0.0	No		8.29105322763307				ISITrial	Mixed
22.0	1	323.882	0.023	536.212	11.1	1.26	25.8926	3.0	955.0	2.22	Outcome2	2.52	11.1	3219.5	Yes	2.0	8.57531143827859	0.968	324.85		GetAnswer	Loss
22.0	1	324.868	0.018	537.198	11.1	1.26	25.8926	4.0	955.0	2.22	Outcome2	2.52	11.1	3219.5	Yes		8.57531143827859				ShowChoice	Loss
22.0	1	328.88	0.012	541.21	11.1	1.26	25.8926	1.0	955.0	2.22	Outcome2	2.52	11.1	3219.5	Yes		8.57531143827859				ShowResult	Loss
22.0	1	329.9	0.02	542.23	11.1	1.26	25.8926	6.793	955.0	2.22	Outcome2	2.52	11.1	3219.5	Yes		8.57531143827859				ISITrial	Loss
22.0	1	339.963	0.023	552.293	11.1	1.26	25.8926	1.729	955.0	2.22	Outcome2	2.52	11.1	3219.5	Yes		8.57531143827859			736.0	TrialHappiness	Loss
22.0	1	343.975	4.012	556.305	11.1	1.26	25.8926	4.878	955.0	2.22	Outcome2	2.52	11.1	3219.5	Yes		8.57531143827859				ISIRate	Loss
23.0	1	348.873	0.02	561.203	12.3	1.99	27.4301	3.0	955.0	5.0	Outcome2	3.98	12.3	0.0	No	2.0	8.31596828992073	0.864	349.737		GetAnswer	Loss
23.0	1	349.759	0.022	562.089	12.3	1.99	27.4301	4.0	955.0	5.0	Outcome2	3.98	12.3	0.0	No		8.31596828992073				ShowChoice	Loss
23.0	1	353.771	0.012	566.101	12.3	1.99	27.4301	1.0	955.0	5.0	Outcome2	3.98	12.3	0.0	No		8.31596828992073				ShowResult	Loss
23.0	1	354.791	0.02	567.121	12.3	1.99	27.4301	8.0	955.0	5.0	Outcome2	3.98	12.3	0.0	No		8.31596828992073				ISITrial	Loss
24.0	1	362.815	0.024	575.145	8.1	-0.23	28.4426	3.0	955.0	4.2	Outcome2	-0.46	8.1	3255.0	Yes	2.0	8.56398640996602	1.337	364.152		GetAnswer	Gain
24.0	1	364.169	0.017	576.499	8.1	-0.23	28.4426	4.0	955.0	4.2	Outcome2	-0.46	8.1	3255.0	Yes		8.56398640996602				ShowChoice	Gain
24.0	1	368.181	0.012	580.511	8.1	-0.23	28.4426	1.0	955.0	4.2	Outcome2	-0.46	8.1	3255.0	Yes		8.56398640996602				ShowResult	Gain
24.0	1	369.201	0.02	581.531	8.1	-0.23	28.4426	2.0	955.0	4.2	Outcome2	-0.46	8.1	3255.0	Yes		8.56398640996602				ISITrial	Gain
24.0	1	374.5	0.021	586.83	8.1	-0.23	28.4426	3.718	955.0	4.2	Outcome2	-0.46	8.1	3255.0	Yes		8.56398640996602			792.0	TrialHappiness	Gain
24.0	1	378.529	4.029	590.859	8.1	-0.23	28.4426	5.02	955.0	4.2	Outcome2	-0.46	8.1	3255.0	Yes		8.56398640996602				ISIRate	Gain
25.0	1	383.578	0.029	595.908	1.1	-3.0	28.5801	3.0	955.0	0.52	Outcome2	-6.76	1.1	0.0	No	2.0	7.86070215175538	1.252	384.83		GetAnswer	Mixed
25.0	1	384.848	0.018	597.178	1.1	-3.0	28.5801	4.0	955.0	0.52	Outcome2	-6.76	1.1	0.0	No		7.86070215175538				ShowChoice	Mixed
25.0	1	388.86	0.012	601.19	1.1	-3.0	28.5801	1.0	955.0	0.52	Outcome2	-6.76	1.1	0.0	No		7.86070215175538				ShowResult	Mixed
25.0	1	389.88	0.02	602.21	1.1	-3.0	28.5801	3.749	955.0	0.52	Outcome2	-6.76	1.1	0.0	No		7.86070215175538				ISITrial	Mixed
26.0	1	393.658	0.029	605.988	12.2	6.1	30.1051	3.0	955.0	2.48	Outcome1	12.2	13.3	0.0	No	2.0	-1.10117025292563	0.969	394.627		GetAnswer	Loss
26.0	1	394.644	0.016	606.974	12.2	6.1	30.1051	4.0	955.0	2.48	Outcome1	12.2	13.3	0.0	No		-1.10117025292563				ShowChoice	Loss
26.0	1	398.656	0.012	610.986	12.2	6.1	30.1051	1.0	955.0	2.48	Outcome1	12.2	13.3	0.0	No		-1.10117025292563				ShowResult	Loss
26.0	1	399.676	0.02	612.006	12.2	6.1	30.1051	7.834	955.0	2.48	Outcome1	12.2	13.3	0.0	No		-1.10117025292563				ISITrial	Loss
27.0	1	407.533	0.023	619.863	-1.42	-1.0	29.9276	3.0	955.0	1.0	Outcome2	-0.3	-1.42	2549.75	Yes	2.0	-1.11655341638354	2.093	409.626		GetAnswer	Mixed
27.0	1	409.639	0.013	621.969	-1.42	-1.0	29.9276	4.0	955.0	1.0	Outcome2	-0.3	-1.42	2549.75	Yes		-1.11655341638354				ShowChoice	Mixed
27.0	1	413.651	0.012	625.981	-1.42	-1.0	29.9276	1.0	955.0	1.0	Outcome2	-0.3	-1.42	2549.75	Yes		-1.11655341638354				ShowResult	Mixed
27.0	1	414.671	0.02	627.001	-1.42	-1.0	29.9276	4.225	955.0	1.0	Outcome2	-0.3	-1.42	2549.75	Yes		-1.11655341638354				ISITrial	Mixed
27.0	1	421.491	0.024	633.821	-1.42	-1.0	29.9276	1.243	955.0	1.0	Outcome2	-0.3	-1.42	2549.75	Yes		-1.11655341638354			712.0	TrialHappiness	Mixed
27.0	1	425.503	4.012	637.833	-1.42	-1.0	29.9276	2.199	955.0	1.0	Outcome2	-0.3	-1.42	2549.75	Yes		-1.11655341638354				ISIRate	Mixed
	1	427.727	0.025	640.057				-0.001								{SPACE}		98.113	525.84		Rest	
	1	525.854	0.014	738.184				4.0													BlockHappyPreview	
	1	529.866	0.012	742.196				2.03												744.0	BlockStartHappiness	
	1	541.1	0.012	753.43				-0.001								5.0		3.241	544.341		ScanWait	
	2	0.019	0.019	756.69				10.0													GetReady	
28.0	2	10.032	0.013	766.703	1.92	0.0	30.1676	3.0	70.0	3.16	Outcome1	1.92	-0.82	0.0	No	2.0	2.7382842025699197	1.632	11.664		GetAnswer	Gain
28.0	2	11.687	0.023	768.358	1.92	0.0	30.1676	4.0	70.0	3.16	Outcome1	1.92	-0.82	0.0	No		2.7382842025699197				ShowChoice	Gain
28.0	2	15.699	0.012	772.37	1.92	0.0	30.1676	1.0	70.0	3.16	Outcome1	1.92	-0.82	0.0	No		2.7382842025699197				ShowResult	Gain
28.0	2	16.719	0.02	773.39	1.92	0.0	30.1676	3.575	70.0	3.16	Outcome1	1.92	-0.82	0.0	No		2.7382842025699197				ISITrial	Gain
29.0	2	20.313	0.019	776.984	-3.13	-1.56	29.7763	3.0	70.0	2.22	Outcome1	-3.13	9.1	3529.0	Yes	2.0	-12.226757369614502	1.796	22.109		GetAnswer	Gain
29.0	2	22.135	0.026	778.806	-3.13	-1.56	29.7763	4.0	70.0	2.22	Outcome1	-3.13	9.1	3529.0	Yes		-12.226757369614502				ShowChoice	Gain
29.0	2	26.147	0.012	782.818	-3.13	-1.56	29.7763	1.0	70.0	2.22	Outcome1	-3.13	9.1	3529.0	Yes		-12.226757369614502				ShowResult	Gain
29.0	2	27.167	0.02	783.838	-3.13	-1.56	29.7763	3.955	70.0	2.22	Outcome1	-3.13	9.1	3529.0	Yes		-12.226757369614502				ISITrial	Gain
29.0	2	34.69	0.015	791.361	-3.13	-1.56	29.7763	1.175	70.0	2.22	Outcome1	-3.13	9.1	3529.0	Yes		-12.226757369614502			704.0	TrialHappiness	Gain
29.0	2	38.702	4.012	795.373	-3.13	-1.56	29.7763	6.116	70.0	2.22	Outcome1	-3.13	9.1	3529.0	Yes		-12.226757369614502				ISIRate	Gain
30.0	2	44.837	0.019	801.508	-8.41	-2.0	28.7251	3.0	70.0	1.2	Outcome1	-8.41	3.9	0.0	No	2.0	-12.3106575963719	1.548	46.385		GetAnswer	Mixed
30.0	2	46.408	0.023	803.079	-8.41	-2.0	28.7251	4.0	70.0	1.2	Outcome1	-8.41	3.9	0.0	No		-12.3106575963719				ShowChoice	Mixed
30.0	2	50.42	0.012	807.091	-8.41	-2.0	28.7251	1.0	70.0	1.2	Outcome1	-8.41	3.9	0.0	No		-12.3106575963719				ShowResult	Mixed
30.0	2	51.44	0.02	808.111	-8.41	-2.0	28.7251	4.453	70.0	1.2	Outcome1	-8.41	3.9	0.0	No		-12.3106575963719				ISITrial	Mixed
31.0	2	55.92	0.027	812.591	0.07	0.04	28.7339	3.0	70.0	2.22	Outcome2	13.1	0.07	2503.25	Yes	2.0	-13.029478458049901	1.207	57.127		GetAnswer	Loss
31.0	2	57.14	0.013	813.811	0.07	0.04	28.7339	4.0	70.0	2.22	Outcome2	13.1	0.07	2503.25	Yes		-13.029478458049901				ShowChoice	Loss
31.0	2	61.152	0.012	817.823	0.07	0.04	28.7339	1.0	70.0	2.22	Outcome2	13.1	0.07	2503.25	Yes		-13.029478458049901				ShowResult	Loss
31.0	2	62.172	0.02	818.843	0.07	0.04	28.7339	4.786	70.0	2.22	Outcome2	13.1	0.07	2503.25	Yes		-13.029478458049901				ISITrial	Loss
31.0	2	69.494	0.021	826.165	0.07	0.04	28.7339	2.364	70.0	2.22	Outcome2	13.1	0.07	2503.25	Yes		-13.029478458049901			544.0	TrialHappiness	Loss
31.0	2	73.506	4.012	830.177	0.07	0.04	28.7339	2.013	70.0	2.22	Outcome2	13.1	0.07	2503.25	Yes		-13.029478458049901				ISIRate	Loss
32.0	2	75.545	0.026	832.216	-3.93	1.0	28.2427	3.0	70.0	2.22	Outcome1	-3.93	7.1	0.0	No	2.0	-11.0272108843537	1.396	76.941		GetAnswer	Gain
32.0	2	76.966	0.025	833.637	-3.93	1.0	28.2427	4.0	70.0	2.22	Outcome1	-3.93	7.1	0.0	No		-11.0272108843537				ShowChoice	Gain
32.0	2	80.978	0.012	837.649	-3.93	1.0	28.2427	1.0	70.0	2.22	Outcome1	-3.93	7.1	0.0	No		-11.0272108843537				ShowResult	Gain
32.0	2	81.998	0.02	838.669	-3.93	1.0	28.2427	2.0	70.0	2.22	Outcome1	-3.93	7.1	0.0	No		-11.0272108843537				ISITrial	Gain
33.0	2	84.021	0.023	840.692	-12.46	-6.0	26.6852	3.0	70.0	0.52	Outcome1	-12.46	-0.9	0.0	No	2.0	-11.5646258503401	1.506	85.527		GetAnswer	Mixed
33.0	2	85.542	0.015	842.213	-12.46	-6.0	26.6852	4.0	70.0	0.52	Outcome1	-12.46	-0.9	0.0	No		-11.5646258503401				ShowChoice	Mixed
33.0	2	89.554	0.012	846.225	-12.46	-6.0	26.6852	1.0	70.0	0.52	Outcome1	-12.46	-0.9	0.0	No		-11.5646258503401				ShowResult	Mixed
33.0	2	90.574	0.02	847.245	-12.46	-6.0	26.6852	5.099	70.0	0.52	Outcome1	-12.46	-0.9	0.0	No		-11.5646258503401				ISITrial	Mixed
34.0	2	95.689	0.016	852.36	-6.4	0.0	25.8852	3.0	70.0	3.16	Outcome1	-6.4	5.7	3231.5	Yes	2.0	-12.102040816326499	1.249	96.938		GetAnswer	Gain
34.0	2	96.96	0.022	853.631	-6.4	0.0	25.8852	4.0	70.0	3.16	Outcome1	-6.4	5.7	3231.5	Yes		-12.102040816326499				ShowChoice	Gain
34.0	2	100.972	0.012	857.643	-6.4	0.0	25.8852	1.0	70.0	3.16	Outcome1	-6.4	5.7	3231.5	Yes		-12.102040816326499				ShowResult	Gain
34.0	2	101.991	0.019	858.662	-6.4	0.0	25.8852	4.784	70.0	3.16	Outcome1	-6.4	5.7	3231.5	Yes		-12.102040816326499				ISITrial	Gain
34.0	2	110.049	0.028	866.72	-6.4	0.0	25.8852	0.909	70.0	3.16	Outcome1	-6.4	5.7	3231.5	Yes		-12.102040816326499			616.0	TrialHappiness	Gain
34.0	2	114.061	4.012	870.732	-6.4	0.0	25.8852	4.926	70.0	3.16	Outcome1	-6.4	5.7	3231.5	Yes		-12.102040816326499				ISIRate	Gain
35.0	2	119.009	0.022	875.68	-0.36	-0.18	25.8402	3.0	70.0	2.8	Outcome2	13.5	-0.36	0.0	No	2.0	-13.863945578231302	0.99	119.999		GetAnswer	Loss
35.0	2	120.012	0.013	876.683	-0.36	-0.18	25.8402	4.0	70.0	2.8	Outcome2	13.5	-0.36	0.0	No		-13.863945578231302				ShowChoice	Loss
35.0	2	124.041	0.029	880.712	-0.36	-0.18	25.8402	1.0	70.0	2.8	Outcome2	13.5	-0.36	0.0	No		-13.863945578231302				ShowResult	Loss
35.0	2	125.061	0.02	881.732	-0.36	-0.18	25.8402	2.098	70.0	2.8	Outcome2	13.5	-0.36	0.0	No		-13.863945578231302				ISITrial	Loss
36.0	2	127.184	0.025	883.855	-2.58	-1.29	25.5177	3.0	70.0	3.6	Outcome2	11.9	-2.58	3335.75	Yes	2.0	-14.4829931972789	1.425	128.609		GetAnswer	Loss
36.0	2	128.621	0.012	885.292	-2.58	-1.29	25.5177	4.0	70.0	3.6	Outcome2	11.9	-2.58	3335.75	Yes		-14.4829931972789				ShowChoice	Loss
36.0	2	132.633	0.012	889.304	-2.58	-1.29	25.5177	1.0	70.0	3.6	Outcome2	11.9	-2.58	3335.75	Yes		-14.4829931972789				ShowResult	Loss
36.0	2	133.653	0.02	890.324	-2.58	-1.29	25.5177	5.156	70.0	3.6	Outcome2	11.9	-2.58	3335.75	Yes		-14.4829931972789				ISITrial	Loss
36.0	2	142.195	0.024	898.866	-2.58	-1.29	25.5177	1.778	70.0	3.6	Outcome2	11.9	-2.58	3335.75	Yes		-14.4829931972789			656.0	TrialHappiness	Loss
36.0	2	146.207	4.012	902.878	-2.58	-1.29	25.5177	5.343	70.0	3.6	Outcome2	11.9	-2.58	3335.75	Yes		-14.4829931972789				ISIRate	Loss
37.0	2	151.573	0.023	908.244	-5.08	-2.54	24.8827	3.0	70.0	1.82	Outcome1	-5.08	10.7	0.0	No	2.0	-15.7823129251701	1.309	152.882		GetAnswer	Loss
37.0	2	152.894	0.011	909.565	-5.08	-2.54	24.8827	4.0	70.0	1.82	Outcome1	-5.08	10.7	0.0	No		-15.7823129251701				ShowChoice	Loss
37.0	2	156.906	0.012	913.577	-5.08	-2.54	24.8827	1.0	70.0	1.82	Outcome1	-5.08	10.7	0.0	No		-15.7823129251701				ShowResult	Loss
37.0	2	157.926	0.02	914.597	-5.08	-2.54	24.8827	3.598	70.0	1.82	Outcome1	-5.08	10.7	0.0	No		-15.7823129251701				ISITrial	Loss
38.0	2	161.553	0.029	918.224	-4.35	-2.17	24.3389	3.0	70.0	4.2	Outcome2	12.1	-4.35	0.0	No	2.0	-16.446712018140598	0.986	162.539		GetAnswer	Loss
38.0	2	162.556	0.017	919.227	-4.35	-2.17	24.3389	4.0	70.0	4.2	Outcome2	12.1	-4.35	0.0	No		-16.446712018140598				ShowChoice	Loss
38.0	2	166.568	0.012	923.239	-4.35	-2.17	24.3389	1.0	70.0	4.2	Outcome2	12.1	-4.35	0.0	No		-16.446712018140598				ShowResult	Loss
38.0	2	167.588	0.02	924.259	-4.35	-2.17	24.3389	4.787	70.0	4.2	Outcome2	12.1	-4.35	0.0	No		-16.446712018140598				ISITrial	Loss
39.0	2	172.403	0.028	929.074	-5.81	2.0	23.6126	3.0	70.0	2.48	Outcome2	11.3	-5.81	2864.25	Yes	2.0	-17.1111111111111	0.925	173.328		GetAnswer	Loss
39.0	2	173.355	0.027	930.026	-5.81	2.0	23.6126	4.0	70.0	2.48	Outcome2	11.3	-5.81	2864.25	Yes		-17.1111111111111				ShowChoice	Loss
39.0	2	177.368	0.013	934.039	-5.81	2.0	23.6126	1.0	70.0	2.48	Outcome2	11.3	-5.81	2864.25	Yes		-17.1111111111111				ShowResult	Loss
39.0	2	178.387	0.019	935.058	-5.81	2.0	23.6126	2.348	70.0	2.48	Outcome2	11.3	-5.81	2864.25	Yes		-17.1111111111111				ISITrial	Loss
39.0	2	183.653	0.028	940.324	-5.81	2.0	23.6126	1.193	70.0	2.48	Outcome2	11.3	-5.81	2864.25	Yes		-17.1111111111111			704.0	TrialHappiness	Loss
39.0	2	187.665	4.012	944.336	-5.81	2.0	23.6126	3.457	70.0	2.48	Outcome2	11.3	-5.81	2864.25	Yes		-17.1111111111111				ISIRate	Loss
40.0	2	191.142	0.02	947.813	1.08	0.0	23.7476	3.0	70.0	2.0	Outcome2	-2.15	1.08	0.0	No	2.0	3.22656840513983	1.725	192.867		GetAnswer	Mixed
40.0	2	192.881	0.014	949.552	1.08	0.0	23.7476	4.0	70.0	2.0	Outcome2	-2.15	1.08	0.0	No		3.22656840513983				ShowChoice	Mixed
40.0	2	196.893	0.012	953.564	1.08	0.0	23.7476	1.0	70.0	2.0	Outcome2	-2.15	1.08	0.0	No		3.22656840513983				ShowResult	Mixed
40.0	2	197.912	0.019	954.583	1.08	0.0	23.7476	3.158	70.0	2.0	Outcome2	-2.15	1.08	0.0	No		3.22656840513983				ISITrial	Mixed
41.0	2	201.089	0.019	957.76	1.82	0.0	23.9751	3.0	70.0	2.48	Outcome1	1.82	-1.47	4000.0	Yes	2.0	3.2864701436129997	0.768	201.857		GetAnswer	Gain
41.0	2	201.874	0.017	958.545	1.82	0.0	23.9751	4.0	70.0	2.48	Outcome1	1.82	-1.47	4000.0	Yes		3.2864701436129997				ShowChoice	Gain
41.0	2	205.886	0.012	962.557	1.82	0.0	23.9751	1.0	70.0	2.48	Outcome1	1.82	-1.47	4000.0	Yes		3.2864701436129997				ShowResult	Gain
41.0	2	206.906	0.02	963.577	1.82	0.0	23.9751	4.506	70.0	2.48	Outcome1	1.82	-1.47	4000.0	Yes		3.2864701436129997				ISITrial	Gain
41.0	2	215.465	0.029	972.136	1.82	0.0	23.9751	2.866	70.0	2.48	Outcome1	1.82	-1.47	4000.0	Yes		3.2864701436129997			640.0	TrialHappiness	Gain
41.0	2	219.477	4.012	976.148	1.82	0.0	23.9751	8.0	70.0	2.48	Outcome1	1.82	-1.47	4000.0	Yes		3.2864701436129997				ISIRate	Gain
42.0	2	227.501	0.024	984.172	-16.64	-7.0	21.8951	3.0	70.0	2.0	Outcome1	-16.64	2.3	0.0	No	2.0	-18.941043083900198	1.507	229.008		GetAnswer	Mixed
42.0	2	229.022	0.014	985.693	-16.64	-7.0	21.8951	4.0	70.0	2.0	Outcome1	-16.64	2.3	0.0	No		-18.941043083900198				ShowChoice	Mixed
42.0	2	233.034	0.012	989.705	-16.64	-7.0	21.8951	1.0	70.0	2.0	Outcome1	-16.64	2.3	0.0	No		-18.941043083900198				ShowResult	Mixed
42.0	2	234.054	0.02	990.725	-16.64	-7.0	21.8951	6.248	70.0	2.0	Outcome1	-16.64	2.3	0.0	No		-18.941043083900198				ISITrial	Mixed
43.0	2	240.323	0.021	996.994	-17.89	-8.0	19.6589	3.0	70.0	1.0	Outcome2	1.7	-17.89	2775.75	Yes	2.0	-19.587301587301603	1.711	242.034		GetAnswer	Mixed
43.0	2	242.062	0.028	998.733	-17.89	-8.0	19.6589	4.0	70.0	1.0	Outcome2	1.7	-17.89	2775.75	Yes		-19.587301587301603				ShowChoice	Mixed
43.0	2	246.074	0.012	1002.745	-17.89	-8.0	19.6589	1.0	70.0	1.0	Outcome2	1.7	-17.89	2775.75	Yes		-19.587301587301603				ShowResult	Mixed
43.0	2	247.093	0.019	1003.764	-17.89	-8.0	19.6589	4.596	70.0	1.0	Outcome2	1.7	-17.89	2775.75	Yes		-19.587301587301603				ISITrial	Mixed
43.0	2	254.499	0.016	1011.17	-17.89	-8.0	19.6589	2.764	70.0	1.0	Outcome2	1.7	-17.89	2775.75	Yes		-19.587301587301603			664.0	TrialHappiness	Mixed
43.0	2	258.511	4.012	1015.182	-17.89	-8.0	19.6589	3.103	70.0	1.0	Outcome2	1.7	-17.89	2775.75	Yes		-19.587301587301603				ISIRate	Mixed
44.0	2	261.637	0.023	1018.308	-1.0	-1.0	19.5339	3.0	70.0	1.82	Certain	-11.94	8.7	0.0	No	4.0	-20.641723356009102	1.5	263.137		GetAnswer	Gain
44.0	2	263.158	0.021	1019.829	-1.0	-1.0	19.5339	4.0	70.0	1.82	Certain	-11.94	8.7	0.0	No		-20.641723356009102				ShowChoice	Gain
44.0	2	267.17	0.012	1023.841	-1.0	-1.0	19.5339	1.0	70.0	1.82	Certain	-11.94	8.7	0.0	No		-20.641723356009102				ShowResult	Gain
44.0	2	268.19	0.02	1024.861	-1.0	-1.0	19.5339	2.42	70.0	1.82	Certain	-11.94	8.7	0.0	No		-20.641723356009102				ISITrial	Gain
45.0	2	270.631	0.021	1027.302	-11.62	-1.0	18.0814	3.0	70.0	3.16	Outcome1	-11.62	9.7	0.0	No	2.0	-21.3151927437642	2.432	273.063		GetAnswer	Gain
45.0	2	273.088	0.025	1029.759	-11.62	-1.0	18.0814	4.0	70.0	3.16	Outcome1	-11.62	9.7	0.0	No		-21.3151927437642				ShowChoice	Gain
45.0	2	277.1	0.012	1033.771	-11.62	-1.0	18.0814	1.0	70.0	3.16	Outcome1	-11.62	9.7	0.0	No		-21.3151927437642				ShowResult	Gain
45.0	2	278.12	0.02	1034.791	-11.62	-1.0	18.0814	3.144	70.0	3.16	Outcome1	-11.62	9.7	0.0	No		-21.3151927437642				ISITrial	Gain
46.0	2	281.279	0.015	1037.95	-17.09	-6.0	15.9452	3.0	70.0	2.0	Outcome1	-17.09	4.9	3841.25	Yes	2.0	-21.9886621315193	1.58	282.859		GetAnswer	Gain
46.0	2	282.884	0.025	1039.555	-17.09	-6.0	15.9452	4.0	70.0	2.0	Outcome1	-17.09	4.9	3841.25	Yes		-21.9886621315193				ShowChoice	Gain
46.0	2	286.896	0.012	1043.567	-17.09	-6.0	15.9452	1.0	70.0	2.0	Outcome1	-17.09	4.9	3841.25	Yes		-21.9886621315193				ShowResult	Gain
46.0	2	287.916	0.02	1044.587	-17.09	-6.0	15.9452	2.246	70.0	2.0	Outcome1	-17.09	4.9	3841.25	Yes		-21.9886621315193				ISITrial	Gain
46.0	2	294.051	0.021	1050.722	-17.09	-6.0	15.9452	1.378	70.0	2.0	Outcome1	-17.09	4.9	3841.25	Yes		-21.9886621315193			688.0	TrialHappiness	Gain
46.0	2	298.063	4.012	1054.734	-17.09	-6.0	15.9452	7.365	70.0	2.0	Outcome1	-17.09	4.9	3841.25	Yes		-21.9886621315193				ISIRate	Gain
47.0	2	305.452	0.024	1062.123	-11.37	0.0	14.5239	3.0	70.0	3.16	Outcome1	-11.37	11.7	0.0	No	2.0	-23.070294784580497	1.595	307.047		GetAnswer	Loss
47.0	2	307.073	0.026	1063.744	-11.37	0.0	14.5239	4.0	70.0	3.16	Outcome1	-11.37	11.7	0.0	No		-23.070294784580497				ShowChoice	Loss
47.0	2	311.085	0.012	1067.756	-11.37	0.0	14.5239	1.0	70.0	3.16	Outcome1	-11.37	11.7	0.0	No		-23.070294784580497				ShowResult	Loss
47.0	2	312.105	0.02	1068.776	-11.37	0.0	14.5239	2.0	70.0	3.16	Outcome1	-11.37	11.7	0.0	No		-23.070294784580497				ISITrial	Loss
48.0	2	314.128	0.023	1070.799	0.62	-1.0	14.6014	3.0	70.0	0.2	Outcome1	0.62	-3.0	2831.75	Yes	2.0	3.61583522297808	1.515	315.643		GetAnswer	Mixed
48.0	2	315.666	0.023	1072.337	0.62	-1.0	14.6014	4.0	70.0	0.2	Outcome1	0.62	-3.0	2831.75	Yes		3.61583522297808				ShowChoice	Mixed
48.0	2	319.678	0.012	1076.349	0.62	-1.0	14.6014	1.0	70.0	0.2	Outcome1	0.62	-3.0	2831.75	Yes		3.61583522297808				ShowResult	Mixed
48.0	2	320.697	0.019	1077.368	0.62	-1.0	14.6014	3.692	70.0	0.2	Outcome1	0.62	-3.0	2831.75	Yes		3.61583522297808				ISITrial	Mixed
48.0	2	327.267	0.026	1083.938	0.62	-1.0	14.6014	0.0	70.0	0.2	Outcome1	0.62	-3.0	2831.75	Yes		3.61583522297808			512.0	TrialHappiness	Mixed
48.0	2	331.279	4.012	1087.95	0.62	-1.0	14.6014	3.327	70.0	0.2	Outcome1	0.62	-3.0	2831.75	Yes		3.61583522297808				ISIRate	Mixed
49.0	2	334.623	0.017	1091.294	-18.58	-8.0	12.2789	3.0	70.0	0.4	Outcome2	2.9	-18.58	0.0	No	2.0	-21.478458049886605	0.766	335.389		GetAnswer	Mixed
49.0	2	335.408	0.019	1092.079	-18.58	-8.0	12.2789	4.0	70.0	0.4	Outcome2	2.9	-18.58	0.0	No		-21.478458049886605				ShowChoice	Mixed
49.0	2	339.42	0.012	1096.091	-18.58	-8.0	12.2789	1.0	70.0	0.4	Outcome2	2.9	-18.58	0.0	No		-21.478458049886605				ShowResult	Mixed
49.0	2	340.44	0.02	1097.111	-18.58	-8.0	12.2789	8.0	70.0	0.4	Outcome2	2.9	-18.58	0.0	No		-21.478458049886605				ISITrial	Mixed
50.0	2	348.464	0.024	1105.135	-20.68	-9.0	9.6939	3.0	70.0	0.66	Outcome2	1.3	-20.68	3547.25	Yes	2.0	-21.9795918367347	0.665	349.129		GetAnswer	Mixed
50.0	2	349.149	0.02	1105.82	-20.68	-9.0	9.6939	4.0	70.0	0.66	Outcome2	1.3	-20.68	3547.25	Yes		-21.9795918367347				ShowChoice	Mixed
50.0	2	353.162	0.013	1109.833	-20.68	-9.0	9.6939	1.0	70.0	0.66	Outcome2	1.3	-20.68	3547.25	Yes		-21.9795918367347				ShowResult	Mixed
50.0	2	354.181	0.019	1110.852	-20.68	-9.0	9.6939	7.537	70.0	0.66	Outcome2	1.3	-20.68	3547.25	Yes		-21.9795918367347				ISITrial	Mixed
50.0	2	365.315	0.031	1121.986	-20.68	-9.0	9.6939	1.293	70.0	0.66	Outcome2	1.3	-20.68	3547.25	Yes		-21.9795918367347			744.0	TrialHappiness	Mixed
50.0	2	369.343	4.028	1126.014	-20.68	-9.0	9.6939	6.189	70.0	0.66	Outcome2	1.3	-20.68	3547.25	Yes		-21.9795918367347				ISIRate	Mixed
51.0	2	375.562	0.03	1132.233	-17.53	-4.0	7.5027	3.0	70.0	2.0	Outcome1	-17.53	8.9	0.0	No	2.0	-26.426303854875304	0.994	376.556		GetAnswer	Gain
51.0	2	376.582	0.026	1133.253	-17.53	-4.0	7.5027	4.0	70.0	2.0	Outcome1	-17.53	8.9	0.0	No		-26.426303854875304				ShowChoice	Gain
51.0	2	380.611	0.029	1137.282	-17.53	-4.0	7.5027	1.0	70.0	2.0	Outcome1	-17.53	8.9	0.0	No		-26.426303854875304				ShowResult	Gain
51.0	2	381.63	0.019	1138.301	-17.53	-4.0	7.5027	5.508	70.0	2.0	Outcome1	-17.53	8.9	0.0	No		-26.426303854875304				ISITrial	Gain
52.0	2	387.164	0.026	1143.835	-18.89	-5.0	5.1415	3.0	70.0	5.0	Outcome2	8.3	-18.89	0.0	No	2.0	-27.190476190476197	1.206	388.37		GetAnswer	Gain
52.0	2	388.401	0.031	1145.072	-18.89	-5.0	5.1415	4.0	70.0	5.0	Outcome2	8.3	-18.89	0.0	No		-27.190476190476197				ShowChoice	Gain
52.0	2	392.429	0.028	1149.1	-18.89	-5.0	5.1415	1.0	70.0	5.0	Outcome2	8.3	-18.89	0.0	No		-27.190476190476197				ShowResult	Gain
52.0	2	393.449	0.02	1150.12	-18.89	-5.0	5.1415	5.913	70.0	5.0	Outcome2	8.3	-18.89	0.0	No		-27.190476190476197				ISITrial	Gain
53.0	2	399.384	0.022	1156.055	2.38	0.0	5.439	3.0	70.0	2.8	Outcome1	2.38	-1.73	2996.75	Yes		4.11262282690854				GetAnswer	Gain
53.0	2	402.409	0.025	1159.08	2.38	0.0	5.439	4.0	70.0	2.8	Outcome1	2.38	-1.73	2996.75	Yes		4.11262282690854				ShowChoice	Gain
53.0	2	406.421	0.012	1163.092	2.38	0.0	5.439	1.0	70.0	2.8	Outcome1	2.38	-1.73	2996.75	Yes		4.11262282690854				ShowResult	Gain
53.0	2	407.441	0.02	1164.112	2.38	0.0	5.439	3.66	70.0	2.8	Outcome1	2.38	-1.73	2996.75	Yes		4.11262282690854				ISITrial	Gain
53.0	2	414.144	0.028	1170.815	2.38	0.0	5.439	1.076	70.0	2.8	Outcome1	2.38	-1.73	2996.75	Yes		4.11262282690854			664.0	TrialHappiness	Gain
53.0	2	418.173	4.029	1174.844	2.38	0.0	5.439	3.987	70.0	2.8	Outcome1	2.38	-1.73	2996.75	Yes		4.11262282690854				ISIRate	Gain
54.0	2	422.185	0.025	1178.856	-3.0	-3.0	5.064	3.0	70.0	4.2	Certain	10.1	-17.26	0.0	No	4.0	-27.358276643990898	0.947	423.132		GetAnswer	Gain
54.0	2	423.155	0.023	1179.826	-3.0	-3.0	5.064	4.0	70.0	4.2	Certain	10.1	-17.26	0.0	No		-27.358276643990898				ShowChoice	Gain
54.0	2	427.167	0.012	1183.838	-3.0	-3.0	5.064	1.0	70.0	4.2	Certain	10.1	-17.26	0.0	No		-27.358276643990898				ShowResult	Gain
54.0	2	428.187	0.02	1184.858	-3.0	-3.0	5.064	8.0	70.0	4.2	Certain	10.1	-17.26	0.0	No		-27.358276643990898				ISITrial	Gain
	2	436.211	0.024	1192.882				-0.001								{SPACE}		55.569	491.78		Rest	
	2	491.794	0.014	1248.465				4.0													BlockHappyPreview	
	2	495.806	0.012	1252.477				1.193												720.0	BlockStartHappiness	
	2	519.343	0.011	1276.014				-0.001								5.0		2.081	521.424		ScanWait	
	3	0.026	0.026	1278.121				10.0													GetReady	
55.0	3	10.039	0.013	1288.134	1.75	2.0	5.2828	3.0	955.0	0.3	Outcome1	1.75	2.7	2533.25	Yes	2.0	-0.953661759154398	1.689	11.728		GetAnswer	Mixed
55.0	3	11.744	0.016	1289.839	1.75	2.0	5.2828	4.0	955.0	0.3	Outcome1	1.75	2.7	2533.25	Yes		-0.953661759154398				ShowChoice	Mixed
55.0	3	15.756	0.012	1293.851	1.75	2.0	5.2828	1.0	955.0	0.3	Outcome1	1.75	2.7	2533.25	Yes		-0.953661759154398				ShowResult	Mixed
55.0	3	16.776	0.02	1294.871	1.75	2.0	5.2828	7.709	955.0	0.3	Outcome1	1.75	2.7	2533.25	Yes		-0.953661759154398				ISITrial	Mixed
55.0	3	27.057	0.025	1305.152	1.75	2.0	5.2828	1.543	955.0	0.3	Outcome1	1.75	2.7	2533.25	Yes		-0.953661759154398			768.0	TrialHappiness	Mixed
55.0	3	31.086	4.029	1309.181	1.75	2.0	5.2828	2.133	955.0	0.3	Outcome1	1.75	2.7	2533.25	Yes		-0.953661759154398				ISIRate	Mixed
56.0	3	33.242	0.023	1311.337	0.0	0.0	5.2828	3.0	955.0	1.2	Certain	-0.88	-0.1	0.0	No	4.0	-0.7810494526236321	1.453	34.695		GetAnswer	Mixed
56.0	3	34.713	0.018	1312.808	0.0	0.0	5.2828	4.0	955.0	1.2	Certain	-0.88	-0.1	0.0	No		-0.7810494526236321				ShowChoice	Mixed
56.0	3	38.725	0.012	1316.82	0.0	0.0	5.2828	1.0	955.0	1.2	Certain	-0.88	-0.1	0.0	No		-0.7810494526236321				ShowResult	Mixed
56.0	3	39.745	0.02	1317.84	0.0	0.0	5.2828	4.697	955.0	1.2	Certain	-0.88	-0.1	0.0	No		-0.7810494526236321				ISITrial	Mixed
57.0	3	44.476	0.034	1322.571	11.5	3.92	6.7203	3.0	955.0	2.8	Outcome2	7.85	11.5	0.0	No	2.0	3.6545866364665898	0.882	45.358		GetAnswer	Loss
57.0	3	45.378	0.02	1323.473	11.5	3.92	6.7203	4.0	955.0	2.8	Outcome2	7.85	11.5	0.0	No		3.6545866364665898				ShowChoice	Loss
57.0	3	49.39	0.012	1327.485	11.5	3.92	6.7203	1.0	955.0	2.8	Outcome2	7.85	11.5	0.0	No		3.6545866364665898				ShowResult	Loss
57.0	3	50.41	0.02	1328.505	11.5	3.92	6.7203	4.291	955.0	2.8	Outcome2	7.85	11.5	0.0	No		3.6545866364665898				ISITrial	Loss
58.0	3	54.723	0.022	1332.818	7.9	2.02	7.7078	3.0	955.0	3.6	Outcome2	4.03	7.9	3045.75	Yes	2.0	3.8663646659116604	0.737	55.46		GetAnswer	Gain
58.0	3	55.475	0.015	1333.57	7.9	2.02	7.7078	4.0	955.0	3.6	Outcome2	4.03	7.9	3045.75	Yes		3.8663646659116604				ShowChoice	Gain
58.0	3	59.487	0.012	1337.582	7.9	2.02	7.7078	1.0	955.0	3.6	Outcome2	4.03	7.9	3045.75	Yes		3.8663646659116604				ShowResult	Gain
58.0	3	60.507	0.02	1338.602	7.9	2.02	7.7078	2.037	955.0	3.6	Outcome2	4.03	7.9	3045.75	Yes		3.8663646659116604				ISITrial	Gain
58.0	3	65.639	0.03	1343.734	7.9	2.02	7.7078	1.276	955.0	3.6	Outcome2	4.03	7.9	3045.75	Yes		3.8663646659116604			656.0	TrialHappiness	Gain
58.0	3	69.651	4.012	1347.746	7.9	2.02	7.7078	4.183	955.0	3.6	Outcome2	4.03	7.9	3045.75	Yes		3.8663646659116604				ISIRate	Gain
59.0	3	73.864	0.03	1351.959	5.61	2.8	8.408999999999999	3.0	955.0	2.0	Outcome1	5.61	6.9	0.0	No		-1.28850509626274				GetAnswer	Gain
59.0	3	76.89	0.026	1354.985	5.61	2.8	8.408999999999999	4.0	955.0	2.0	Outcome1	5.61	6.9	0.0	No		-1.28850509626274				ShowChoice	Gain
59.0	3	80.902	0.012	1358.997	5.61	2.8	8.408999999999999	1.0	955.0	2.0	Outcome1	5.61	6.9	0.0	No		-1.28850509626274				ShowResult	Gain
59.0	3	81.921	0.019	1360.016	5.61	2.8	8.408999999999999	5.064	955.0	2.0	Outcome1	5.61	6.9	0.0	No		-1.28850509626274				ISITrial	Gain
60.0	3	87.003	0.018	1365.098	2.0	2.0	8.658999999999999	3.0	955.0	2.22	Certain	-1.22	5.1	3562.5	Yes	4.0	6.3193657984145	0.529	87.532		GetAnswer	Gain
60.0	3	87.555	0.023	1365.65	2.0	2.0	8.658999999999999	4.0	955.0	2.22	Certain	-1.22	5.1	3562.5	Yes		6.3193657984145				ShowChoice	Gain
60.0	3	91.567	0.012	1369.662	2.0	2.0	8.658999999999999	1.0	955.0	2.22	Certain	-1.22	5.1	3562.5	Yes		6.3193657984145				ShowResult	Gain
60.0	3	92.587	0.02	1370.682	2.0	2.0	8.658999999999999	8.0	955.0	2.22	Certain	-1.22	5.1	3562.5	Yes		6.3193657984145				ISITrial	Gain
60.0	3	104.188	0.015	1382.283	2.0	2.0	8.658999999999999	1.444	955.0	2.22	Certain	-1.22	5.1	3562.5	Yes		6.3193657984145			792.0	TrialHappiness	Gain
60.0	3	108.2	4.012	1386.295	2.0	2.0	8.658999999999999	6.25	955.0	2.22	Certain	-1.22	5.1	3562.5	Yes		6.3193657984145				ISIRate	Gain
61.0	3	114.469	0.019	1392.564	13.7	4.68	10.3715	3.0	955.0	3.16	Outcome2	9.35	13.7	0.0	No	2.0	4.347678369195919	1.329	115.798		GetAnswer	Loss
61.0	3	115.823	0.025	1393.918	13.7	4.68	10.3715	4.0	955.0	3.16	Outcome2	9.35	13.7	0.0	No		4.347678369195919				ShowChoice	Loss
61.0	3	119.835	0.012	1397.93	13.7	4.68	10.3715	1.0	955.0	3.16	Outcome2	9.35	13.7	0.0	No		4.347678369195919				ShowResult	Loss
61.0	3	120.855	0.02	1398.95	13.7	4.68	10.3715	4.586	955.0	3.16	Outcome2	9.35	13.7	0.0	No		4.347678369195919				ISITrial	Loss
62.0	3	125.469	0.028	1403.564	8.5	1.98	11.434000000000001	3.0	955.0	1.68	Outcome1	8.5	3.97	3748.75	Yes	2.0	4.532276330690831	1.585	127.054		GetAnswer	Gain
62.0	3	127.073	0.019	1405.168	8.5	1.98	11.434000000000001	4.0	955.0	1.68	Outcome1	8.5	3.97	3748.75	Yes		4.532276330690831				ShowChoice	Gain
62.0	3	131.085	0.012	1409.18	8.5	1.98	11.434000000000001	1.0	955.0	1.68	Outcome1	8.5	3.97	3748.75	Yes		4.532276330690831				ShowResult	Gain
62.0	3	132.105	0.02	1410.2	8.5	1.98	11.434000000000001	5.212	955.0	1.68	Outcome1	8.5	3.97	3748.75	Yes		4.532276330690831				ISITrial	Gain
62.0	3	141.116	0.029	1419.211	8.5	1.98	11.434000000000001	1.311	955.0	1.68	Outcome1	8.5	3.97	3748.75	Yes		4.532276330690831			784.0	TrialHappiness	Gain
62.0	3	145.128	4.012	1423.223	8.5	1.98	11.434000000000001	6.995	955.0	1.68	Outcome1	8.5	3.97	3748.75	Yes		4.532276330690831				ISIRate	Gain
63.0	3	152.149	0.026	1430.244	12.5	3.82	12.9965	3.0	955.0	1.68	Outcome2	7.65	12.5	0.0	No	2.0	4.85277463193658	1.232	153.381		GetAnswer	Loss
63.0	3	153.402	0.02	1431.497	12.5	3.82	12.9965	4.0	955.0	1.68	Outcome2	7.65	12.5	0.0	No		4.85277463193658				ShowChoice	Loss
63.0	3	157.414	0.012	1435.509	12.5	3.82	12.9965	1.0	955.0	1.68	Outcome2	7.65	12.5	0.0	No		4.85277463193658				ShowResult	Loss
63.0	3	158.434	0.02	1436.529	12.5	3.82	12.9965	5.595	955.0	1.68	Outcome2	7.65	12.5	0.0	No		4.85277463193658				ISITrial	Loss
64.0	3	164.051	0.022	1442.146	10.5	2.72	14.309000000000001	3.0	955.0	1.68	Outcome1	10.5	5.45	0.0	No	2.0	5.04643261608154	0.348	164.399		GetAnswer	Loss
64.0	3	164.419	0.02	1442.514	10.5	2.72	14.309000000000001	4.0	955.0	1.68	Outcome1	10.5	5.45	0.0	No		5.04643261608154				ShowChoice	Loss
64.0	3	168.431	0.012	1446.526	10.5	2.72	14.309000000000001	1.0	955.0	1.68	Outcome1	10.5	5.45	0.0	No		5.04643261608154				ShowResult	Loss
64.0	3	169.451	0.02	1447.546	10.5	2.72	14.309000000000001	5.47	955.0	1.68	Outcome1	10.5	5.45	0.0	No		5.04643261608154				ISITrial	Loss
65.0	3	174.95	0.029	1453.045	3.21	1.6	14.7102	3.0	955.0	1.5	Outcome2	4.1	3.21	2996.75	Yes	2.0	-0.888542846357116	0.808	175.758		GetAnswer	Mixed
65.0	3	175.77	0.012	1453.865	3.21	1.6	14.7102	4.0	955.0	1.5	Outcome2	4.1	3.21	2996.75	Yes		-0.888542846357116				ShowChoice	Mixed
65.0	3	179.782	0.012	1457.877	3.21	1.6	14.7102	1.0	955.0	1.5	Outcome2	4.1	3.21	2996.75	Yes		-0.888542846357116				ShowResult	Mixed
65.0	3	180.801	0.019	1458.896	3.21	1.6	14.7102	3.344	955.0	1.5	Outcome2	4.1	3.21	2996.75	Yes		-0.888542846357116				ISITrial	Mixed
65.0	3	187.187	0.029	1465.282	3.21	1.6	14.7102	0.0	955.0	1.5	Outcome2	4.1	3.21	2996.75	Yes		-0.888542846357116			512.0	TrialHappiness	Mixed
65.0	3	191.199	4.012	1469.294	3.21	1.6	14.7102	3.987	955.0	1.5	Outcome2	4.1	3.21	2996.75	Yes		-0.888542846357116				ISIRate	Mixed
66.0	3	195.211	0.025	1473.306	6.7	1.0	15.5477	3.0	955.0	1.82	Outcome2	-3.35	6.7	0.0	No	2.0	10.0543601359003	1.224	196.435		GetAnswer	Gain
66.0	3	196.448	0.013	1474.543	6.7	1.0	15.5477	4.0	955.0	1.82	Outcome2	-3.35	6.7	0.0	No		10.0543601359003				ShowChoice	Gain
66.0	3	200.46	0.012	1478.555	6.7	1.0	15.5477	1.0	955.0	1.82	Outcome2	-3.35	6.7	0.0	No		10.0543601359003				ShowResult	Gain
66.0	3	201.48	0.02	1479.575	6.7	1.0	15.5477	3.959	955.0	1.82	Outcome2	-3.35	6.7	0.0	No		10.0543601359003				ISITrial	Gain
67.0	3	205.459	0.02	1483.554	-0.5	-6.0	15.4852	3.0	955.0	0.82	Outcome1	-0.5	-11.06	2918.5	Yes	2.0	10.556058890147199	0.905	206.364		GetAnswer	Mixed
67.0	3	206.378	0.014	1484.473	-0.5	-6.0	15.4852	4.0	955.0	0.82	Outcome1	-0.5	-11.06	2918.5	Yes		10.556058890147199				ShowChoice	Mixed
67.0	3	210.39	0.012	1488.485	-0.5	-6.0	15.4852	1.0	955.0	0.82	Outcome1	-0.5	-11.06	2918.5	Yes		10.556058890147199				ShowResult	Mixed
67.0	3	211.41	0.02	1489.505	-0.5	-6.0	15.4852	4.199	955.0	0.82	Outcome1	-0.5	-11.06	2918.5	Yes		10.556058890147199				ISITrial	Mixed
67.0	3	218.565	0.025	1496.66	-0.5	-6.0	15.4852	1.376	955.0	0.82	Outcome1	-0.5	-11.06	2918.5	Yes		10.556058890147199			728.0	TrialHappiness	Mixed
67.0	3	222.577	4.012	1500.672	-0.5	-6.0	15.4852	3.674	955.0	0.82	Outcome1	-0.5	-11.06	2918.5	Yes		10.556058890147199				ISIRate	Mixed
68.0	3	226.271	0.02	1504.366	0.9	-3.0	15.5977	3.0	955.0	0.4	Outcome2	-6.49	0.9	0.0	No		7.38844847112118				GetAnswer	Mixed
68.0	3	229.297	0.026	1507.392	0.9	-3.0	15.5977	4.0	955.0	0.4	Outcome2	-6.49	0.9	0.0	No		7.38844847112118				ShowChoice	Mixed
68.0	3	233.309	0.012	1511.404	0.9	-3.0	15.5977	1.0	955.0	0.4	Outcome2	-6.49	0.9	0.0	No		7.38844847112118				ShowResult	Mixed
68.0	3	234.329	0.02	1512.424	0.9	-3.0	15.5977	2.185	955.0	0.4	Outcome2	-6.49	0.9	0.0	No		7.38844847112118				ISITrial	Mixed
69.0	3	236.535	0.021	1514.63	0.3	-3.0	15.6352	3.0	955.0	2.0	Outcome2	-7.35	0.3	0.0	No	2.0	7.64552661381653	0.893	237.428		GetAnswer	Mixed
69.0	3	237.455	0.027	1515.55	0.3	-3.0	15.6352	4.0	955.0	2.0	Outcome2	-7.35	0.3	0.0	No		7.64552661381653				ShowChoice	Mixed
69.0	3	241.467	0.012	1519.562	0.3	-3.0	15.6352	1.0	955.0	2.0	Outcome2	-7.35	0.3	0.0	No		7.64552661381653				ShowResult	Mixed
69.0	3	242.486	0.019	1520.581	0.3	-3.0	15.6352	2.0	955.0	2.0	Outcome2	-7.35	0.3	0.0	No		7.64552661381653				ISITrial	Mixed
70.0	3	244.509	0.023	1522.604	4.5	0.0	16.1977	3.0	955.0	1.68	Outcome2	-3.4	4.5	3651.25	Yes	2.0	7.90260475651189	1.914	246.423		GetAnswer	Gain
70.0	3	246.448	0.025	1524.543	4.5	0.0	16.1977	4.0	955.0	1.68	Outcome2	-3.4	4.5	3651.25	Yes		7.90260475651189				ShowChoice	Gain
70.0	3	250.46	0.012	1528.555	4.5	0.0	16.1977	1.0	955.0	1.68	Outcome2	-3.4	4.5	3651.25	Yes		7.90260475651189				ShowResult	Gain
70.0	3	251.48	0.02	1529.575	4.5	0.0	16.1977	2.623	955.0	1.68	Outcome2	-3.4	4.5	3651.25	Yes		7.90260475651189				ISITrial	Gain
70.0	3	257.799	0.027	1535.894	4.5	0.0	16.1977	0.942	955.0	1.68	Outcome2	-3.4	4.5	3651.25	Yes		7.90260475651189			672.0	TrialHappiness	Gain
70.0	3	261.811	4.012	1539.906	4.5	0.0	16.1977	6.605	955.0	1.68	Outcome2	-3.4	4.5	3651.25	Yes		7.90260475651189				ISIRate	Gain
71.0	3	268.448	0.032	1546.543	6.1	1.0	16.9602	3.0	955.0	4.2	Outcome1	6.1	-3.01	0.0	No		9.11098527746319				GetAnswer	Gain
71.0	3	271.473	0.025	1549.568	6.1	1.0	16.9602	4.0	955.0	4.2	Outcome1	6.1	-3.01	0.0	No		9.11098527746319				ShowChoice	Gain
71.0	3	275.485	0.012	1553.58	6.1	1.0	16.9602	1.0	955.0	4.2	Outcome1	6.1	-3.01	0.0	No		9.11098527746319				ShowResult	Gain
71.0	3	276.505	0.02	1554.6	6.1	1.0	16.9602	5.499	955.0	4.2	Outcome1	6.1	-3.01	0.0	No		9.11098527746319				ISITrial	Gain
72.0	3	282.022	0.018	1560.117	5.3	0.0	17.6227	3.0	955.0	2.48	Outcome2	-4.13	5.3	3080.5	Yes		9.43148357870895				GetAnswer	Gain
72.0	3	285.047	0.025	1563.142	5.3	0.0	17.6227	4.0	955.0	2.48	Outcome2	-4.13	5.3	3080.5	Yes		9.43148357870895				ShowChoice	Gain
72.0	3	289.059	0.012	1567.154	5.3	0.0	17.6227	1.0	955.0	2.48	Outcome2	-4.13	5.3	3080.5	Yes		9.43148357870895				ShowResult	Gain
72.0	3	290.079	0.02	1568.174	5.3	0.0	17.6227	5.672	955.0	2.48	Outcome2	-4.13	5.3	3080.5	Yes		9.43148357870895				ISITrial	Gain
72.0	3	298.872	0.029	1576.967	5.3	0.0	17.6227	2.179	955.0	2.48	Outcome2	-4.13	5.3	3080.5	Yes	2{-2}	9.43148357870895	2.179	301.051	688.0	TrialHappiness	Gain
72.0	3	302.884	4.012	1580.979	5.3	0.0	17.6227	4.322	955.0	2.48	Outcome2	-4.13	5.3	3080.5	Yes		9.43148357870895				ISIRate	Gain
73.0	3	307.231	0.025	1585.326	-1.3	-6.0	17.4602	3.0	955.0	0.3	Outcome1	-1.3	-10.78	0.0	No	2.0	9.480181200453	2.175	309.406		GetAnswer	Mixed
73.0	3	309.42	0.014	1587.515	-1.3	-6.0	17.4602	4.0	955.0	0.3	Outcome1	-1.3	-10.78	0.0	No		9.480181200453				ShowChoice	Mixed
73.0	3	313.432	0.012	1591.527	-1.3	-6.0	17.4602	1.0	955.0	0.3	Outcome1	-1.3	-10.78	0.0	No		9.480181200453				ShowResult	Mixed
73.0	3	314.452	0.02	1592.547	-1.3	-6.0	17.4602	4.616	955.0	0.3	Outcome1	-1.3	-10.78	0.0	No		9.480181200453				ISITrial	Mixed
74.0	3	319.1	0.032	1597.195	5.5	0.0	18.1477	3.0	955.0	2.8	Outcome1	5.5	-4.28	3056.25	Yes	2.0	9.78255945639864	1.529	320.629		GetAnswer	Gain
74.0	3	320.654	0.025	1598.749	5.5	0.0	18.1477	4.0	955.0	2.8	Outcome1	5.5	-4.28	3056.25	Yes		9.78255945639864				ShowChoice	Gain
74.0	3	324.666	0.012	1602.761	5.5	0.0	18.1477	1.0	955.0	2.8	Outcome1	5.5	-4.28	3056.25	Yes		9.78255945639864				ShowResult	Gain
74.0	3	325.686	0.02	1603.781	5.5	0.0	18.1477	3.909	955.0	2.8	Outcome1	5.5	-4.28	3056.25	Yes		9.78255945639864				ISITrial	Gain
74.0	3	332.69	0.02	1610.785	5.5	0.0	18.1477	3.567	955.0	2.8	Outcome1	5.5	-4.28	3056.25	Yes	2{-2}	9.78255945639864	3.567	336.257	728.0	TrialHappiness	Gain
74.0	3	336.702	4.012	1614.797	5.5	0.0	18.1477	4.225	955.0	2.8	Outcome1	5.5	-4.28	3056.25	Yes		9.78255945639864				ISIRate	Gain
75.0	3	340.948	0.021	1619.043	0.7	-4.0	18.2352	3.0	955.0	0.3	Outcome1	0.7	-8.71	0.0	No	2.0	9.40543601359003	0.784	341.732		GetAnswer	Mixed
75.0	3	341.751	0.019	1619.846	0.7	-4.0	18.2352	4.0	955.0	0.3	Outcome1	0.7	-8.71	0.0	No		9.40543601359003				ShowChoice	Mixed
75.0	3	345.763	0.012	1623.858	0.7	-4.0	18.2352	1.0	955.0	0.3	Outcome1	0.7	-8.71	0.0	No		9.40543601359003				ShowResult	Mixed
75.0	3	346.783	0.02	1624.878	0.7	-4.0	18.2352	4.979	955.0	0.3	Outcome1	0.7	-8.71	0.0	No		9.40543601359003				ISITrial	Mixed
76.0	3	351.781	0.019	1629.876	4.49	2.24	18.7964	3.0	955.0	3.6	Outcome2	5.9	4.49	0.0	No		-1.40505851264628				GetAnswer	Gain
76.0	3	354.807	0.026	1632.902	4.49	2.24	18.7964	4.0	955.0	3.6	Outcome2	5.9	4.49	0.0	No		-1.40505851264628				ShowChoice	Gain
76.0	3	358.819	0.012	1636.914	4.49	2.24	18.7964	1.0	955.0	3.6	Outcome2	5.9	4.49	0.0	No		-1.40505851264628				ShowResult	Gain
76.0	3	359.838	0.019	1637.933	4.49	2.24	18.7964	3.931	955.0	3.6	Outcome2	5.9	4.49	0.0	No		-1.40505851264628				ISITrial	Gain
77.0	3	363.8	0.031	1641.895	0.5	-4.0	18.8589	3.0	955.0	0.2	Outcome2	-9.42	0.5	4000.0	Yes		9.91959229898075				GetAnswer	Mixed
77.0	3	366.826	0.026	1644.921	0.5	-4.0	18.8589	4.0	955.0	0.2	Outcome2	-9.42	0.5	4000.0	Yes		9.91959229898075				ShowChoice	Mixed
77.0	3	370.838	0.012	1648.933	0.5	-4.0	18.8589	1.0	955.0	0.2	Outcome2	-9.42	0.5	4000.0	Yes		9.91959229898075				ShowResult	Mixed
77.0	3	371.858	0.02	1649.953	0.5	-4.0	18.8589	7.022	955.0	0.2	Outcome2	-9.42	0.5	4000.0	Yes		9.91959229898075				ISITrial	Mixed
77.0	3	382.924	0.028	1661.019	0.5	-4.0	18.8589	1.627	955.0	0.2	Outcome2	-9.42	0.5	4000.0	Yes		9.91959229898075			760.0	TrialHappiness	Mixed
77.0	3	386.936	4.012	1665.031	0.5	-4.0	18.8589	8.0	955.0	0.2	Outcome2	-9.42	0.5	4000.0	Yes		9.91959229898075				ISIRate	Mixed
78.0	3	394.96	0.024	1673.055	-1.5	-6.0	18.6714	3.0	955.0	0.2	Outcome2	-11.13	-1.5	0.0	No		9.63306908267271				GetAnswer	Mixed
78.0	3	397.986	0.026	1676.081	-1.5	-6.0	18.6714	4.0	955.0	0.2	Outcome2	-11.13	-1.5	0.0	No		9.63306908267271				ShowChoice	Mixed
78.0	3	401.998	0.012	1680.093	-1.5	-6.0	18.6714	1.0	955.0	0.2	Outcome2	-11.13	-1.5	0.0	No		9.63306908267271				ShowResult	Mixed
78.0	3	403.018	0.02	1681.113	-1.5	-6.0	18.6714	2.078	955.0	0.2	Outcome2	-11.13	-1.5	0.0	No		9.63306908267271				ISITrial	Mixed
79.0	3	405.124	0.028	1683.219	9.3	-0.28	19.8339	3.0	955.0	2.48	Outcome1	9.3	-0.55	2729.5	Yes		9.853907134767839				GetAnswer	Gain
79.0	3	408.15	0.026	1686.245	9.3	-0.28	19.8339	4.0	955.0	2.48	Outcome1	9.3	-0.55	2729.5	Yes		9.853907134767839				ShowChoice	Gain
79.0	3	412.162	0.012	1690.257	9.3	-0.28	19.8339	1.0	955.0	2.48	Outcome1	9.3	-0.55	2729.5	Yes		9.853907134767839				ShowResult	Gain
79.0	3	413.182	0.02	1691.277	9.3	-0.28	19.8339	3.829	955.0	2.48	Outcome1	9.3	-0.55	2729.5	Yes		9.853907134767839				ISITrial	Gain
79.0	3	419.785	0.028	1697.88	9.3	-0.28	19.8339	0.0	955.0	2.48	Outcome1	9.3	-0.55	2729.5	Yes		9.853907134767839			512.0	TrialHappiness	Gain
79.0	3	423.797	4.012	1701.892	9.3	-0.28	19.8339	2.918	955.0	2.48	Outcome1	9.3	-0.55	2729.5	Yes		9.853907134767839				ISIRate	Gain
80.0	3	426.739	0.024	1704.834	-3.46	-2.0	19.4014	3.0	955.0	0.4	Outcome2	-1.1	-3.46	0.0	No		-2.36126840317101				GetAnswer	Mixed
80.0	3	429.765	0.026	1707.86	-3.46	-2.0	19.4014	4.0	955.0	0.4	Outcome2	-1.1	-3.46	0.0	No		-2.36126840317101				ShowChoice	Mixed
80.0	3	433.777	0.012	1711.872	-3.46	-2.0	19.4014	1.0	955.0	0.4	Outcome2	-1.1	-3.46	0.0	No		-2.36126840317101				ShowResult	Mixed
80.0	3	434.797	0.02	1712.892	-3.46	-2.0	19.4014	3.336	955.0	0.4	Outcome2	-1.1	-3.46	0.0	No		-2.36126840317101				ISITrial	Mixed
81.0	3	438.157	0.024	1716.252	13.1	-0.84	21.0389	3.0	955.0	2.22	Outcome1	13.1	-1.69	3923.75	Yes		14.789354473386199				GetAnswer	Loss
81.0	3	441.182	0.025	1719.277	13.1	-0.84	21.0389	4.0	955.0	2.22	Outcome1	13.1	-1.69	3923.75	Yes		14.789354473386199				ShowChoice	Loss
81.0	3	445.194	0.012	1723.289	13.1	-0.84	21.0389	1.0	955.0	2.22	Outcome1	13.1	-1.69	3923.75	Yes		14.789354473386199				ShowResult	Loss
81.0	3	446.214	0.02	1724.309	13.1	-0.84	21.0389	3.919	955.0	2.22	Outcome1	13.1	-1.69	3923.75	Yes		14.789354473386199				ISITrial	Loss
81.0	3	454.104	0.021	1732.199	13.1	-0.84	21.0389	1.177	955.0	2.22	Outcome1	13.1	-1.69	3923.75	Yes		14.789354473386199			744.0	TrialHappiness	Loss
81.0	3	458.117	4.013	1736.212	13.1	-0.84	21.0389	7.695	955.0	2.22	Outcome1	13.1	-1.69	3923.75	Yes		14.789354473386199				ISIRate	Loss
	3	465.84	0.028	1743.935				3.0													CurrentEarnings	
	3	468.865	0.025	1746.96				-0.001								2.0		1.6	470.465		Goodbye	
