trial_number	block	onset	onset_delay	onset_unadjusted	amount_change	certain_amount	current_amount	duration	mood_target	multiplier	outcome	outcome1_amount	outcome2_amount	question_duration	rating	response	rpe	rt	rt_time	slider_response	trial_phase	trial_type
	0	-44.424	0.02	22.237				-0.001								{SPACE}		2.128	-42.296		Welcome	
	0	-42.268	0.028	24.393				5.0													LifeHappyPreview	
	0	-37.236	0.032	29.425				1.11												824.0	LifeHappiness	
	0	-20.118	0.018	46.543				4.0													BlockHappyPreview	
	0	-16.106	0.012	50.555				2.013												328.0	BlockStartHappiness	
	0	-1.178	0.031	65.483				-0.001								5.0					ScanWait	
	1	0.025	0.025	66.686				10.0													GetReady	
1.0	1	10.055	0.03	76.716	0.96	2.0	10.12	3.0	955.0	0.82	Outcome1	0.96	3.5	0.0	No	2.0	-2.54445073612684	1.679	11.734		GetAnswer	Mixed
1.0	1	11.76	0.026	78.421	0.96	2.0	10.12	4.0	955.0	0.82	Outcome1	0.96	3.5	0.0	No		-2.54445073612684				ShowChoice	Mixed
1.0	1	15.772	0.012	82.433	0.96	2.0	10.12	1.0	955.0	0.82	Outcome1	0.96	3.5	0.0	No		-2.54445073612684				ShowResult	Mixed
1.0	1	16.792	0.02	83.453	0.96	2.0	10.12	2.431	955.0	0.82	Outcome1	0.96	3.5	0.0	No		-2.54445073612684				ISITrial	Mixed
2.0	1	19.249	0.026	85.91	-4.0	-4.0	9.62	3.0	955.0	0.66	Certain	-10.06	1.3	0.0	No	4.0	11.361268403171	1.704	20.953		GetAnswer	Mixed
2.0	1	20.971	0.018	87.632	-4.0	-4.0	9.62	4.0	955.0	0.66	Certain	-10.06	1.3	0.0	No		11.361268403171				ShowChoice	Mixed
2.0	1	25.0	0.029	91.661	-4.0	-4.0	9.62	1.0	955.0	0.66	Certain	-10.06	1.3	0.0	No		11.361268403171				ShowResult	Mixed
2.0	1	26.019	0.019	92.68	-4.0	-4.0	9.62	4.568	955.0	0.66	Certain	-10.06	1.3	0.0	No		11.361268403171				ISITrial	Mixed
3.0	1	30.616	0.029	97.277	13.7	0.82	11.3325	3.0	955.0	3.16	Outcome2	1.63	13.7	2868.0	Yes	2.0	12.0713476783692	1.401	32.017		GetAnswer	Loss
3.0	1	32.037	0.02	98.698	13.7	0.82	11.3325	4.0	955.0	3.16	Outcome2	1.63	13.7	2868.0	Yes		12.0713476783692				ShowChoice	Loss
3.0	1	36.049	0.012	102.71	13.7	0.82	11.3325	1.0	955.0	3.16	Outcome2	1.63	13.7	2868.0	Yes		12.0713476783692				ShowResult	Loss
3.0	1	37.069	0.02	103.73	13.7	0.82	11.3325	3.243	955.0	3.16	Outcome2	1.63	13.7	2868.0	Yes		12.0713476783692				ISITrial	Loss
3.0	1	43.221	0.024	109.882	13.7	0.82	11.3325	1.712	955.0	3.16	Outcome2	1.63	13.7	2868.0	Yes	4{-4}	12.0713476783692	1.712	44.933	496.0	TrialHappiness	Loss
3.0	1	47.249	4.028	113.91	13.7	0.82	11.3325	3.472	955.0	3.16	Outcome2	1.63	13.7	2868.0	Yes		12.0713476783692				ISIRate	Loss
4.0	1	50.743	0.022	117.404	2.0	2.0	11.5825	3.0	955.0	2.0	Certain	-3.03	6.9	0.0	No	4.0	9.927519818799551	1.894	52.637		GetAnswer	Gain
4.0	1	52.666	0.029	119.327	2.0	2.0	11.5825	4.0	955.0	2.0	Certain	-3.03	6.9	0.0	No		9.927519818799551				ShowChoice	Gain
4.0	1	56.694	0.028	123.355	2.0	2.0	11.5825	1.0	955.0	2.0	Certain	-3.03	6.9	0.0	No		9.927519818799551				ShowResult	Gain
4.0	1	57.714	0.02	124.375	2.0	2.0	11.5825	2.011	955.0	2.0	Certain	-3.03	6.9	0.0	No		9.927519818799551				ISITrial	Gain
5.0	1	59.753	0.028	126.414	0.1	-5.0	11.595	3.0	955.0	1.5	Outcome1	0.1	-10.35	2582.5	Yes	2.0	10.4473386183465	1.354	61.107		GetAnswer	Mixed
5.0	1	61.124	0.017	127.785	0.1	-5.0	11.595	4.0	955.0	1.5	Outcome1	0.1	-10.35	2582.5	Yes		10.4473386183465				ShowChoice	Mixed
5.0	1	65.153	0.029	131.814	0.1	-5.0	11.595	1.0	955.0	1.5	Outcome1	0.1	-10.35	2582.5	Yes		10.4473386183465				ShowResult	Mixed
5.0	1	66.173	0.02	132.834	0.1	-5.0	11.595	5.129	955.0	1.5	Outcome1	0.1	-10.35	2582.5	Yes		10.4473386183465				ISITrial	Mixed
5.0	1	73.929	0.026	140.59	0.1	-5.0	11.595	0.741	955.0	1.5	Outcome1	0.1	-10.35	2582.5	Yes		10.4473386183465			656.0	TrialHappiness	Mixed
5.0	1	77.958	4.029	144.619	0.1	-5.0	11.595	2.33	955.0	1.5	Outcome1	0.1	-10.35	2582.5	Yes		10.4473386183465				ISIRate	Mixed
6.0	1	80.315	0.027	146.976	0.0	0.0	11.595	3.0	955.0	1.0	Certain	-4.55	3.7	0.0	No	4.0	8.24915062287656	1.616	81.931		GetAnswer	Mixed
6.0	1	81.953	0.022	148.614	0.0	0.0	11.595	4.0	955.0	1.0	Certain	-4.55	3.7	0.0	No		8.24915062287656				ShowChoice	Mixed
6.0	1	85.982	0.029	152.643	0.0	0.0	11.595	1.0	955.0	1.0	Certain	-4.55	3.7	0.0	No		8.24915062287656				ShowResult	Mixed
6.0	1	87.002	0.02	153.663	0.0	0.0	11.595	6.232	955.0	1.0	Certain	-4.55	3.7	0.0	No		8.24915062287656				ISITrial	Mixed
7.0	1	93.254	0.02	159.915	12.5	1.96	13.1575	3.0	955.0	1.68	Outcome2	3.91	12.5	0.0	No	2.0	8.58776896942242	1.381	94.635		GetAnswer	Loss
7.0	1	94.658	0.023	161.319	12.5	1.96	13.1575	4.0	955.0	1.68	Outcome2	3.91	12.5	0.0	No		8.58776896942242				ShowChoice	Loss
7.0	1	98.686	0.028	165.347	12.5	1.96	13.1575	1.0	955.0	1.68	Outcome2	3.91	12.5	0.0	No		8.58776896942242				ShowResult	Loss
7.0	1	99.706	0.02	166.367	12.5	1.96	13.1575	2.305	955.0	1.68	Outcome2	3.91	12.5	0.0	No		8.58776896942242				ISITrial	Loss
8.0	1	102.03	0.019	168.691	11.7	1.38	14.62	3.0	955.0	3.16	Outcome1	11.7	2.77	3112.5	Yes	2.0	8.92638731596829	1.577	103.607		GetAnswer	Loss
8.0	1	103.635	0.027	170.296	11.7	1.38	14.62	4.0	955.0	3.16	Outcome1	11.7	2.77	3112.5	Yes		8.92638731596829				ShowChoice	Loss
8.0	1	107.663	0.028	174.324	11.7	1.38	14.62	1.0	955.0	3.16	Outcome1	11.7	2.77	3112.5	Yes		8.92638731596829				ShowResult	Loss
8.0	1	108.683	0.02	175.344	11.7	1.38	14.62	3.506	955.0	3.16	Outcome1	11.7	2.77	3112.5	Yes		8.92638731596829				ISITrial	Loss
8.0	1	115.353	0.031	182.014	11.7	1.38	14.62	0.774	955.0	3.16	Outcome1	11.7	2.77	3112.5	Yes		8.92638731596829			640.0	TrialHappiness	Loss
8.0	1	119.382	4.029	186.043	11.7	1.38	14.62	4.45	955.0	3.16	Outcome1	11.7	2.77	3112.5	Yes		8.92638731596829				ISIRate	Loss
9.0	1	123.862	0.03	190.523	5.7	1.0	15.3325	3.0	955.0	3.16	Outcome1	5.7	-3.84	0.0	No	2.0	9.536806342015849	1.156	125.018		GetAnswer	Gain
9.0	1	125.048	0.03	191.709	5.7	1.0	15.3325	4.0	955.0	3.16	Outcome1	5.7	-3.84	0.0	No		9.536806342015849				ShowChoice	Gain
9.0	1	129.06	0.012	195.721	5.7	1.0	15.3325	1.0	955.0	3.16	Outcome1	5.7	-3.84	0.0	No		9.536806342015849				ShowResult	Gain
9.0	1	130.08	0.02	196.741	5.7	1.0	15.3325	2.0	955.0	3.16	Outcome1	5.7	-3.84	0.0	No		9.536806342015849				ISITrial	Gain
10.0	1	132.103	0.023	198.764	9.64	4.82	16.5375	3.0	955.0	2.48	Outcome2	11.3	9.64	4000.0	Yes	2.0	-1.6568516421291102	1.314	133.417		GetAnswer	Loss
10.0	1	133.44	0.023	200.101	9.64	4.82	16.5375	4.0	955.0	2.48	Outcome2	11.3	9.64	4000.0	Yes		-1.6568516421291102				ShowChoice	Loss
10.0	1	137.469	0.029	204.13	9.64	4.82	16.5375	1.0	955.0	2.48	Outcome2	11.3	9.64	4000.0	Yes		-1.6568516421291102				ShowResult	Loss
10.0	1	138.489	0.02	205.15	9.64	4.82	16.5375	2.0	955.0	2.48	Outcome2	11.3	9.64	4000.0	Yes		-1.6568516421291102				ISITrial	Loss
10.0	1	144.54	0.029	211.201	9.64	4.82	16.5375	2.498	955.0	2.48	Outcome2	11.3	9.64	4000.0	Yes		-1.6568516421291102			744.0	TrialHappiness	Loss
10.0	1	148.569	4.029	215.23	9.64	4.82	16.5375	8.0	955.0	2.48	Outcome2	11.3	9.64	4000.0	Yes		-1.6568516421291102				ISIRate	Loss
11.0	1	156.593	0.024	223.254	-5.0	-5.0	15.9125	3.0	955.0	0.4	Certain	-9.58	-1.1	0.0	No	4.0	8.48357870894677	2.568	159.161		GetAnswer	Mixed
11.0	1	159.184	0.023	225.845	-5.0	-5.0	15.9125	4.0	955.0	0.4	Certain	-9.58	-1.1	0.0	No		8.48357870894677				ShowChoice	Mixed
11.0	1	163.212	0.028	229.873	-5.0	-5.0	15.9125	1.0	955.0	0.4	Certain	-9.58	-1.1	0.0	No		8.48357870894677				ShowResult	Mixed
11.0	1	164.232	0.02	230.893	-5.0	-5.0	15.9125	3.324	955.0	0.4	Certain	-9.58	-1.1	0.0	No		8.48357870894677				ISITrial	Mixed
12.0	1	167.575	0.019	234.236	8.1	-0.31	16.925	3.0	955.0	4.2	Outcome1	8.1	-0.62	2618.75	Yes	2.0	8.72253680634202	1.443	169.018		GetAnswer	Gain
12.0	1	169.047	0.029	235.708	8.1	-0.31	16.925	4.0	955.0	4.2	Outcome1	8.1	-0.62	2618.75	Yes		8.72253680634202				ShowChoice	Gain
12.0	1	173.075	0.028	239.736	8.1	-0.31	16.925	1.0	955.0	4.2	Outcome1	8.1	-0.62	2618.75	Yes		8.72253680634202				ShowResult	Gain
12.0	1	174.095	0.02	240.756	8.1	-0.31	16.925	6.642	955.0	4.2	Outcome1	8.1	-0.62	2618.75	Yes		8.72253680634202				ISITrial	Gain
12.0	1	183.406	0.022	250.067	8.1	-0.31	16.925	3.1	955.0	4.2	Outcome1	8.1	-0.62	2618.75	Yes		8.72253680634202			568.0	TrialHappiness	Gain
12.0	1	187.435	4.029	254.096	8.1	-0.31	16.925	2.475	955.0	4.2	Outcome1	8.1	-0.62	2618.75	Yes		8.72253680634202				ISIRate	Gain
13.0	1	189.942	0.032	256.603	12.3	0.18	18.4625	3.0	955.0	5.0	Outcome2	0.35	12.3	0.0	No	2.0	11.951302378255901	1.211	191.153		GetAnswer	Loss
13.0	1	191.179	0.026	257.84	12.3	0.18	18.4625	4.0	955.0	5.0	Outcome2	0.35	12.3	0.0	No		11.951302378255901				ShowChoice	Loss
13.0	1	195.191	0.012	261.852	12.3	0.18	18.4625	1.0	955.0	5.0	Outcome2	0.35	12.3	0.0	No		11.951302378255901				ShowResult	Loss
13.0	1	196.211	0.02	262.872	12.3	0.18	18.4625	3.48	955.0	5.0	Outcome2	0.35	12.3	0.0	No		11.951302378255901				ISITrial	Loss
14.0	1	199.721	0.03	266.382	2.1	-4.0	18.725	3.0	955.0	1.5	Outcome2	-10.29	2.1	0.0	No	2.0	12.3895809739524	1.961	201.682		GetAnswer	Mixed
14.0	1	201.711	0.029	268.372	2.1	-4.0	18.725	4.0	955.0	1.5	Outcome2	-10.29	2.1	0.0	No		12.3895809739524				ShowChoice	Mixed
14.0	1	205.739	0.028	272.4	2.1	-4.0	18.725	1.0	955.0	1.5	Outcome2	-10.29	2.1	0.0	No		12.3895809739524				ShowResult	Mixed
14.0	1	206.759	0.02	273.42	2.1	-4.0	18.725	5.019	955.0	1.5	Outcome2	-10.29	2.1	0.0	No		12.3895809739524				ISITrial	Mixed
15.0	1	211.808	0.03	278.469	6.61	3.3	19.5512	3.0	955.0	1.82	Outcome1	6.61	8.7	3348.5	Yes	2.0	-2.09163835409589	1.355	213.163		GetAnswer	Gain
15.0	1	213.178	0.015	279.839	6.61	3.3	19.5512	4.0	955.0	1.82	Outcome1	6.61	8.7	3348.5	Yes		-2.09163835409589				ShowChoice	Gain
15.0	1	217.207	0.029	283.868	6.61	3.3	19.5512	1.0	955.0	1.82	Outcome1	6.61	8.7	3348.5	Yes		-2.09163835409589				ShowResult	Gain
15.0	1	218.227	0.02	284.888	6.61	3.3	19.5512	7.614	955.0	1.82	Outcome1	6.61	8.7	3348.5	Yes		-2.09163835409589				ISITrial	Gain
15.0	1	229.243	0.029	295.904	6.61	3.3	19.5512	2.901	955.0	1.82	Outcome1	6.61	8.7	3348.5	Yes		-2.09163835409589			348.0	TrialHappiness	Gain
15.0	1	233.255	4.012	299.916	6.61	3.3	19.5512	5.394	955.0	1.82	Outcome1	6.61	8.7	3348.5	Yes		-2.09163835409589				ISIRate	Gain
16.0	1	238.671	0.022	305.332	4.9	-3.0	20.1637	3.0	955.0	2.0	Outcome1	4.9	-12.1	0.0	No	2.0	17.0033975084938	1.872	240.543		GetAnswer	Gain
16.0	1	240.56	0.017	307.221	4.9	-3.0	20.1637	4.0	955.0	2.0	Outcome1	4.9	-12.1	0.0	No		17.0033975084938				ShowChoice	Gain
16.0	1	244.572	0.012	311.233	4.9	-3.0	20.1637	1.0	955.0	2.0	Outcome1	4.9	-12.1	0.0	No		17.0033975084938				ShowResult	Gain
16.0	1	245.592	0.02	312.253	4.9	-3.0	20.1637	3.008	955.0	2.0	Outcome1	4.9	-12.1	0.0	No		17.0033975084938				ISITrial	Gain
17.0	1	248.618	0.018	315.279	7.62	3.81	21.1162	3.0	955.0	1.82	Outcome1	7.62	10.7	3041.5	Yes	2.0	-3.07823707059268	1.435	250.053		GetAnswer	Loss
17.0	1	250.072	0.019	316.733	7.62	3.81	21.1162	4.0	955.0	1.82	Outcome1	7.62	10.7	3041.5	Yes		-3.07823707059268				ShowChoice	Loss
17.0	1	254.084	0.012	320.745	7.62	3.81	21.1162	1.0	955.0	1.82	Outcome1	7.62	10.7	3041.5	Yes		-3.07823707059268				ShowResult	Loss
17.0	1	255.104	0.02	321.765	7.62	3.81	21.1162	3.566	955.0	1.82	Outcome1	7.62	10.7	3041.5	Yes		-3.07823707059268				ISITrial	Loss
17.0	1	261.74	0.017	328.401	7.62	3.81	21.1162	0.609	955.0	1.82	Outcome1	7.62	10.7	3041.5	Yes		-3.07823707059268			456.0	TrialHappiness	Loss
17.0	1	265.752	4.012	332.413	7.62	3.81	21.1162	4.166	955.0	1.82	Outcome1	7.62	10.7	3041.5	Yes		-3.07823707059268				ISIRate	Loss
18.0	1	269.948	0.03	336.609	-1.0	-1.0	20.9912	3.0	955.0	1.82	Certain	-9.84	6.7	0.0	No	4.0	16.5436013590034	2.207	272.155		GetAnswer	Gain
18.0	1	272.171	0.016	338.832	-1.0	-1.0	20.9912	4.0	955.0	1.82	Certain	-9.84	6.7	0.0	No		16.5436013590034				ShowChoice	Gain
18.0	1	276.183	0.012	342.844	-1.0	-1.0	20.9912	1.0	955.0	1.82	Certain	-9.84	6.7	0.0	No		16.5436013590034				ShowResult	Gain
18.0	1	277.203	0.02	343.864	-1.0	-1.0	20.9912	6.787	955.0	1.82	Certain	-9.84	6.7	0.0	No		16.5436013590034				ISITrial	Gain
19.0	1	284.007	0.017	350.668	-5.0	-5.0	20.3662	3.0	955.0	0.4	Certain	-14.21	2.9	0.0	No	4.0	17.1087202718007	1.649	285.656		GetAnswer	Mixed
19.0	1	285.678	0.022	352.339	-5.0	-5.0	20.3662	4.0	955.0	0.4	Certain	-14.21	2.9	0.0	No		17.1087202718007				ShowChoice	Mixed
19.0	1	289.69	0.012	356.351	-5.0	-5.0	20.3662	1.0	955.0	0.4	Certain	-14.21	2.9	0.0	No		17.1087202718007				ShowResult	Mixed
19.0	1	290.71	0.02	357.371	-5.0	-5.0	20.3662	2.0	955.0	0.4	Certain	-14.21	2.9	0.0	No		17.1087202718007				ISITrial	Mixed
20.0	1	292.733	0.023	359.394	5.1	-3.0	21.0037	3.0	955.0	2.22	Outcome2	-12.57	5.1	2921.25	Yes	2.0	17.673839184598	2.027	294.76		GetAnswer	Gain
20.0	1	294.772	0.012	361.433	5.1	-3.0	21.0037	4.0	955.0	2.22	Outcome2	-12.57	5.1	2921.25	Yes		17.673839184598				ShowChoice	Gain
20.0	1	298.784	0.012	365.445	5.1	-3.0	21.0037	1.0	955.0	2.22	Outcome2	-12.57	5.1	2921.25	Yes		17.673839184598				ShowResult	Gain
20.0	1	299.804	0.02	366.465	5.1	-3.0	21.0037	8.0	955.0	2.22	Outcome2	-12.57	5.1	2921.25	Yes		17.673839184598				ISITrial	Gain
20.0	1	310.77	0.021	377.431	5.1	-3.0	21.0037	0.775	955.0	2.22	Outcome2	-12.57	5.1	2921.25	Yes		17.673839184598			648.0	TrialHappiness	Gain
20.0	1	314.782	4.012	381.443	5.1	-3.0	21.0037	3.685	955.0	2.22	Outcome2	-12.57	5.1	2921.25	Yes		17.673839184598				ISIRate	Gain
21.0	1	318.493	0.026	385.154	5.44	2.72	21.6837	3.0	955.0	2.8	Outcome1	5.44	7.5	0.0	No	2.0	-2.0593620234050602	1.418	319.911		GetAnswer	Gain
21.0	1	319.93	0.019	386.591	5.44	2.72	21.6837	4.0	955.0	2.8	Outcome1	5.44	7.5	0.0	No		-2.0593620234050602				ShowChoice	Gain
21.0	1	323.942	0.012	390.603	5.44	2.72	21.6837	1.0	955.0	2.8	Outcome1	5.44	7.5	0.0	No		-2.0593620234050602				ShowResult	Gain
21.0	1	324.962	0.02	391.623	5.44	2.72	21.6837	3.555	955.0	2.8	Outcome1	5.44	7.5	0.0	No		-2.0593620234050602				ISITrial	Gain
22.0	1	328.54	0.023	395.201	7.41	3.7	22.6099	3.0	955.0	2.8	Outcome1	7.41	9.5	3219.5	Yes	2.0	-2.08833522083805	1.195	329.735		GetAnswer	Gain
22.0	1	329.76	0.025	396.421	7.41	3.7	22.6099	4.0	955.0	2.8	Outcome1	7.41	9.5	3219.5	Yes		-2.08833522083805				ShowChoice	Gain
22.0	1	333.772	0.012	400.433	7.41	3.7	22.6099	1.0	955.0	2.8	Outcome1	7.41	9.5	3219.5	Yes		-2.08833522083805				ShowResult	Gain
22.0	1	334.792	0.02	401.453	7.41	3.7	22.6099	6.793	955.0	2.8	Outcome1	7.41	9.5	3219.5	Yes		-2.08833522083805				ISITrial	Gain
22.0	1	344.838	0.023	411.499	7.41	3.7	22.6099	0.775	955.0	2.8	Outcome1	7.41	9.5	3219.5	Yes		-2.08833522083805			640.0	TrialHappiness	Gain
22.0	1	348.85	4.012	415.511	7.41	3.7	22.6099	4.878	955.0	2.8	Outcome1	7.41	9.5	3219.5	Yes		-2.08833522083805				ISIRate	Gain
23.0	1	353.748	0.02	420.409	2.7	-5.0	22.9474	3.0	955.0	0.3	Outcome1	2.7	-13.11	0.0	No	2.0	15.808607021517599	1.304	355.052		GetAnswer	Mixed
23.0	1	355.069	0.017	421.73	2.7	-5.0	22.9474	4.0	955.0	0.3	Outcome1	2.7	-13.11	0.0	No		15.808607021517599				ShowChoice	Mixed
23.0	1	359.081	0.012	425.742	2.7	-5.0	22.9474	1.0	955.0	0.3	Outcome1	2.7	-13.11	0.0	No		15.808607021517599				ShowResult	Mixed
23.0	1	360.1	0.019	426.761	2.7	-5.0	22.9474	8.0	955.0	0.3	Outcome1	2.7	-13.11	0.0	No		15.808607021517599				ISITrial	Mixed
24.0	1	368.124	0.024	434.785	3.3	-5.0	23.3599	3.0	955.0	0.66	Outcome1	3.3	-12.87	3255.0	Yes	2.0	16.1653454133635	1.756	369.88		GetAnswer	Mixed
24.0	1	369.896	0.016	436.557	3.3	-5.0	23.3599	4.0	955.0	0.66	Outcome1	3.3	-12.87	3255.0	Yes		16.1653454133635				ShowChoice	Mixed
24.0	1	373.908	0.012	440.569	3.3	-5.0	23.3599	1.0	955.0	0.66	Outcome1	3.3	-12.87	3255.0	Yes		16.1653454133635				ShowResult	Mixed
24.0	1	374.928	0.02	441.589	3.3	-5.0	23.3599	2.0	955.0	0.66	Outcome1	3.3	-12.87	3255.0	Yes		16.1653454133635				ISITrial	Mixed
24.0	1	380.227	0.021	446.888	3.3	-5.0	23.3599	0.959	955.0	0.66	Outcome1	3.3	-12.87	3255.0	Yes		16.1653454133635			792.0	TrialHappiness	Mixed
24.0	1	384.239	4.012	450.9	3.3	-5.0	23.3599	5.02	955.0	0.66	Outcome1	3.3	-12.87	3255.0	Yes		16.1653454133635				ISIRate	Mixed
25.0	1	389.288	0.029	455.949	6.71	3.36	24.1987	3.0	955.0	5.0	Outcome1	6.71	8.3	0.0	No	2.0	-1.5923933559833898	1.062	390.35		GetAnswer	Gain
25.0	1	390.374	0.024	457.035	6.71	3.36	24.1987	4.0	955.0	5.0	Outcome1	6.71	8.3	0.0	No		-1.5923933559833898				ShowChoice	Gain
25.0	1	394.386	0.012	461.047	6.71	3.36	24.1987	1.0	955.0	5.0	Outcome1	6.71	8.3	0.0	No		-1.5923933559833898				ShowResult	Gain
25.0	1	395.406	0.02	462.067	6.71	3.36	24.1987	3.749	955.0	5.0	Outcome1	6.71	8.3	0.0	No		-1.5923933559833898				ISITrial	Gain
26.0	1	399.184	0.029	465.845	13.1	-0.51	25.8362	3.0	955.0	2.22	Outcome1	13.1	-1.02	0.0	No	2.0	14.124575311438301	1.735	400.919		GetAnswer	Loss
26.0	1	400.939	0.02	467.6	13.1	-0.51	25.8362	4.0	955.0	2.22	Outcome1	13.1	-1.02	0.0	No		14.124575311438301				ShowChoice	Loss
26.0	1	404.951	0.012	471.612	13.1	-0.51	25.8362	1.0	955.0	2.22	Outcome1	13.1	-1.02	0.0	No		14.124575311438301				ShowResult	Loss
26.0	1	405.971	0.02	472.632	13.1	-0.51	25.8362	7.834	955.0	2.22	Outcome1	13.1	-1.02	0.0	No		14.124575311438301				ISITrial	Loss
27.0	1	413.828	0.023	480.489	3.08	1.54	26.2212	3.0	955.0	1.82	Outcome2	4.7	3.08	2549.75	Yes	2.0	-1.6231596828992099	1.305	415.133		GetAnswer	Gain
27.0	1	415.148	0.015	481.809	3.08	1.54	26.2212	4.0	955.0	1.82	Outcome2	4.7	3.08	2549.75	Yes		-1.6231596828992099				ShowChoice	Gain
27.0	1	419.16	0.012	485.821	3.08	1.54	26.2212	1.0	955.0	1.82	Outcome2	4.7	3.08	2549.75	Yes		-1.6231596828992099				ShowResult	Gain
27.0	1	420.18	0.02	486.841	3.08	1.54	26.2212	4.225	955.0	1.82	Outcome2	4.7	3.08	2549.75	Yes		-1.6231596828992099				ISITrial	Gain
27.0	1	427.0	0.024	493.661	3.08	1.54	26.2212	0.842	955.0	1.82	Outcome2	4.7	3.08	2549.75	Yes	2{-2}	-1.6231596828992099	0.842	427.842	672.0	TrialHappiness	Gain
27.0	1	431.012	4.012	497.673	3.08	1.54	26.2212	2.199	955.0	1.82	Outcome2	4.7	3.08	2549.75	Yes		-1.6231596828992099				ISIRate	Gain
	1	433.236	0.025	499.897				-0.001								{SPACE}		54.87	488.106		Rest	
	1	488.133	0.027	554.794				4.0													BlockHappyPreview	
	1	492.145	0.012	558.806				1.527												72.0	BlockStartHappiness	
	1	498.196	0.01	564.857				-0.001								5.0		3.316	501.512		ScanWait	
	2	0.011	0.011	568.184				10.0													GetReady	
28.0	2	10.024	0.013	578.197	9.87	4.93	27.455	3.0	70.0	3.6	Outcome1	9.87	9.9	0.0	No	2.0	-0.0340136054421769	1.045	11.069		GetAnswer	Gain
28.0	2	11.094	0.025	579.267	9.87	4.93	27.455	4.0	70.0	3.6	Outcome1	9.87	9.9	0.0	No		-0.0340136054421769				ShowChoice	Gain
28.0	2	15.106	0.012	583.279	9.87	4.93	27.455	1.0	70.0	3.6	Outcome1	9.87	9.9	0.0	No		-0.0340136054421769				ShowResult	Gain
28.0	2	16.126	0.02	584.299	9.87	4.93	27.455	3.575	70.0	3.6	Outcome1	9.87	9.9	0.0	No		-0.0340136054421769				ISITrial	Gain
29.0	2	19.72	0.019	587.893	10.06	5.03	28.7125	3.0	70.0	4.2	Outcome2	10.1	10.06	3529.0	Yes	2.0	-0.036281179138321996	1.187	20.907		GetAnswer	Gain
29.0	2	20.923	0.016	589.096	10.06	5.03	28.7125	4.0	70.0	4.2	Outcome2	10.1	10.06	3529.0	Yes		-0.036281179138321996				ShowChoice	Gain
29.0	2	24.935	0.012	593.108	10.06	5.03	28.7125	1.0	70.0	4.2	Outcome2	10.1	10.06	3529.0	Yes		-0.036281179138321996				ShowResult	Gain
29.0	2	25.955	0.02	594.128	10.06	5.03	28.7125	3.955	70.0	4.2	Outcome2	10.1	10.06	3529.0	Yes		-0.036281179138321996				ISITrial	Gain
29.0	2	33.477	0.014	601.65	10.06	5.03	28.7125	1.41	70.0	4.2	Outcome2	10.1	10.06	3529.0	Yes		-0.036281179138321996			952.0	TrialHappiness	Gain
29.0	2	37.489	4.012	605.662	10.06	5.03	28.7125	6.116	70.0	4.2	Outcome2	10.1	10.06	3529.0	Yes		-0.036281179138321996				ISIRate	Gain
30.0	2	43.624	0.019	611.797	-1.0	-1.0	28.5875	3.0	70.0	3.6	Certain	-9.1	5.9	0.0	No	4.0	-15.004535147392302	2.409	46.033		GetAnswer	Gain
30.0	2	46.048	0.015	614.221	-1.0	-1.0	28.5875	4.0	70.0	3.6	Certain	-9.1	5.9	0.0	No		-15.004535147392302				ShowChoice	Gain
30.0	2	50.06	0.012	618.233	-1.0	-1.0	28.5875	1.0	70.0	3.6	Certain	-9.1	5.9	0.0	No		-15.004535147392302				ShowResult	Gain
30.0	2	51.08	0.02	619.253	-1.0	-1.0	28.5875	4.453	70.0	3.6	Certain	-9.1	5.9	0.0	No		-15.004535147392302				ISITrial	Gain
31.0	2	55.56	0.027	623.733	-8.1	0.0	27.575	3.0	70.0	3.6	Outcome2	7.9	-8.1	2503.25	Yes	2.0	-16.0045351473923	1.322	56.882		GetAnswer	Gain
31.0	2	56.897	0.015	625.07	-8.1	0.0	27.575	4.0	70.0	3.6	Outcome2	7.9	-8.1	2503.25	Yes		-16.0045351473923				ShowChoice	Gain
31.0	2	60.909	0.012	629.082	-8.1	0.0	27.575	1.0	70.0	3.6	Outcome2	7.9	-8.1	2503.25	Yes		-16.0045351473923				ShowResult	Gain
31.0	2	61.929	0.02	630.102	-8.1	0.0	27.575	4.786	70.0	3.6	Outcome2	7.9	-8.1	2503.25	Yes		-16.0045351473923				ISITrial	Gain
31.0	2	69.251	0.021	637.424	-8.1	0.0	27.575	2.348	70.0	3.6	Outcome2	7.9	-8.1	2503.25	Yes		-16.0045351473923			228.0	TrialHappiness	Gain
31.0	2	73.263	4.012	641.436	-8.1	0.0	27.575	2.013	70.0	3.6	Outcome2	7.9	-8.1	2503.25	Yes		-16.0045351473923				ISIRate	Gain
32.0	2	75.302	0.026	643.475	-5.59	-3.0	26.8762	3.0	70.0	0.52	Outcome1	-5.59	-0.9	0.0	No	2.0	-4.691609977324259	2.262	77.564		GetAnswer	Mixed
32.0	2	77.576	0.012	645.749	-5.59	-3.0	26.8762	4.0	70.0	0.52	Outcome1	-5.59	-0.9	0.0	No		-4.691609977324259				ShowChoice	Mixed
32.0	2	81.588	0.012	649.761	-5.59	-3.0	26.8762	1.0	70.0	0.52	Outcome1	-5.59	-0.9	0.0	No		-4.691609977324259				ShowResult	Mixed
32.0	2	82.608	0.02	650.781	-5.59	-3.0	26.8762	2.0	70.0	0.52	Outcome1	-5.59	-0.9	0.0	No		-4.691609977324259				ISITrial	Mixed
33.0	2	84.63	0.022	652.803	-5.17	-2.0	26.23	3.0	70.0	1.0	Outcome1	-5.17	-0.3	0.0	No	2.0	-4.870748299319731	2.105	86.735		GetAnswer	Mixed
33.0	2	86.753	0.018	654.926	-5.17	-2.0	26.23	4.0	70.0	1.0	Outcome1	-5.17	-0.3	0.0	No		-4.870748299319731				ShowChoice	Mixed
33.0	2	90.765	0.012	658.938	-5.17	-2.0	26.23	1.0	70.0	1.0	Outcome1	-5.17	-0.3	0.0	No		-4.870748299319731				ShowResult	Mixed
33.0	2	91.785	0.02	659.958	-5.17	-2.0	26.23	5.099	70.0	1.0	Outcome1	-5.17	-0.3	0.0	No		-4.870748299319731				ISITrial	Mixed
34.0	2	96.9	0.016	665.073	-1.0	-1.0	26.105	3.0	70.0	0.52	Certain	-3.95	1.1	3231.5	Yes	4.0	-5.04988662131519	1.382	98.282		GetAnswer	Mixed
34.0	2	98.304	0.022	666.477	-1.0	-1.0	26.105	4.0	70.0	0.52	Certain	-3.95	1.1	3231.5	Yes		-5.04988662131519				ShowChoice	Mixed
34.0	2	102.316	0.012	670.489	-1.0	-1.0	26.105	1.0	70.0	0.52	Certain	-3.95	1.1	3231.5	Yes		-5.04988662131519				ShowResult	Mixed
34.0	2	103.336	0.02	671.509	-1.0	-1.0	26.105	4.784	70.0	0.52	Certain	-3.95	1.1	3231.5	Yes		-5.04988662131519				ISITrial	Mixed
34.0	2	111.393	0.027	679.566	-1.0	-1.0	26.105	1.009	70.0	0.52	Certain	-3.95	1.1	3231.5	Yes		-5.04988662131519			248.0	TrialHappiness	Mixed
34.0	2	115.405	4.012	683.578	-1.0	-1.0	26.105	4.926	70.0	0.52	Certain	-3.95	1.1	3231.5	Yes		-5.04988662131519				ISIRate	Mixed
35.0	2	120.354	0.023	688.527	0.57	0.0	26.1763	3.0	70.0	2.0	Outcome1	0.57	-0.36	0.0	No	2.0	0.934996220710506	1.805	122.159		GetAnswer	Mixed
35.0	2	122.176	0.017	690.349	0.57	0.0	26.1763	4.0	70.0	2.0	Outcome1	0.57	-0.36	0.0	No		0.934996220710506				ShowChoice	Mixed
35.0	2	126.188	0.012	694.361	0.57	0.0	26.1763	1.0	70.0	2.0	Outcome1	0.57	-0.36	0.0	No		0.934996220710506				ShowResult	Mixed
35.0	2	127.207	0.019	695.38	0.57	0.0	26.1763	2.098	70.0	2.0	Outcome1	0.57	-0.36	0.0	No		0.934996220710506				ISITrial	Mixed
36.0	2	129.33	0.025	697.503	8.13	4.07	27.1926	3.0	70.0	3.6	Outcome1	8.13	13.9	3335.75	Yes	2.0	-5.77097505668934	1.206	130.536		GetAnswer	Loss
36.0	2	130.551	0.015	698.724	8.13	4.07	27.1926	4.0	70.0	3.6	Outcome1	8.13	13.9	3335.75	Yes		-5.77097505668934				ShowChoice	Loss
36.0	2	134.563	0.012	702.736	8.13	4.07	27.1926	1.0	70.0	3.6	Outcome1	8.13	13.9	3335.75	Yes		-5.77097505668934				ShowResult	Loss
36.0	2	135.582	0.019	703.755	8.13	4.07	27.1926	5.156	70.0	3.6	Outcome1	8.13	13.9	3335.75	Yes		-5.77097505668934				ISITrial	Loss
36.0	2	144.125	0.024	712.298	8.13	4.07	27.1926	0.758	70.0	3.6	Outcome1	8.13	13.9	3335.75	Yes		-5.77097505668934			384.0	TrialHappiness	Loss
36.0	2	148.137	4.012	716.31	8.13	4.07	27.1926	5.343	70.0	3.6	Outcome1	8.13	13.9	3335.75	Yes		-5.77097505668934				ISIRate	Loss
37.0	2	153.503	0.023	721.676	-1.0	-1.0	27.0676	3.0	70.0	0.52	Certain	3.1	-5.19	0.0	No	4.0	-8.285714285714281	2.086	155.589		GetAnswer	Mixed
37.0	2	155.609	0.02	723.782	-1.0	-1.0	27.0676	4.0	70.0	0.52	Certain	3.1	-5.19	0.0	No		-8.285714285714281				ShowChoice	Mixed
37.0	2	159.621	0.012	727.794	-1.0	-1.0	27.0676	1.0	70.0	0.52	Certain	3.1	-5.19	0.0	No		-8.285714285714281				ShowResult	Mixed
37.0	2	160.641	0.02	728.814	-1.0	-1.0	27.0676	3.598	70.0	0.52	Certain	3.1	-5.19	0.0	No		-8.285714285714281				ISITrial	Mixed
38.0	2	164.268	0.029	732.441	2.46	1.23	27.3751	3.0	70.0	2.22	Outcome2	11.1	2.46	0.0	No	2.0	-8.64172335600907	1.353	165.621		GetAnswer	Loss
38.0	2	165.639	0.018	733.812	2.46	1.23	27.3751	4.0	70.0	2.22	Outcome2	11.1	2.46	0.0	No		-8.64172335600907				ShowChoice	Loss
38.0	2	169.651	0.012	737.824	2.46	1.23	27.3751	1.0	70.0	2.22	Outcome2	11.1	2.46	0.0	No		-8.64172335600907				ShowResult	Loss
38.0	2	170.671	0.02	738.844	2.46	1.23	27.3751	4.787	70.0	2.22	Outcome2	11.1	2.46	0.0	No		-8.64172335600907				ISITrial	Loss
39.0	2	175.485	0.027	743.658	-0.1	-0.05	27.3626	3.0	70.0	2.0	Outcome1	-0.1	8.9	2864.25	Yes	2.0	-8.99773242630386	1.815	177.3		GetAnswer	Gain
39.0	2	177.324	0.024	745.497	-0.1	-0.05	27.3626	4.0	70.0	2.0	Outcome1	-0.1	8.9	2864.25	Yes		-8.99773242630386				ShowChoice	Gain
39.0	2	181.336	0.012	749.509	-0.1	-0.05	27.3626	1.0	70.0	2.0	Outcome1	-0.1	8.9	2864.25	Yes		-8.99773242630386				ShowResult	Gain
39.0	2	182.355	0.019	750.528	-0.1	-0.05	27.3626	2.348	70.0	2.0	Outcome1	-0.1	8.9	2864.25	Yes		-8.99773242630386				ISITrial	Gain
39.0	2	187.621	0.028	755.794	-0.1	-0.05	27.3626	0.842	70.0	2.0	Outcome1	-0.1	8.9	2864.25	Yes		-8.99773242630386			352.0	TrialHappiness	Gain
39.0	2	191.633	4.012	759.806	-0.1	-0.05	27.3626	3.457	70.0	2.0	Outcome1	-0.1	8.9	2864.25	Yes		-8.99773242630386				ISIRate	Gain
40.0	2	195.11	0.02	763.283	4.09	2.04	27.8738	3.0	70.0	2.0	Outcome2	12.9	4.09	0.0	No	2.0	-8.80952380952381	1.391	196.501		GetAnswer	Loss
40.0	2	196.514	0.013	764.687	4.09	2.04	27.8738	4.0	70.0	2.0	Outcome2	12.9	4.09	0.0	No		-8.80952380952381				ShowChoice	Loss
40.0	2	200.526	0.012	768.699	4.09	2.04	27.8738	1.0	70.0	2.0	Outcome2	12.9	4.09	0.0	No		-8.80952380952381				ShowResult	Loss
40.0	2	201.546	0.02	769.719	4.09	2.04	27.8738	3.158	70.0	2.0	Outcome2	12.9	4.09	0.0	No		-8.80952380952381				ISITrial	Loss
41.0	2	204.722	0.018	772.895	1.92	1.0	28.1138	3.0	70.0	3.16	Outcome2	0.41	1.92	4000.0	Yes	2.0	1.5068027210884398	1.699	206.421		GetAnswer	Gain
41.0	2	206.444	0.023	774.617	1.92	1.0	28.1138	4.0	70.0	3.16	Outcome2	0.41	1.92	4000.0	Yes		1.5068027210884398				ShowChoice	Gain
41.0	2	210.456	0.012	778.629	1.92	1.0	28.1138	1.0	70.0	3.16	Outcome2	0.41	1.92	4000.0	Yes		1.5068027210884398				ShowResult	Gain
41.0	2	211.476	0.02	779.649	1.92	1.0	28.1138	4.506	70.0	3.16	Outcome2	0.41	1.92	4000.0	Yes		1.5068027210884398				ISITrial	Gain
41.0	2	220.035	0.029	788.208	1.92	1.0	28.1138	0.0	70.0	3.16	Outcome2	0.41	1.92	4000.0	Yes		1.5068027210884398			512.0	TrialHappiness	Gain
41.0	2	224.047	4.012	792.22	1.92	1.0	28.1138	8.0	70.0	3.16	Outcome2	0.41	1.92	4000.0	Yes		1.5068027210884398				ISIRate	Gain
42.0	2	232.071	0.024	800.244	-5.0	-5.0	27.4888	3.0	70.0	0.2	Certain	-11.67	0.5	0.0	No	4.0	-12.1700680272109	1.847	233.918		GetAnswer	Mixed
42.0	2	233.943	0.025	802.116	-5.0	-5.0	27.4888	4.0	70.0	0.2	Certain	-11.67	0.5	0.0	No		-12.1700680272109				ShowChoice	Mixed
42.0	2	237.955	0.012	806.128	-5.0	-5.0	27.4888	1.0	70.0	0.2	Certain	-11.67	0.5	0.0	No		-12.1700680272109				ShowResult	Mixed
42.0	2	238.974	0.019	807.147	-5.0	-5.0	27.4888	6.248	70.0	0.2	Certain	-11.67	0.5	0.0	No		-12.1700680272109				ISITrial	Mixed
43.0	2	245.243	0.021	813.416	2.98	2.0	27.8613	3.0	70.0	3.6	Outcome2	0.75	2.98	2775.75	Yes	2.0	2.22524565381708	1.233	246.476		GetAnswer	Loss
43.0	2	246.497	0.021	814.67	2.98	2.0	27.8613	4.0	70.0	3.6	Outcome2	0.75	2.98	2775.75	Yes		2.22524565381708				ShowChoice	Loss
43.0	2	250.509	0.012	818.682	2.98	2.0	27.8613	1.0	70.0	3.6	Outcome2	0.75	2.98	2775.75	Yes		2.22524565381708				ShowResult	Loss
43.0	2	251.529	0.02	819.702	2.98	2.0	27.8613	4.596	70.0	3.6	Outcome2	0.75	2.98	2775.75	Yes		2.22524565381708				ISITrial	Loss
43.0	2	258.934	0.016	827.107	2.98	2.0	27.8613	0.758	70.0	3.6	Outcome2	0.75	2.98	2775.75	Yes		2.22524565381708			352.0	TrialHappiness	Loss
43.0	2	262.946	4.012	831.119	2.98	2.0	27.8613	3.103	70.0	3.6	Outcome2	0.75	2.98	2775.75	Yes		2.22524565381708				ISIRate	Loss
44.0	2	266.072	0.023	834.245	-4.0	-4.0	27.3613	3.0	70.0	0.4	Certain	-9.55	0.9	0.0	No	4.0	-10.4512471655329	2.018	268.09		GetAnswer	Mixed
44.0	2	268.112	0.022	836.285	-4.0	-4.0	27.3613	4.0	70.0	0.4	Certain	-9.55	0.9	0.0	No		-10.4512471655329				ShowChoice	Mixed
44.0	2	272.123	0.011	840.296	-4.0	-4.0	27.3613	1.0	70.0	0.4	Certain	-9.55	0.9	0.0	No		-10.4512471655329				ShowResult	Mixed
44.0	2	273.143	0.02	841.316	-4.0	-4.0	27.3613	2.42	70.0	0.4	Certain	-9.55	0.9	0.0	No		-10.4512471655329				ISITrial	Mixed
45.0	2	275.584	0.021	843.757	1.33	0.66	27.5275	3.0	70.0	4.2	Outcome2	12.1	1.33	0.0	No	2.0	-10.7709750566893	1.137	276.721		GetAnswer	Loss
45.0	2	276.737	0.015	844.91	1.33	0.66	27.5275	4.0	70.0	4.2	Outcome2	12.1	1.33	0.0	No		-10.7709750566893				ShowChoice	Loss
45.0	2	280.749	0.012	848.922	1.33	0.66	27.5275	1.0	70.0	4.2	Outcome2	12.1	1.33	0.0	No		-10.7709750566893				ShowResult	Loss
45.0	2	281.769	0.02	849.942	1.33	0.66	27.5275	3.144	70.0	4.2	Outcome2	12.1	1.33	0.0	No		-10.7709750566893				ISITrial	Loss
46.0	2	284.945	0.032	853.118	-9.19	-3.0	26.3787	3.0	70.0	1.2	Outcome1	-9.19	1.9	3841.25	Yes	2.0	-11.0907029478458	1.965	286.91		GetAnswer	Mixed
46.0	2	286.934	0.024	855.107	-9.19	-3.0	26.3787	4.0	70.0	1.2	Outcome1	-9.19	1.9	3841.25	Yes		-11.0907029478458				ShowChoice	Mixed
46.0	2	290.946	0.012	859.119	-9.19	-3.0	26.3787	1.0	70.0	1.2	Outcome1	-9.19	1.9	3841.25	Yes		-11.0907029478458				ShowResult	Mixed
46.0	2	291.966	0.02	860.139	-9.19	-3.0	26.3787	2.246	70.0	1.2	Outcome1	-9.19	1.9	3841.25	Yes		-11.0907029478458				ISITrial	Mixed
46.0	2	298.084	0.02	866.257	-9.19	-3.0	26.3787	1.879	70.0	1.2	Outcome1	-9.19	1.9	3841.25	Yes		-11.0907029478458			376.0	TrialHappiness	Mixed
46.0	2	302.096	4.012	870.269	-9.19	-3.0	26.3787	7.365	70.0	1.2	Outcome1	-9.19	1.9	3841.25	Yes		-11.0907029478458				ISIRate	Mixed
47.0	2	309.485	0.024	877.658	1.02	0.0	26.5062	3.0	70.0	1.5	Outcome2	-0.77	1.02	0.0	No	2.0	1.79440665154951	1.5	310.985		GetAnswer	Mixed
47.0	2	311.006	0.021	879.179	1.02	0.0	26.5062	4.0	70.0	1.5	Outcome2	-0.77	1.02	0.0	No		1.79440665154951				ShowChoice	Mixed
47.0	2	315.018	0.012	883.191	1.02	0.0	26.5062	1.0	70.0	1.5	Outcome2	-0.77	1.02	0.0	No		1.79440665154951				ShowResult	Mixed
47.0	2	316.038	0.02	884.211	1.02	0.0	26.5062	2.0	70.0	1.5	Outcome2	-0.77	1.02	0.0	No		1.79440665154951				ISITrial	Mixed
48.0	2	318.061	0.023	886.234	-6.87	-1.0	25.6474	3.0	70.0	2.48	Outcome1	-6.87	5.3	2831.75	Yes	2.0	-12.165532879818599	1.738	319.799		GetAnswer	Gain
48.0	2	319.816	0.017	887.989	-6.87	-1.0	25.6474	4.0	70.0	2.48	Outcome1	-6.87	5.3	2831.75	Yes		-12.165532879818599				ShowChoice	Gain
48.0	2	323.828	0.012	892.001	-6.87	-1.0	25.6474	1.0	70.0	2.48	Outcome1	-6.87	5.3	2831.75	Yes		-12.165532879818599				ShowResult	Gain
48.0	2	324.848	0.02	893.021	-6.87	-1.0	25.6474	3.692	70.0	2.48	Outcome1	-6.87	5.3	2831.75	Yes		-12.165532879818599				ISITrial	Gain
48.0	2	331.417	0.026	899.59	-6.87	-1.0	25.6474	1.477	70.0	2.48	Outcome1	-6.87	5.3	2831.75	Yes		-12.165532879818599			456.0	TrialHappiness	Gain
48.0	2	335.429	4.012	903.602	-6.87	-1.0	25.6474	3.327	70.0	2.48	Outcome1	-6.87	5.3	2831.75	Yes		-12.165532879818599				ISIRate	Gain
49.0	2	338.773	0.017	906.946	-11.37	-4.0	24.2261	3.0	70.0	0.2	Outcome1	-11.37	2.5	0.0	No	2.0	-13.8730158730159	1.883	340.656		GetAnswer	Mixed
49.0	2	340.678	0.022	908.851	-11.37	-4.0	24.2261	4.0	70.0	0.2	Outcome1	-11.37	2.5	0.0	No		-13.8730158730159				ShowChoice	Mixed
49.0	2	344.69	0.012	912.863	-11.37	-4.0	24.2261	1.0	70.0	0.2	Outcome1	-11.37	2.5	0.0	No		-13.8730158730159				ShowResult	Mixed
49.0	2	345.71	0.02	913.883	-11.37	-4.0	24.2261	8.0	70.0	0.2	Outcome1	-11.37	2.5	0.0	No		-13.8730158730159				ISITrial	Mixed
50.0	2	353.734	0.024	921.907	-6.0	-6.0	23.4761	3.0	70.0	0.3	Certain	0.7	-13.61	3547.25	Yes	4.0	-14.3106575963719	0.311	354.045		GetAnswer	Mixed
50.0	2	354.068	0.023	922.241	-6.0	-6.0	23.4761	4.0	70.0	0.3	Certain	0.7	-13.61	3547.25	Yes		-14.3106575963719				ShowChoice	Mixed
50.0	2	358.08	0.012	926.253	-6.0	-6.0	23.4761	1.0	70.0	0.3	Certain	0.7	-13.61	3547.25	Yes		-14.3106575963719				ShowResult	Mixed
50.0	2	359.1	0.02	927.273	-6.0	-6.0	23.4761	7.537	70.0	0.3	Certain	0.7	-13.61	3547.25	Yes		-14.3106575963719				ISITrial	Mixed
50.0	2	370.233	0.03	938.406	-6.0	-6.0	23.4761	1.527	70.0	0.3	Certain	0.7	-13.61	3547.25	Yes	4{-4}	-14.3106575963719	1.527	371.76	72.0	TrialHappiness	Mixed
50.0	2	374.245	4.012	942.418	-6.0	-6.0	23.4761	6.189	70.0	0.3	Certain	0.7	-13.61	3547.25	Yes		-14.3106575963719				ISIRate	Mixed
51.0	2	380.464	0.03	948.637	0.0	0.0	23.4761	3.0	70.0	2.0	Certain	-0.61	0.08	0.0	No	4.0	0.6900982615268331	2.158	382.622		GetAnswer	Mixed
51.0	2	382.637	0.015	950.81	0.0	0.0	23.4761	4.0	70.0	2.0	Certain	-0.61	0.08	0.0	No		0.6900982615268331				ShowChoice	Mixed
51.0	2	386.649	0.012	954.822	0.0	0.0	23.4761	1.0	70.0	2.0	Certain	-0.61	0.08	0.0	No		0.6900982615268331				ShowResult	Mixed
51.0	2	387.669	0.02	955.842	0.0	0.0	23.4761	5.508	70.0	2.0	Certain	-0.61	0.08	0.0	No		0.6900982615268331				ISITrial	Mixed
52.0	2	393.202	0.025	961.375	2.12	2.0	23.7411	3.0	70.0	1.68	Outcome1	2.12	1.43	0.0	No	2.0	0.6902872260015122	1.141	394.343		GetAnswer	Gain
52.0	2	394.355	0.012	962.528	2.12	2.0	23.7411	4.0	70.0	1.68	Outcome1	2.12	1.43	0.0	No		0.6902872260015122				ShowChoice	Gain
52.0	2	398.367	0.012	966.54	2.12	2.0	23.7411	1.0	70.0	1.68	Outcome1	2.12	1.43	0.0	No		0.6902872260015122				ShowResult	Gain
52.0	2	399.387	0.02	967.56	2.12	2.0	23.7411	5.913	70.0	1.68	Outcome1	2.12	1.43	0.0	No		0.6902872260015122				ISITrial	Gain
53.0	2	405.321	0.021	973.494	-4.32	0.0	23.2011	3.0	70.0	1.2	Outcome1	-4.32	3.9	2996.75	Yes	2.0	-8.22222222222222	1.558	406.879		GetAnswer	Mixed
53.0	2	406.893	0.014	975.066	-4.32	0.0	23.2011	4.0	70.0	1.2	Outcome1	-4.32	3.9	2996.75	Yes		-8.22222222222222				ShowChoice	Mixed
53.0	2	410.905	0.012	979.078	-4.32	0.0	23.2011	1.0	70.0	1.2	Outcome1	-4.32	3.9	2996.75	Yes		-8.22222222222222				ShowResult	Mixed
53.0	2	411.924	0.019	980.097	-4.32	0.0	23.2011	3.66	70.0	1.2	Outcome1	-4.32	3.9	2996.75	Yes		-8.22222222222222				ISITrial	Mixed
53.0	2	418.628	0.029	986.801	-4.32	0.0	23.2011	1.042	70.0	1.2	Outcome1	-4.32	3.9	2996.75	Yes		-8.22222222222222			312.0	TrialHappiness	Mixed
53.0	2	422.64	4.012	990.813	-4.32	0.0	23.2011	3.987	70.0	1.2	Outcome1	-4.32	3.9	2996.75	Yes		-8.22222222222222				ISIRate	Mixed
54.0	2	426.652	0.025	994.825	-13.81	-7.0	21.4749	3.0	70.0	0.2	Outcome1	-13.81	-1.5	0.0	No	2.0	-12.306122448979599	2.45	429.102		GetAnswer	Mixed
54.0	2	429.126	0.024	997.299	-13.81	-7.0	21.4749	4.0	70.0	0.2	Outcome1	-13.81	-1.5	0.0	No		-12.306122448979599				ShowChoice	Mixed
54.0	2	433.138	0.012	1001.311	-13.81	-7.0	21.4749	1.0	70.0	0.2	Outcome1	-13.81	-1.5	0.0	No		-12.306122448979599				ShowResult	Mixed
54.0	2	434.157	0.019	1002.33	-13.81	-7.0	21.4749	8.0	70.0	0.2	Outcome1	-13.81	-1.5	0.0	No		-12.306122448979599				ISITrial	Mixed
	2	442.181	0.024	1010.354				-0.001								{SPACE}		37.616	479.797		Rest	
	2	479.81	0.013	1047.983				4.0													BlockHappyPreview	
	2	483.822	0.012	1051.995				1.985												268.0	BlockStartHappiness	
	2	489.824	0.011	1057.997				-0.001								5.0		2.544	492.368		ScanWait	
	3	0.013	0.013	1060.554				10.0													GetReady	
55.0	3	10.027	0.014	1070.568	4.3	-1.0	22.0124	3.0	955.0	2.0	Outcome2	-7.37	4.3	2533.25	Yes	2.0	11.6704416761042	1.809	11.836		GetAnswer	Mixed
55.0	3	11.849	0.013	1072.39	4.3	-1.0	22.0124	4.0	955.0	2.0	Outcome2	-7.37	4.3	2533.25	Yes		11.6704416761042				ShowChoice	Mixed
55.0	3	15.861	0.012	1076.402	4.3	-1.0	22.0124	1.0	955.0	2.0	Outcome2	-7.37	4.3	2533.25	Yes		11.6704416761042				ShowResult	Mixed
55.0	3	16.88	0.019	1077.421	4.3	-1.0	22.0124	7.709	955.0	2.0	Outcome2	-7.37	4.3	2533.25	Yes		11.6704416761042				ISITrial	Mixed
55.0	3	27.161	0.025	1087.702	4.3	-1.0	22.0124	1.343	955.0	2.0	Outcome2	-7.37	4.3	2533.25	Yes		11.6704416761042			320.0	TrialHappiness	Mixed
55.0	3	31.173	4.012	1091.714	4.3	-1.0	22.0124	2.133	955.0	2.0	Outcome2	-7.37	4.3	2533.25	Yes		11.6704416761042				ISIRate	Mixed
56.0	3	33.329	0.023	1093.87	11.5	-0.04	23.4499	3.0	955.0	2.8	Outcome2	-0.07	11.5	0.0	No	2.0	11.5651189127973	1.554	34.883		GetAnswer	Loss
56.0	3	34.901	0.018	1095.442	11.5	-0.04	23.4499	4.0	955.0	2.8	Outcome2	-0.07	11.5	0.0	No		11.5651189127973				ShowChoice	Loss
56.0	3	38.913	0.012	1099.454	11.5	-0.04	23.4499	1.0	955.0	2.8	Outcome2	-0.07	11.5	0.0	No		11.5651189127973				ShowResult	Loss
56.0	3	39.932	0.019	1100.473	11.5	-0.04	23.4499	4.697	955.0	2.8	Outcome2	-0.07	11.5	0.0	No		11.5651189127973				ISITrial	Loss
57.0	3	44.647	0.018	1105.188	1.5	-4.0	23.6374	3.0	955.0	0.82	Outcome1	1.5	-10.78	0.0	No	2.0	12.284258210645499	2.822	47.469		GetAnswer	Mixed
57.0	3	47.488	0.018	1108.029	1.5	-4.0	23.6374	4.0	955.0	0.82	Outcome1	1.5	-10.78	0.0	No		12.284258210645499				ShowChoice	Mixed
57.0	3	51.5	0.012	1112.041	1.5	-4.0	23.6374	1.0	955.0	0.82	Outcome1	1.5	-10.78	0.0	No		12.284258210645499				ShowResult	Mixed
57.0	3	52.52	0.02	1113.061	1.5	-4.0	23.6374	4.291	955.0	0.82	Outcome1	1.5	-10.78	0.0	No		12.284258210645499				ISITrial	Mixed
58.0	3	56.833	0.022	1117.374	13.3	0.15	25.2999	3.0	955.0	2.48	Outcome1	13.3	0.3	3045.75	Yes	2.0	13.0033975084938	1.32	58.153		GetAnswer	Loss
58.0	3	58.17	0.017	1118.711	13.3	0.15	25.2999	4.0	955.0	2.48	Outcome1	13.3	0.3	3045.75	Yes		13.0033975084938				ShowChoice	Loss
58.0	3	62.182	0.012	1122.723	13.3	0.15	25.2999	1.0	955.0	2.48	Outcome1	13.3	0.3	3045.75	Yes		13.0033975084938				ShowResult	Loss
58.0	3	63.202	0.02	1123.743	13.3	0.15	25.2999	2.037	955.0	2.48	Outcome1	13.3	0.3	3045.75	Yes		13.0033975084938				ISITrial	Loss
58.0	3	68.334	0.03	1128.875	13.3	0.15	25.2999	0.624	955.0	2.48	Outcome1	13.3	0.3	3045.75	Yes		13.0033975084938			424.0	TrialHappiness	Loss
58.0	3	72.346	4.012	1132.887	13.3	0.15	25.2999	4.183	955.0	2.48	Outcome1	13.3	0.3	3045.75	Yes		13.0033975084938				ISIRate	Loss
59.0	3	76.559	0.03	1137.1	10.9	-0.53	26.6624	3.0	955.0	2.0	Outcome1	10.9	-1.06	0.0	No	2.0	11.955832389581001	1.219	77.778		GetAnswer	Loss
59.0	3	77.796	0.018	1138.337	10.9	-0.53	26.6624	4.0	955.0	2.0	Outcome1	10.9	-1.06	0.0	No		11.955832389581001				ShowChoice	Loss
59.0	3	81.808	0.012	1142.349	10.9	-0.53	26.6624	1.0	955.0	2.0	Outcome1	10.9	-1.06	0.0	No		11.955832389581001				ShowResult	Loss
59.0	3	82.827	0.019	1143.368	10.9	-0.53	26.6624	5.064	955.0	2.0	Outcome1	10.9	-1.06	0.0	No		11.955832389581001				ISITrial	Loss
60.0	3	87.909	0.018	1148.45	-0.75	0.0	26.5686	3.0	955.0	1.0	Outcome2	1.7	-0.75	3562.5	Yes	2.0	-2.44960362400906	1.507	89.416		GetAnswer	Mixed
60.0	3	89.43	0.014	1149.971	-0.75	0.0	26.5686	4.0	955.0	1.0	Outcome2	1.7	-0.75	3562.5	Yes		-2.44960362400906				ShowChoice	Mixed
60.0	3	93.442	0.012	1153.983	-0.75	0.0	26.5686	1.0	955.0	1.0	Outcome2	1.7	-0.75	3562.5	Yes		-2.44960362400906				ShowResult	Mixed
60.0	3	94.462	0.02	1155.003	-0.75	0.0	26.5686	8.0	955.0	1.0	Outcome2	1.7	-0.75	3562.5	Yes		-2.44960362400906				ISITrial	Mixed
60.0	3	106.063	0.015	1166.604	-0.75	0.0	26.5686	1.813	955.0	1.0	Outcome2	1.7	-0.75	3562.5	Yes	4{-4}2{-2}2{-2}	-2.44960362400906	1.813	107.876	448.0	TrialHappiness	Mixed
60.0	3	110.075	4.012	1170.616	-0.75	0.0	26.5686	6.25	955.0	1.0	Outcome2	1.7	-0.75	3562.5	Yes		-2.44960362400906				ISIRate	Mixed
61.0	3	116.344	0.019	1176.885	3.1	1.55	26.9561	3.0	955.0	2.8	Outcome1	3.1	5.5	0.0	No	2.0	-2.4023216308040802	1.383	117.727		GetAnswer	Gain
61.0	3	117.748	0.021	1178.289	3.1	1.55	26.9561	4.0	955.0	2.8	Outcome1	3.1	5.5	0.0	No		-2.4023216308040802				ShowChoice	Gain
61.0	3	121.76	0.012	1182.301	3.1	1.55	26.9561	1.0	955.0	2.8	Outcome1	3.1	5.5	0.0	No		-2.4023216308040802				ShowResult	Gain
61.0	3	122.78	0.02	1183.321	3.1	1.55	26.9561	4.586	955.0	2.8	Outcome1	3.1	5.5	0.0	No		-2.4023216308040802				ISITrial	Gain
62.0	3	127.394	0.028	1187.935	-0.5	-7.0	26.8936	3.0	955.0	0.82	Outcome1	-0.5	-13.82	3748.75	Yes	2.0	13.325028312570801	2.344	129.738		GetAnswer	Mixed
62.0	3	129.751	0.013	1190.292	-0.5	-7.0	26.8936	4.0	955.0	0.82	Outcome1	-0.5	-13.82	3748.75	Yes		13.325028312570801				ShowChoice	Mixed
62.0	3	133.763	0.012	1194.304	-0.5	-7.0	26.8936	1.0	955.0	0.82	Outcome1	-0.5	-13.82	3748.75	Yes		13.325028312570801				ShowResult	Mixed
62.0	3	134.782	0.019	1195.323	-0.5	-7.0	26.8936	5.212	955.0	0.82	Outcome1	-0.5	-13.82	3748.75	Yes		13.325028312570801				ISITrial	Mixed
62.0	3	143.793	0.029	1204.334	-0.5	-7.0	26.8936	1.979	955.0	0.82	Outcome1	-0.5	-13.82	3748.75	Yes		13.325028312570801			484.0	TrialHappiness	Mixed
62.0	3	147.805	4.012	1208.346	-0.5	-7.0	26.8936	6.995	955.0	0.82	Outcome1	-0.5	-13.82	3748.75	Yes		13.325028312570801				ISIRate	Mixed
63.0	3	154.826	0.026	1215.367	4.5	-2.0	27.4561	3.0	955.0	1.68	Outcome1	4.5	-8.79	0.0	No	2.0	13.287655719139302	2.485	157.311		GetAnswer	Gain
63.0	3	157.333	0.022	1217.874	4.5	-2.0	27.4561	4.0	955.0	1.68	Outcome1	4.5	-8.79	0.0	No		13.287655719139302				ShowChoice	Gain
63.0	3	161.345	0.012	1221.886	4.5	-2.0	27.4561	1.0	955.0	1.68	Outcome1	4.5	-8.79	0.0	No		13.287655719139302				ShowResult	Gain
63.0	3	162.365	0.02	1222.906	4.5	-2.0	27.4561	5.595	955.0	1.68	Outcome1	4.5	-8.79	0.0	No		13.287655719139302				ISITrial	Gain
64.0	3	167.982	0.022	1228.523	7.3	0.0	28.3686	3.0	955.0	2.48	Outcome1	7.3	-6.52	0.0	No	2.0	13.821064552661399	1.26	169.242		GetAnswer	Gain
64.0	3	169.269	0.027	1229.81	7.3	0.0	28.3686	4.0	955.0	2.48	Outcome1	7.3	-6.52	0.0	No		13.821064552661399				ShowChoice	Gain
64.0	3	173.281	0.012	1233.822	7.3	0.0	28.3686	1.0	955.0	2.48	Outcome1	7.3	-6.52	0.0	No		13.821064552661399				ShowResult	Gain
64.0	3	174.3	0.019	1234.841	7.3	0.0	28.3686	5.47	955.0	2.48	Outcome1	7.3	-6.52	0.0	No		13.821064552661399				ISITrial	Gain
65.0	3	179.8	0.03	1240.341	4.06	2.03	28.8761	3.0	955.0	1.68	Outcome2	6.5	4.06	2996.75	Yes	2.0	-2.44082672706682	2.238	182.038		GetAnswer	Gain
65.0	3	182.057	0.019	1242.598	4.06	2.03	28.8761	4.0	955.0	1.68	Outcome2	6.5	4.06	2996.75	Yes		-2.44082672706682				ShowChoice	Gain
65.0	3	186.069	0.012	1246.61	4.06	2.03	28.8761	1.0	955.0	1.68	Outcome2	6.5	4.06	2996.75	Yes		-2.44082672706682				ShowResult	Gain
65.0	3	187.089	0.02	1247.63	4.06	2.03	28.8761	3.344	955.0	1.68	Outcome2	6.5	4.06	2996.75	Yes		-2.44082672706682				ISITrial	Gain
65.0	3	193.474	0.028	1254.015	4.06	2.03	28.8761	1.674	955.0	1.68	Outcome2	6.5	4.06	2996.75	Yes		-2.44082672706682			452.0	TrialHappiness	Gain
65.0	3	197.486	4.012	1258.027	4.06	2.03	28.8761	3.987	955.0	1.68	Outcome2	6.5	4.06	2996.75	Yes		-2.44082672706682				ISIRate	Gain
66.0	3	201.498	0.025	1262.039	9.1	1.0	30.0136	3.0	955.0	2.22	Outcome1	9.1	-6.33	0.0	No	2.0	15.431483578708901	1.656	203.154		GetAnswer	Gain
66.0	3	203.17	0.016	1263.711	9.1	1.0	30.0136	4.0	955.0	2.22	Outcome1	9.1	-6.33	0.0	No		15.431483578708901				ShowChoice	Gain
66.0	3	207.182	0.012	1267.723	9.1	1.0	30.0136	1.0	955.0	2.22	Outcome1	9.1	-6.33	0.0	No		15.431483578708901				ShowResult	Gain
66.0	3	208.202	0.02	1268.743	9.1	1.0	30.0136	3.959	955.0	2.22	Outcome1	9.1	-6.33	0.0	No		15.431483578708901				ISITrial	Gain
67.0	3	212.18	0.019	1272.721	9.3	1.0	31.1761	3.0	955.0	2.48	Outcome1	9.3	-6.7	2918.5	Yes	2.0	16.0011325028313	1.19	213.37		GetAnswer	Gain
67.0	3	213.384	0.014	1273.925	9.3	1.0	31.1761	4.0	955.0	2.48	Outcome1	9.3	-6.7	2918.5	Yes		16.0011325028313				ShowChoice	Gain
67.0	3	217.396	0.012	1277.937	9.3	1.0	31.1761	1.0	955.0	2.48	Outcome1	9.3	-6.7	2918.5	Yes		16.0011325028313				ShowResult	Gain
67.0	3	218.416	0.02	1278.957	9.3	1.0	31.1761	4.199	955.0	2.48	Outcome1	9.3	-6.7	2918.5	Yes		16.0011325028313				ISITrial	Gain
67.0	3	225.57	0.024	1286.111	9.3	1.0	31.1761	0.448	955.0	2.48	Outcome1	9.3	-6.7	2918.5	Yes		16.0011325028313			492.0	TrialHappiness	Gain
67.0	3	229.582	4.012	1290.123	9.3	1.0	31.1761	3.674	955.0	2.48	Outcome1	9.3	-6.7	2918.5	Yes		16.0011325028313				ISIRate	Gain
68.0	3	233.277	0.021	1293.818	13.5	-1.2	32.8636	3.0	955.0	2.8	Outcome1	13.5	-2.39	0.0	No	2.0	15.8912797281993	1.469	234.746		GetAnswer	Loss
68.0	3	234.764	0.018	1295.305	13.5	-1.2	32.8636	4.0	955.0	2.8	Outcome1	13.5	-2.39	0.0	No		15.8912797281993				ShowChoice	Loss
68.0	3	238.776	0.012	1299.317	13.5	-1.2	32.8636	1.0	955.0	2.8	Outcome1	13.5	-2.39	0.0	No		15.8912797281993				ShowResult	Loss
68.0	3	239.796	0.02	1300.337	13.5	-1.2	32.8636	2.185	955.0	2.8	Outcome1	13.5	-2.39	0.0	No		15.8912797281993				ISITrial	Loss
69.0	3	242.003	0.022	1302.544	9.7	1.0	34.0761	3.0	955.0	3.16	Outcome1	9.7	-6.72	0.0	No	2.0	16.4156285390713	1.143	243.146		GetAnswer	Gain
69.0	3	243.173	0.027	1303.714	9.7	1.0	34.0761	4.0	955.0	3.16	Outcome1	9.7	-6.72	0.0	No		16.4156285390713				ShowChoice	Gain
69.0	3	247.185	0.012	1307.726	9.7	1.0	34.0761	1.0	955.0	3.16	Outcome1	9.7	-6.72	0.0	No		16.4156285390713				ShowResult	Gain
69.0	3	248.205	0.02	1308.746	9.7	1.0	34.0761	2.0	955.0	3.16	Outcome1	9.7	-6.72	0.0	No		16.4156285390713				ISITrial	Gain
70.0	3	250.227	0.022	1310.768	6.1	-2.0	34.8386	3.0	955.0	4.2	Outcome1	6.1	-10.84	3651.25	Yes	2.0	16.939977349943398	2.163	252.39		GetAnswer	Gain
70.0	3	252.417	0.027	1312.958	6.1	-2.0	34.8386	4.0	955.0	4.2	Outcome1	6.1	-10.84	3651.25	Yes		16.939977349943398				ShowChoice	Gain
70.0	3	256.429	0.012	1316.97	6.1	-2.0	34.8386	1.0	955.0	4.2	Outcome1	6.1	-10.84	3651.25	Yes		16.939977349943398				ShowResult	Gain
70.0	3	257.449	0.02	1317.99	6.1	-2.0	34.8386	2.623	955.0	4.2	Outcome1	6.1	-10.84	3651.25	Yes		16.939977349943398				ISITrial	Gain
70.0	3	263.768	0.027	1324.309	6.1	-2.0	34.8386	0.0	955.0	4.2	Outcome1	6.1	-10.84	3651.25	Yes		16.939977349943398			512.0	TrialHappiness	Gain
70.0	3	267.78	4.012	1328.321	6.1	-2.0	34.8386	6.605	955.0	4.2	Outcome1	6.1	-10.84	3651.25	Yes		16.939977349943398				ISIRate	Gain
71.0	3	274.416	0.031	1334.957	6.3	-2.0	35.6261	3.0	955.0	5.0	Outcome2	-10.82	6.3	0.0	No	2.0	17.1245753114383	1.826	276.242		GetAnswer	Gain
71.0	3	276.255	0.013	1336.796	6.3	-2.0	35.6261	4.0	955.0	5.0	Outcome2	-10.82	6.3	0.0	No		17.1245753114383				ShowChoice	Gain
71.0	3	280.267	0.012	1340.808	6.3	-2.0	35.6261	1.0	955.0	5.0	Outcome2	-10.82	6.3	0.0	No		17.1245753114383				ShowResult	Gain
71.0	3	281.287	0.02	1341.828	6.3	-2.0	35.6261	5.499	955.0	5.0	Outcome2	-10.82	6.3	0.0	No		17.1245753114383				ISITrial	Gain
72.0	3	286.803	0.017	1347.344	-1.3	-10.0	35.4636	3.0	955.0	0.3	Outcome2	-18.93	-1.3	3080.5	Yes	2.0	17.626274065685198	1.8	288.603		GetAnswer	Mixed
72.0	3	288.625	0.022	1349.166	-1.3	-10.0	35.4636	4.0	955.0	0.3	Outcome2	-18.93	-1.3	3080.5	Yes		17.626274065685198				ShowChoice	Mixed
72.0	3	292.637	0.012	1353.178	-1.3	-10.0	35.4636	1.0	955.0	0.3	Outcome2	-18.93	-1.3	3080.5	Yes		17.626274065685198				ShowResult	Mixed
72.0	3	293.657	0.02	1354.198	-1.3	-10.0	35.4636	5.672	955.0	0.3	Outcome2	-18.93	-1.3	3080.5	Yes		17.626274065685198				ISITrial	Mixed
72.0	3	302.45	0.029	1362.991	-1.3	-10.0	35.4636	1.678	955.0	0.3	Outcome2	-18.93	-1.3	3080.5	Yes		17.626274065685198			312.0	TrialHappiness	Mixed
72.0	3	306.462	4.012	1367.003	-1.3	-10.0	35.4636	4.322	955.0	0.3	Outcome2	-18.93	-1.3	3080.5	Yes		17.626274065685198				ISIRate	Mixed
73.0	3	310.808	0.024	1371.349	10.3	0.0	36.7511	3.0	955.0	5.0	Outcome1	10.3	-11.23	0.0	No	2.0	21.5254813137033	1.24	312.048		GetAnswer	Gain
73.0	3	312.062	0.014	1372.603	10.3	0.0	36.7511	4.0	955.0	5.0	Outcome1	10.3	-11.23	0.0	No		21.5254813137033				ShowChoice	Gain
73.0	3	316.074	0.012	1376.615	10.3	0.0	36.7511	1.0	955.0	5.0	Outcome1	10.3	-11.23	0.0	No		21.5254813137033				ShowResult	Gain
73.0	3	317.094	0.02	1377.635	10.3	0.0	36.7511	4.616	955.0	5.0	Outcome1	10.3	-11.23	0.0	No		21.5254813137033				ISITrial	Gain
74.0	3	321.741	0.031	1382.282	7.1	-4.0	37.6386	3.0	955.0	2.22	Outcome1	7.1	-15.15	3056.25	Yes	2.0	22.253680634201604	1.86	323.601		GetAnswer	Gain
74.0	3	323.63	0.029	1384.171	7.1	-4.0	37.6386	4.0	955.0	2.22	Outcome1	7.1	-15.15	3056.25	Yes		22.253680634201604				ShowChoice	Gain
74.0	3	327.658	0.028	1388.199	7.1	-4.0	37.6386	1.0	955.0	2.22	Outcome1	7.1	-15.15	3056.25	Yes		22.253680634201604				ShowResult	Gain
74.0	3	328.678	0.02	1389.219	7.1	-4.0	37.6386	3.909	955.0	2.22	Outcome1	7.1	-15.15	3056.25	Yes		22.253680634201604				ISITrial	Gain
74.0	3	335.682	0.019	1396.223	7.1	-4.0	37.6386	0.934	955.0	2.22	Outcome1	7.1	-15.15	3056.25	Yes		22.253680634201604			456.0	TrialHappiness	Gain
74.0	3	339.694	4.012	1400.235	7.1	-4.0	37.6386	4.225	955.0	2.22	Outcome1	7.1	-15.15	3056.25	Yes		22.253680634201604				ISIRate	Gain
75.0	3	343.94	0.021	1404.481	-3.73	-2.0	37.1724	3.0	955.0	0.66	Outcome1	-3.73	-0.7	0.0	No	2.0	-3.02991694979237	1.918	345.858		GetAnswer	Mixed
75.0	3	345.88	0.021	1406.421	-3.73	-2.0	37.1724	4.0	955.0	0.66	Outcome1	-3.73	-0.7	0.0	No		-3.02991694979237				ShowChoice	Mixed
75.0	3	349.892	0.012	1410.433	-3.73	-2.0	37.1724	1.0	955.0	0.66	Outcome1	-3.73	-0.7	0.0	No		-3.02991694979237				ShowResult	Mixed
75.0	3	350.911	0.019	1411.452	-3.73	-2.0	37.1724	4.979	955.0	0.66	Outcome1	-3.73	-0.7	0.0	No		-3.02991694979237				ISITrial	Mixed
76.0	3	355.91	0.02	1416.451	-0.1	-10.0	37.1599	3.0	955.0	1.2	Outcome2	-21.2	-0.1	0.0	No	2.0	21.100792751981896	1.769	357.679		GetAnswer	Mixed
76.0	3	357.698	0.019	1418.239	-0.1	-10.0	37.1599	4.0	955.0	1.2	Outcome2	-21.2	-0.1	0.0	No		21.100792751981896				ShowChoice	Mixed
76.0	3	361.71	0.012	1422.251	-0.1	-10.0	37.1599	1.0	955.0	1.2	Outcome2	-21.2	-0.1	0.0	No		21.100792751981896				ShowResult	Mixed
76.0	3	362.73	0.02	1423.271	-0.1	-10.0	37.1599	3.931	955.0	1.2	Outcome2	-21.2	-0.1	0.0	No		21.100792751981896				ISITrial	Mixed
77.0	3	366.692	0.031	1427.233	7.38	3.69	38.0824	3.0	955.0	1.68	Outcome1	7.38	10.5	4000.0	Yes	2.0	-3.12410343525859	0.951	367.643		GetAnswer	Loss
77.0	3	367.661	0.018	1428.202	7.38	3.69	38.0824	4.0	955.0	1.68	Outcome1	7.38	10.5	4000.0	Yes		-3.12410343525859				ShowChoice	Loss
77.0	3	371.673	0.012	1432.214	7.38	3.69	38.0824	1.0	955.0	1.68	Outcome1	7.38	10.5	4000.0	Yes		-3.12410343525859				ShowResult	Loss
77.0	3	372.693	0.02	1433.234	7.38	3.69	38.0824	7.022	955.0	1.68	Outcome1	7.38	10.5	4000.0	Yes		-3.12410343525859				ISITrial	Loss
77.0	3	383.759	0.028	1444.3	7.38	3.69	38.0824	1.939	955.0	1.68	Outcome1	7.38	10.5	4000.0	Yes		-3.12410343525859			196.0	TrialHappiness	Loss
77.0	3	387.771	4.012	1448.312	7.38	3.69	38.0824	8.0	955.0	1.68	Outcome1	7.38	10.5	4000.0	Yes		-3.12410343525859				ISIRate	Loss
78.0	3	395.795	0.024	1456.336	8.47	4.24	39.1412	3.0	955.0	1.82	Outcome2	12.7	8.47	0.0	No	2.0	-4.22631181577954	1.153	396.948		GetAnswer	Loss
78.0	3	396.965	0.017	1457.506	8.47	4.24	39.1412	4.0	955.0	1.82	Outcome2	12.7	8.47	0.0	No		-4.22631181577954				ShowChoice	Loss
78.0	3	400.977	0.012	1461.518	8.47	4.24	39.1412	1.0	955.0	1.82	Outcome2	12.7	8.47	0.0	No		-4.22631181577954				ShowResult	Loss
78.0	3	401.997	0.02	1462.538	8.47	4.24	39.1412	2.078	955.0	1.82	Outcome2	12.7	8.47	0.0	No		-4.22631181577954				ISITrial	Loss
79.0	3	404.103	0.028	1464.644	3.1	-10.0	39.5287	3.0	955.0	0.52	Outcome2	-24.41	3.1	2729.5	Yes	2.0	27.5073612684032	1.81	405.913		GetAnswer	Mixed
79.0	3	405.926	0.013	1466.467	3.1	-10.0	39.5287	4.0	955.0	0.52	Outcome2	-24.41	3.1	2729.5	Yes		27.5073612684032				ShowChoice	Mixed
79.0	3	409.938	0.012	1470.479	3.1	-10.0	39.5287	1.0	955.0	0.52	Outcome2	-24.41	3.1	2729.5	Yes		27.5073612684032				ShowResult	Mixed
79.0	3	410.957	0.019	1471.498	3.1	-10.0	39.5287	3.829	955.0	0.52	Outcome2	-24.41	3.1	2729.5	Yes		27.5073612684032				ISITrial	Mixed
79.0	3	417.56	0.028	1478.101	3.1	-10.0	39.5287	1.431	955.0	0.52	Outcome2	-24.41	3.1	2729.5	Yes		27.5073612684032			424.0	TrialHappiness	Mixed
79.0	3	421.572	4.012	1482.113	3.1	-10.0	39.5287	2.918	955.0	0.52	Outcome2	-24.41	3.1	2729.5	Yes		27.5073612684032				ISIRate	Mixed
80.0	3	424.514	0.024	1485.055	1.9	-10.0	39.7662	3.0	955.0	1.2	Outcome1	1.9	-22.59	0.0	No	2.0	24.4937712344281	1.776	426.29		GetAnswer	Mixed
80.0	3	426.303	0.013	1486.844	1.9	-10.0	39.7662	4.0	955.0	1.2	Outcome1	1.9	-22.59	0.0	No		24.4937712344281				ShowChoice	Mixed
80.0	3	430.315	0.012	1490.856	1.9	-10.0	39.7662	1.0	955.0	1.2	Outcome1	1.9	-22.59	0.0	No		24.4937712344281				ShowResult	Mixed
80.0	3	431.335	0.02	1491.876	1.9	-10.0	39.7662	3.336	955.0	1.2	Outcome1	1.9	-22.59	0.0	No		24.4937712344281				ISITrial	Mixed
81.0	3	434.695	0.024	1495.236	2.3	-10.0	40.0537	3.0	955.0	2.0	Outcome2	-22.8	2.3	3923.75	Yes	2.0	25.095130237825604	2.114	436.809		GetAnswer	Mixed
81.0	3	436.835	0.026	1497.376	2.3	-10.0	40.0537	4.0	955.0	2.0	Outcome2	-22.8	2.3	3923.75	Yes		25.095130237825604				ShowChoice	Mixed
81.0	3	440.847	0.012	1501.388	2.3	-10.0	40.0537	1.0	955.0	2.0	Outcome2	-22.8	2.3	3923.75	Yes		25.095130237825604				ShowResult	Mixed
81.0	3	441.866	0.019	1502.407	2.3	-10.0	40.0537	3.919	955.0	2.0	Outcome2	-22.8	2.3	3923.75	Yes		25.095130237825604				ISITrial	Mixed
81.0	3	449.756	0.021	1510.297	2.3	-10.0	40.0537	0.638	955.0	2.0	Outcome2	-22.8	2.3	3923.75	Yes		25.095130237825604			472.0	TrialHappiness	Mixed
81.0	3	453.768	4.012	1514.309	2.3	-10.0	40.0537	7.695	955.0	2.0	Outcome2	-22.8	2.3	3923.75	Yes		25.095130237825604				ISIRate	Mixed
	3	461.491	0.028	1522.032				3.0													CurrentEarnings	
	3	464.517	0.026	1525.058				-0.001								{SPACE}		18.915	483.432		Goodbye	
