trial_number	block	onset	onset_delay	onset_unadjusted	amount_change	certain_amount	current_amount	duration	mood_target	multiplier	outcome	outcome1_amount	outcome2_amount	question_duration	rating	response	rpe	rt	rt_time	slider_response	trial_phase	trial_type
	0	-51.413	0.039	39.256				-0.001								{SPACE}		4.862	-46.551		Welcome	
	0	-46.515	0.036	44.154				5.0													LifeHappyPreview	
	0	-41.483	0.032	49.186				4.951												952.0	LifeHappiness	
	0	-27.257	0.023	63.412				4.0													BlockHappyPreview	
	0	-23.245	0.012	67.424				2.061												952.0	BlockStartHappiness	
	0	-10.122	0.013	80.547				-0.001								5.0					ScanWait	
	1	0.025	0.025	90.694				10.0													GetReady	
1.0	1	10.055	0.03	100.724	3.9	1.92	10.4875	3.0	955.0	1.2	Outcome2	3.85	3.9	0.0	No	2.0	0.0509626274065685	1.308	11.363		GetAnswer	Mixed
1.0	1	11.375	0.012	102.044	3.9	1.92	10.4875	4.0	955.0	1.2	Outcome2	3.85	3.9	0.0	No		0.0509626274065685				ShowChoice	Mixed
1.0	1	15.387	0.012	106.056	3.9	1.92	10.4875	1.0	955.0	1.2	Outcome2	3.85	3.9	0.0	No		0.0509626274065685				ShowResult	Mixed
1.0	1	16.407	0.02	107.076	3.9	1.92	10.4875	2.431	955.0	1.2	Outcome2	3.85	3.9	0.0	No		0.0509626274065685				ISITrial	Mixed
2.0	1	18.865	0.027	109.534	4.49	2.24	11.0487	3.0	955.0	1.68	Outcome2	4.5	4.49	0.0	No	2.0	-0.0124575311438279	1.201	20.066		GetAnswer	Gain
2.0	1	20.085	0.019	110.754	4.49	2.24	11.0487	4.0	955.0	1.68	Outcome2	4.5	4.49	0.0	No		-0.0124575311438279				ShowChoice	Gain
2.0	1	24.097	0.012	114.766	4.49	2.24	11.0487	1.0	955.0	1.68	Outcome2	4.5	4.49	0.0	No		-0.0124575311438279				ShowResult	Gain
2.0	1	25.117	0.02	115.786	4.49	2.24	11.0487	4.568	955.0	1.68	Outcome2	4.5	4.49	0.0	No		-0.0124575311438279				ISITrial	Gain
3.0	1	29.714	0.029	120.383	0.0	0.0	11.0487	3.0	955.0	0.82	Certain	-0.5	-0.51	2868.0	Yes	4.0	-0.0127406568516421	2.301	32.015		GetAnswer	Mixed
3.0	1	32.037	0.022	122.706	0.0	0.0	11.0487	4.0	955.0	0.82	Certain	-0.5	-0.51	2868.0	Yes		-0.0127406568516421				ShowChoice	Mixed
3.0	1	36.049	0.012	126.718	0.0	0.0	11.0487	1.0	955.0	0.82	Certain	-0.5	-0.51	2868.0	Yes		-0.0127406568516421				ShowResult	Mixed
3.0	1	37.069	0.02	127.738	0.0	0.0	11.0487	3.243	955.0	0.82	Certain	-0.5	-0.51	2868.0	Yes		-0.0127406568516421				ISITrial	Mixed
3.0	1	43.221	0.024	133.89	0.0	0.0	11.0487	2.028	955.0	0.82	Certain	-0.5	-0.51	2868.0	Yes		-0.0127406568516421			952.0	TrialHappiness	Mixed
3.0	1	47.25	4.029	137.919	0.0	0.0	11.0487	3.472	955.0	0.82	Certain	-0.5	-0.51	2868.0	Yes		-0.0127406568516421				ISIRate	Mixed
4.0	1	50.743	0.021	141.412	0.5	0.0	11.1112	3.0	955.0	0.2	Outcome2	0.44	0.5	0.0	No	2.0	0.0611551528878822	1.177	51.92		GetAnswer	Mixed
4.0	1	51.947	0.027	142.616	0.5	0.0	11.1112	4.0	955.0	0.2	Outcome2	0.44	0.5	0.0	No		0.0611551528878822				ShowChoice	Mixed
4.0	1	55.976	0.029	146.645	0.5	0.0	11.1112	1.0	955.0	0.2	Outcome2	0.44	0.5	0.0	No		0.0611551528878822				ShowResult	Mixed
4.0	1	56.996	0.02	147.665	0.5	0.0	11.1112	2.011	955.0	0.2	Outcome2	0.44	0.5	0.0	No		0.0611551528878822				ISITrial	Mixed
5.0	1	59.035	0.028	149.704	2.49	2.0	11.4225	3.0	955.0	0.2	Outcome1	2.49	2.5	2582.5	Yes	2.0	-0.0133069082672707	1.149	60.184		GetAnswer	Mixed
5.0	1	60.205	0.02	150.874	2.49	2.0	11.4225	4.0	955.0	0.2	Outcome1	2.49	2.5	2582.5	Yes		-0.0133069082672707				ShowChoice	Mixed
5.0	1	64.234	0.029	154.903	2.49	2.0	11.4225	1.0	955.0	0.2	Outcome1	2.49	2.5	2582.5	Yes		-0.0133069082672707				ShowResult	Mixed
5.0	1	65.254	0.02	155.923	2.49	2.0	11.4225	5.129	955.0	0.2	Outcome1	2.49	2.5	2582.5	Yes		-0.0133069082672707				ISITrial	Mixed
5.0	1	73.01	0.026	163.679	2.49	2.0	11.4225	1.953	955.0	0.2	Outcome1	2.49	2.5	2582.5	Yes		-0.0133069082672707			952.0	TrialHappiness	Mixed
5.0	1	77.039	4.029	167.708	2.49	2.0	11.4225	2.33	955.0	0.2	Outcome1	2.49	2.5	2582.5	Yes		-0.0133069082672707				ISIRate	Mixed
6.0	1	79.396	0.027	170.065	9.09	4.54	12.5587	3.0	955.0	2.22	Outcome2	9.1	9.09	0.0	No	2.0	-0.0135900339750849	0.843	80.239		GetAnswer	Gain
6.0	1	80.265	0.026	170.934	9.09	4.54	12.5587	4.0	955.0	2.22	Outcome2	9.1	9.09	0.0	No		-0.0135900339750849				ShowChoice	Gain
6.0	1	84.294	0.029	174.963	9.09	4.54	12.5587	1.0	955.0	2.22	Outcome2	9.1	9.09	0.0	No		-0.0135900339750849				ShowResult	Gain
6.0	1	85.314	0.02	175.983	9.09	4.54	12.5587	6.232	955.0	2.22	Outcome2	9.1	9.09	0.0	No		-0.0135900339750849				ISITrial	Gain
7.0	1	91.566	0.02	182.235	8.7	4.32	13.6462	3.0	955.0	1.82	Outcome1	8.7	8.63	0.0	No	2.0	0.0713476783691959	0.858	92.424		GetAnswer	Gain
7.0	1	92.452	0.028	183.121	8.7	4.32	13.6462	4.0	955.0	1.82	Outcome1	8.7	8.63	0.0	No		0.0713476783691959				ShowChoice	Gain
7.0	1	96.48	0.028	187.149	8.7	4.32	13.6462	1.0	955.0	1.82	Outcome1	8.7	8.63	0.0	No		0.0713476783691959				ShowResult	Gain
7.0	1	97.5	0.02	188.169	8.7	4.32	13.6462	2.305	955.0	1.82	Outcome1	8.7	8.63	0.0	No		0.0713476783691959				ISITrial	Gain
8.0	1	99.824	0.019	190.493	3.3	1.62	14.0587	3.0	955.0	0.66	Outcome2	3.23	3.3	3112.5	Yes	2.0	0.0747451868629672	1.003	100.827		GetAnswer	Mixed
8.0	1	100.844	0.017	191.513	3.3	1.62	14.0587	4.0	955.0	0.66	Outcome2	3.23	3.3	3112.5	Yes		0.0747451868629672				ShowChoice	Mixed
8.0	1	104.872	0.028	195.541	3.3	1.62	14.0587	1.0	955.0	0.66	Outcome2	3.23	3.3	3112.5	Yes		0.0747451868629672				ShowResult	Mixed
8.0	1	105.892	0.02	196.561	3.3	1.62	14.0587	3.506	955.0	0.66	Outcome2	3.23	3.3	3112.5	Yes		0.0747451868629672				ISITrial	Mixed
8.0	1	112.562	0.031	203.231	3.3	1.62	14.0587	1.677	955.0	0.66	Outcome2	3.23	3.3	3112.5	Yes		0.0747451868629672			952.0	TrialHappiness	Mixed
8.0	1	116.591	4.029	207.26	3.3	1.62	14.0587	4.45	955.0	0.66	Outcome2	3.23	3.3	3112.5	Yes		0.0747451868629672				ISIRate	Mixed
9.0	1	121.071	0.03	211.74	-1.0	-1.0	13.9337	3.0	955.0	0.2	Certain	-1.5	-1.58	0.0	No	4.0	0.0781426953567384	1.897	122.968		GetAnswer	Mixed
9.0	1	122.993	0.025	213.662	-1.0	-1.0	13.9337	4.0	955.0	0.2	Certain	-1.5	-1.58	0.0	No		0.0781426953567384				ShowChoice	Mixed
9.0	1	127.005	0.012	217.674	-1.0	-1.0	13.9337	1.0	955.0	0.2	Certain	-1.5	-1.58	0.0	No		0.0781426953567384				ShowResult	Mixed
9.0	1	128.025	0.02	218.694	-1.0	-1.0	13.9337	2.0	955.0	0.2	Certain	-1.5	-1.58	0.0	No		0.0781426953567384				ISITrial	Mixed
10.0	1	130.048	0.023	220.717	12.1	6.01	15.4462	3.0	955.0	4.2	Outcome2	12.02	12.1	4000.0	Yes	2.0	0.0815402038505096	1.016	131.064		GetAnswer	Loss
10.0	1	131.084	0.02	221.753	12.1	6.01	15.4462	4.0	955.0	4.2	Outcome2	12.02	12.1	4000.0	Yes		0.0815402038505096				ShowChoice	Loss
10.0	1	135.113	0.029	225.782	12.1	6.01	15.4462	1.0	955.0	4.2	Outcome2	12.02	12.1	4000.0	Yes		0.0815402038505096				ShowResult	Loss
10.0	1	136.133	0.02	226.802	12.1	6.01	15.4462	2.0	955.0	4.2	Outcome2	12.02	12.1	4000.0	Yes		0.0815402038505096				ISITrial	Loss
10.0	1	142.184	0.029	232.853	12.1	6.01	15.4462	1.661	955.0	4.2	Outcome2	12.02	12.1	4000.0	Yes		0.0815402038505096			952.0	TrialHappiness	Loss
10.0	1	146.196	4.012	236.865	12.1	6.01	15.4462	8.0	955.0	4.2	Outcome2	12.02	12.1	4000.0	Yes		0.0815402038505096				ISIRate	Loss
11.0	1	154.22	0.024	244.889	2.08	2.0	15.7062	3.0	955.0	1.5	Outcome1	2.08	2.1	0.0	No	2.0	-0.0150056625141563	1.316	155.536		GetAnswer	Mixed
11.0	1	155.557	0.021	246.226	2.08	2.0	15.7062	4.0	955.0	1.5	Outcome1	2.08	2.1	0.0	No		-0.0150056625141563				ShowChoice	Mixed
11.0	1	159.57	0.013	250.239	2.08	2.0	15.7062	1.0	955.0	1.5	Outcome1	2.08	2.1	0.0	No		-0.0150056625141563				ShowResult	Mixed
11.0	1	160.589	0.019	251.258	2.08	2.0	15.7062	3.324	955.0	1.5	Outcome1	2.08	2.1	0.0	No		-0.0150056625141563				ISITrial	Mixed
12.0	1	163.933	0.02	254.602	12.7	6.3	17.2937	3.0	955.0	1.82	Outcome2	12.61	12.7	2618.75	Yes	2.0	0.0883352208380521	0.833	164.766		GetAnswer	Loss
12.0	1	164.785	0.019	255.454	12.7	6.3	17.2937	4.0	955.0	1.82	Outcome2	12.61	12.7	2618.75	Yes		0.0883352208380521				ShowChoice	Loss
12.0	1	168.797	0.012	259.466	12.7	6.3	17.2937	1.0	955.0	1.82	Outcome2	12.61	12.7	2618.75	Yes		0.0883352208380521				ShowResult	Loss
12.0	1	169.817	0.02	260.486	12.7	6.3	17.2937	6.642	955.0	1.82	Outcome2	12.61	12.7	2618.75	Yes		0.0883352208380521				ISITrial	Loss
12.0	1	179.128	0.022	269.797	12.7	6.3	17.2937	1.528	955.0	1.82	Outcome2	12.61	12.7	2618.75	Yes		0.0883352208380521			952.0	TrialHappiness	Loss
12.0	1	183.14	4.012	273.809	12.7	6.3	17.2937	2.475	955.0	1.82	Outcome2	12.61	12.7	2618.75	Yes		0.0883352208380521				ISIRate	Loss
13.0	1	185.631	0.016	276.3	3.5	1.7	17.7312	3.0	955.0	0.82	Outcome1	3.5	3.41	0.0	No	2.0	0.0917327293318233	0.865	186.496		GetAnswer	Mixed
13.0	1	186.517	0.021	277.186	3.5	1.7	17.7312	4.0	955.0	0.82	Outcome1	3.5	3.41	0.0	No		0.0917327293318233				ShowChoice	Mixed
13.0	1	190.529	0.012	281.198	3.5	1.7	17.7312	1.0	955.0	0.82	Outcome1	3.5	3.41	0.0	No		0.0917327293318233				ShowResult	Mixed
13.0	1	191.549	0.02	282.218	3.5	1.7	17.7312	3.48	955.0	0.82	Outcome1	3.5	3.41	0.0	No		0.0917327293318233				ISITrial	Mixed
14.0	1	195.059	0.03	285.728	5.68	2.84	18.4412	3.0	955.0	3.16	Outcome1	5.68	5.7	0.0	No	2.0	-0.0158550396375991	0.254	195.313		GetAnswer	Gain
14.0	1	195.327	0.014	285.996	5.68	2.84	18.4412	4.0	955.0	3.16	Outcome1	5.68	5.7	0.0	No		-0.0158550396375991				ShowChoice	Gain
14.0	1	199.339	0.012	290.008	5.68	2.84	18.4412	1.0	955.0	3.16	Outcome1	5.68	5.7	0.0	No		-0.0158550396375991				ShowResult	Gain
14.0	1	200.358	0.019	291.027	5.68	2.84	18.4412	5.019	955.0	3.16	Outcome1	5.68	5.7	0.0	No		-0.0158550396375991				ISITrial	Gain
15.0	1	205.407	0.03	296.076	5.1	2.5	19.0787	3.0	955.0	2.22	Outcome2	5.0	5.1	3348.5	Yes	2.0	0.0985277463193658	1.118	206.525		GetAnswer	Gain
15.0	1	206.544	0.019	297.213	5.1	2.5	19.0787	4.0	955.0	2.22	Outcome2	5.0	5.1	3348.5	Yes		0.0985277463193658				ShowChoice	Gain
15.0	1	210.556	0.012	301.225	5.1	2.5	19.0787	1.0	955.0	2.22	Outcome2	5.0	5.1	3348.5	Yes		0.0985277463193658				ShowResult	Gain
15.0	1	211.575	0.019	302.244	5.1	2.5	19.0787	7.614	955.0	2.22	Outcome2	5.0	5.1	3348.5	Yes		0.0985277463193658				ISITrial	Gain
15.0	1	222.592	0.029	313.261	5.1	2.5	19.0787	2.849	955.0	2.22	Outcome2	5.0	5.1	3348.5	Yes		0.0985277463193658			952.0	TrialHappiness	Gain
15.0	1	226.604	4.012	317.273	5.1	2.5	19.0787	5.394	955.0	2.22	Outcome2	5.0	5.1	3348.5	Yes		0.0985277463193658				ISIRate	Gain
16.0	1	232.02	0.022	322.689	7.1	3.5	19.9662	3.0	955.0	2.22	Outcome2	7.0	7.1	0.0	No	2.0	0.101925254813137	0.943	232.963		GetAnswer	Gain
16.0	1	232.99	0.027	323.659	7.1	3.5	19.9662	4.0	955.0	2.22	Outcome2	7.0	7.1	0.0	No		0.101925254813137				ShowChoice	Gain
16.0	1	237.002	0.012	327.671	7.1	3.5	19.9662	1.0	955.0	2.22	Outcome2	7.0	7.1	0.0	No		0.101925254813137				ShowResult	Gain
16.0	1	238.021	0.019	328.69	7.1	3.5	19.9662	3.008	955.0	2.22	Outcome2	7.0	7.1	0.0	No		0.101925254813137				ISITrial	Gain
17.0	1	241.047	0.018	331.716	7.3	3.6	20.8787	3.0	955.0	2.48	Outcome2	7.19	7.3	3041.5	Yes	2.0	0.10532276330690801	1.098	242.145		GetAnswer	Gain
17.0	1	242.167	0.021	332.836	7.3	3.6	20.8787	4.0	955.0	2.48	Outcome2	7.19	7.3	3041.5	Yes		0.10532276330690801				ShowChoice	Gain
17.0	1	246.179	0.012	336.848	7.3	3.6	20.8787	1.0	955.0	2.48	Outcome2	7.19	7.3	3041.5	Yes		0.10532276330690801				ShowResult	Gain
17.0	1	247.199	0.02	337.868	7.3	3.6	20.8787	3.566	955.0	2.48	Outcome2	7.19	7.3	3041.5	Yes		0.10532276330690801				ISITrial	Gain
17.0	1	253.835	0.017	344.504	7.3	3.6	20.8787	2.265	955.0	2.48	Outcome2	7.19	7.3	3041.5	Yes		0.10532276330690801			952.0	TrialHappiness	Gain
17.0	1	257.847	4.012	348.516	7.3	3.6	20.8787	4.166	955.0	2.48	Outcome2	7.19	7.3	3041.5	Yes		0.10532276330690801				ISIRate	Gain
18.0	1	262.043	0.03	352.712	6.1	3.0	21.6412	3.0	955.0	4.2	Outcome1	6.1	5.99	0.0	No	2.0	0.108720271800679	0.82	262.863		GetAnswer	Gain
18.0	1	262.879	0.016	353.548	6.1	3.0	21.6412	4.0	955.0	4.2	Outcome1	6.1	5.99	0.0	No		0.108720271800679				ShowChoice	Gain
18.0	1	266.891	0.012	357.56	6.1	3.0	21.6412	1.0	955.0	4.2	Outcome1	6.1	5.99	0.0	No		0.108720271800679				ShowResult	Gain
18.0	1	267.911	0.02	358.58	6.1	3.0	21.6412	6.787	955.0	4.2	Outcome1	6.1	5.99	0.0	No		0.108720271800679				ISITrial	Gain
19.0	1	274.715	0.017	365.384	5.3	2.6	22.3037	3.0	955.0	2.48	Outcome2	5.19	5.3	0.0	No	2.0	0.11211778029445099	0.889	275.604		GetAnswer	Gain
19.0	1	275.617	0.013	366.286	5.3	2.6	22.3037	4.0	955.0	2.48	Outcome2	5.19	5.3	0.0	No		0.11211778029445099				ShowChoice	Gain
19.0	1	279.629	0.012	370.298	5.3	2.6	22.3037	1.0	955.0	2.48	Outcome2	5.19	5.3	0.0	No		0.11211778029445099				ShowResult	Gain
19.0	1	280.649	0.02	371.318	5.3	2.6	22.3037	2.0	955.0	2.48	Outcome2	5.19	5.3	0.0	No		0.11211778029445099				ISITrial	Gain
20.0	1	282.672	0.023	373.341	4.88	2.44	22.9137	3.0	955.0	2.0	Outcome2	4.9	4.88	2921.25	Yes	2.0	-0.0175537938844847	0.983	283.655		GetAnswer	Gain
20.0	1	283.675	0.02	374.344	4.88	2.44	22.9137	4.0	955.0	2.0	Outcome2	4.9	4.88	2921.25	Yes		-0.0175537938844847				ShowChoice	Gain
20.0	1	287.687	0.012	378.356	4.88	2.44	22.9137	1.0	955.0	2.0	Outcome2	4.9	4.88	2921.25	Yes		-0.0175537938844847				ShowResult	Gain
20.0	1	288.706	0.019	379.375	4.88	2.44	22.9137	8.0	955.0	2.0	Outcome2	4.9	4.88	2921.25	Yes		-0.0175537938844847				ISITrial	Gain
20.0	1	299.673	0.021	390.342	4.88	2.44	22.9137	2.883	955.0	2.0	Outcome2	4.9	4.88	2921.25	Yes	2{-2}2{-2}	-0.0175537938844847	2.883	302.556	952.0	TrialHappiness	Gain
20.0	1	303.685	4.012	394.354	4.88	2.44	22.9137	3.685	955.0	2.0	Outcome2	4.9	4.88	2921.25	Yes		-0.0175537938844847				ISIRate	Gain
21.0	1	307.396	0.026	398.065	1.08	1.0	23.0487	3.0	955.0	0.52	Outcome1	1.08	1.1	0.0	No	2.0	-0.017836919592299	1.911	309.307		GetAnswer	Mixed
21.0	1	309.335	0.028	400.004	1.08	1.0	23.0487	4.0	955.0	0.52	Outcome1	1.08	1.1	0.0	No		-0.017836919592299				ShowChoice	Mixed
21.0	1	313.347	0.012	404.016	1.08	1.0	23.0487	1.0	955.0	0.52	Outcome1	1.08	1.1	0.0	No		-0.017836919592299				ShowResult	Mixed
21.0	1	314.367	0.02	405.036	1.08	1.0	23.0487	3.555	955.0	0.52	Outcome1	1.08	1.1	0.0	No		-0.017836919592299				ISITrial	Mixed
22.0	1	317.944	0.022	408.613	10.08	5.04	24.3087	3.0	955.0	4.2	Outcome2	10.1	10.08	3219.5	Yes	2.0	-0.0181200453001133	1.056	319.0		GetAnswer	Gain
22.0	1	319.014	0.014	409.683	10.08	5.04	24.3087	4.0	955.0	4.2	Outcome2	10.1	10.08	3219.5	Yes		-0.0181200453001133				ShowChoice	Gain
22.0	1	323.026	0.012	413.695	10.08	5.04	24.3087	1.0	955.0	4.2	Outcome2	10.1	10.08	3219.5	Yes		-0.0181200453001133				ShowResult	Gain
22.0	1	324.046	0.02	414.715	10.08	5.04	24.3087	6.793	955.0	4.2	Outcome2	10.1	10.08	3219.5	Yes		-0.0181200453001133				ISITrial	Gain
22.0	1	334.109	0.023	424.778	10.08	5.04	24.3087	1.51	955.0	4.2	Outcome2	10.1	10.08	3219.5	Yes	2{-2}	-0.0181200453001133	1.51	335.619	952.0	TrialHappiness	Gain
22.0	1	338.121	4.012	428.79	10.08	5.04	24.3087	4.878	955.0	4.2	Outcome2	10.1	10.08	3219.5	Yes		-0.0181200453001133				ISIRate	Gain
23.0	1	343.019	0.02	433.688	5.9	2.88	25.0462	3.0	955.0	3.6	Outcome2	5.77	5.9	0.0	No	2.0	0.12570781426953598	1.238	344.257		GetAnswer	Gain
23.0	1	344.273	0.016	434.942	5.9	2.88	25.0462	4.0	955.0	3.6	Outcome2	5.77	5.9	0.0	No		0.12570781426953598				ShowChoice	Gain
23.0	1	348.285	0.012	438.954	5.9	2.88	25.0462	1.0	955.0	3.6	Outcome2	5.77	5.9	0.0	No		0.12570781426953598				ShowResult	Gain
23.0	1	349.305	0.02	439.974	5.9	2.88	25.0462	8.0	955.0	3.6	Outcome2	5.77	5.9	0.0	No		0.12570781426953598				ISITrial	Gain
24.0	1	357.329	0.024	447.998	11.9	5.88	26.5337	3.0	955.0	3.6	Outcome2	11.77	11.9	3255.0	Yes	2.0	0.129105322763307	0.99	358.319		GetAnswer	Loss
24.0	1	358.332	0.012	449.001	11.9	5.88	26.5337	4.0	955.0	3.6	Outcome2	11.77	11.9	3255.0	Yes		0.129105322763307				ShowChoice	Loss
24.0	1	362.344	0.012	453.013	11.9	5.88	26.5337	1.0	955.0	3.6	Outcome2	11.77	11.9	3255.0	Yes		0.129105322763307				ShowResult	Loss
24.0	1	363.364	0.02	454.033	11.9	5.88	26.5337	2.0	955.0	3.6	Outcome2	11.77	11.9	3255.0	Yes		0.129105322763307				ISITrial	Loss
24.0	1	368.663	0.022	459.332	11.9	5.88	26.5337	2.511	955.0	3.6	Outcome2	11.77	11.9	3255.0	Yes		0.129105322763307			952.0	TrialHappiness	Loss
24.0	1	372.675	4.012	463.344	11.9	5.88	26.5337	5.02	955.0	3.6	Outcome2	11.77	11.9	3255.0	Yes		0.129105322763307				ISIRate	Loss
25.0	1	377.723	0.028	468.392	1.7	1.0	26.7462	3.0	955.0	1.0	Outcome2	1.57	1.7	0.0	No	2.0	0.13250283125707799	0.848	378.571		GetAnswer	Mixed
25.0	1	378.592	0.021	469.261	1.7	1.0	26.7462	4.0	955.0	1.0	Outcome2	1.57	1.7	0.0	No		0.13250283125707799				ShowChoice	Mixed
25.0	1	382.621	0.029	473.29	1.7	1.0	26.7462	1.0	955.0	1.0	Outcome2	1.57	1.7	0.0	No		0.13250283125707799				ShowResult	Mixed
25.0	1	383.641	0.02	474.31	1.7	1.0	26.7462	3.749	955.0	1.0	Outcome2	1.57	1.7	0.0	No		0.13250283125707799				ISITrial	Mixed
26.0	1	387.419	0.029	478.088	6.7	3.28	27.5837	3.0	955.0	1.82	Outcome2	6.56	6.7	0.0	No	2.0	0.135900339750849	1.273	388.692		GetAnswer	Gain
26.0	1	388.706	0.014	479.375	6.7	3.28	27.5837	4.0	955.0	1.82	Outcome2	6.56	6.7	0.0	No		0.135900339750849				ShowChoice	Gain
26.0	1	392.718	0.012	483.387	6.7	3.28	27.5837	1.0	955.0	1.82	Outcome2	6.56	6.7	0.0	No		0.135900339750849				ShowResult	Gain
26.0	1	393.738	0.02	484.407	6.7	3.28	27.5837	7.834	955.0	1.82	Outcome2	6.56	6.7	0.0	No		0.135900339750849				ISITrial	Gain
27.0	1	401.595	0.023	492.264	3.1	1.48	27.9712	3.0	955.0	0.52	Outcome1	3.1	2.96	2549.75	Yes	2.0	0.13929784824462102	1.215	402.81		GetAnswer	Mixed
27.0	1	402.832	0.022	493.501	3.1	1.48	27.9712	4.0	955.0	0.52	Outcome1	3.1	2.96	2549.75	Yes		0.13929784824462102				ShowChoice	Mixed
27.0	1	406.861	0.029	497.53	3.1	1.48	27.9712	1.0	955.0	0.52	Outcome1	3.1	2.96	2549.75	Yes		0.13929784824462102				ShowResult	Mixed
27.0	1	407.88	0.019	498.549	3.1	1.48	27.9712	4.225	955.0	0.52	Outcome1	3.1	2.96	2549.75	Yes		0.13929784824462102				ISITrial	Mixed
27.0	1	414.701	0.025	505.37	3.1	1.48	27.9712	1.677	955.0	0.52	Outcome1	3.1	2.96	2549.75	Yes		0.13929784824462102			952.0	TrialHappiness	Mixed
27.0	1	418.713	4.012	509.382	3.1	1.48	27.9712	2.199	955.0	0.52	Outcome1	3.1	2.96	2549.75	Yes		0.13929784824462102				ISIRate	Mixed
	1	420.936	0.024	511.605				-0.001								{SPACE}		36.505	457.441		Rest	
	1	457.462	0.021	548.131				4.0													BlockHappyPreview	
	1	461.474	0.012	552.143				1.594												952.0	BlockStartHappiness	
	1	469.147	0.01	559.816				-0.001								5.0		2.808	471.955		ScanWait	
	2	0.017	0.017	562.641				10.0													GetReady	
28.0	2	10.047	0.03	572.671	-13.1	-5.0	26.3337	3.0	70.0	1.2	Outcome1	-13.1	1.9	0.0	No		-15.0				GetAnswer	Mixed
28.0	2	13.073	0.026	575.697	-13.1	-5.0	26.3337	4.0	70.0	1.2	Outcome1	-13.1	1.9	0.0	No		-15.0				ShowChoice	Mixed
28.0	2	17.085	0.012	579.709	-13.1	-5.0	26.3337	1.0	70.0	1.2	Outcome1	-13.1	1.9	0.0	No		-15.0				ShowResult	Mixed
28.0	2	18.105	0.02	580.729	-13.1	-5.0	26.3337	3.575	70.0	1.2	Outcome1	-13.1	1.9	0.0	No		-15.0				ISITrial	Mixed
29.0	2	21.699	0.019	584.323	0.0	0.0	26.3337	3.0	70.0	2.48	Certain	-1.34	2.33	3529.0	Yes	4.0	3.6666666666666696	0.95	22.649		GetAnswer	Gain
29.0	2	22.668	0.019	585.292	0.0	0.0	26.3337	4.0	70.0	2.48	Certain	-1.34	2.33	3529.0	Yes		3.6666666666666696				ShowChoice	Gain
29.0	2	26.68	0.012	589.304	0.0	0.0	26.3337	1.0	70.0	2.48	Certain	-1.34	2.33	3529.0	Yes		3.6666666666666696				ShowResult	Gain
29.0	2	27.7	0.02	590.324	0.0	0.0	26.3337	3.955	70.0	2.48	Certain	-1.34	2.33	3529.0	Yes		3.6666666666666696				ISITrial	Gain
29.0	2	35.223	0.015	597.847	0.0	0.0	26.3337	3.635	70.0	2.48	Certain	-1.34	2.33	3529.0	Yes		3.6666666666666696			852.0	TrialHappiness	Gain
29.0	2	39.235	4.012	601.859	0.0	0.0	26.3337	6.116	70.0	2.48	Certain	-1.34	2.33	3529.0	Yes		3.6666666666666696				ISIRate	Gain
30.0	2	45.37	0.019	607.994	-2.4	-1.2	26.0337	3.0	70.0	2.0	Outcome1	-2.4	12.9	0.0	No	2.0	-15.2993197278912	2.203	47.573		GetAnswer	Loss
30.0	2	47.593	0.02	610.217	-2.4	-1.2	26.0337	4.0	70.0	2.0	Outcome1	-2.4	12.9	0.0	No		-15.2993197278912				ShowChoice	Loss
30.0	2	51.605	0.012	614.229	-2.4	-1.2	26.0337	1.0	70.0	2.0	Outcome1	-2.4	12.9	0.0	No		-15.2993197278912				ShowResult	Loss
30.0	2	52.625	0.02	615.249	-2.4	-1.2	26.0337	4.453	70.0	2.0	Outcome1	-2.4	12.9	0.0	No		-15.2993197278912				ISITrial	Loss
31.0	2	57.105	0.027	619.729	-1.0	-1.0	25.9087	3.0	70.0	1.0	Certain	0.92	-2.5	2503.25	Yes	4.0	3.41761148904006	2.273	59.378		GetAnswer	Mixed
31.0	2	59.395	0.017	622.019	-1.0	-1.0	25.9087	4.0	70.0	1.0	Certain	0.92	-2.5	2503.25	Yes		3.41761148904006				ShowChoice	Mixed
31.0	2	63.407	0.012	626.031	-1.0	-1.0	25.9087	1.0	70.0	1.0	Certain	0.92	-2.5	2503.25	Yes		3.41761148904006				ShowResult	Mixed
31.0	2	64.427	0.02	627.051	-1.0	-1.0	25.9087	4.786	70.0	1.0	Certain	0.92	-2.5	2503.25	Yes		3.41761148904006				ISITrial	Mixed
31.0	2	71.749	0.021	634.373	-1.0	-1.0	25.9087	1.809	70.0	1.0	Certain	0.92	-2.5	2503.25	Yes		3.41761148904006			460.0	TrialHappiness	Mixed
31.0	2	75.761	4.012	638.385	-1.0	-1.0	25.9087	2.013	70.0	1.0	Certain	0.92	-2.5	2503.25	Yes		3.41761148904006				ISIRate	Mixed
32.0	2	77.8	0.026	640.424	2.72	2.0	26.2487	3.0	70.0	2.0	Outcome2	0.82	2.72	0.0	No	2.0	1.8989040060468603	1.967	79.767		GetAnswer	Loss
32.0	2	79.79	0.023	642.414	2.72	2.0	26.2487	4.0	70.0	2.0	Outcome2	0.82	2.72	0.0	No		1.8989040060468603				ShowChoice	Loss
32.0	2	83.802	0.012	646.426	2.72	2.0	26.2487	1.0	70.0	2.0	Outcome2	0.82	2.72	0.0	No		1.8989040060468603				ShowResult	Loss
32.0	2	84.821	0.019	647.445	2.72	2.0	26.2487	2.0	70.0	2.0	Outcome2	0.82	2.72	0.0	No		1.8989040060468603				ISITrial	Loss
33.0	2	86.844	0.023	649.468	0.0	0.0	26.2487	3.0	70.0	1.5	Certain	-0.92	1.02	0.0	No	4.0	1.9357520786092202	2.257	89.101		GetAnswer	Mixed
33.0	2	89.118	0.017	651.742	0.0	0.0	26.2487	4.0	70.0	1.5	Certain	-0.92	1.02	0.0	No		1.9357520786092202				ShowChoice	Mixed
33.0	2	93.13	0.012	655.754	0.0	0.0	26.2487	1.0	70.0	1.5	Certain	-0.92	1.02	0.0	No		1.9357520786092202				ShowResult	Mixed
33.0	2	94.149	0.019	656.773	0.0	0.0	26.2487	5.099	70.0	1.5	Certain	-0.92	1.02	0.0	No		1.9357520786092202				ISITrial	Mixed
34.0	2	99.265	0.017	661.889	-0.99	-0.5	26.1249	3.0	70.0	5.0	Outcome1	-0.99	10.3	3231.5	Yes	2.0	-11.290249433106599	2.168	101.433		GetAnswer	Gain
34.0	2	101.455	0.022	664.079	-0.99	-0.5	26.1249	4.0	70.0	5.0	Outcome1	-0.99	10.3	3231.5	Yes		-11.290249433106599				ShowChoice	Gain
34.0	2	105.467	0.012	668.091	-0.99	-0.5	26.1249	1.0	70.0	5.0	Outcome1	-0.99	10.3	3231.5	Yes		-11.290249433106599				ShowResult	Gain
34.0	2	106.486	0.019	669.11	-0.99	-0.5	26.1249	4.784	70.0	5.0	Outcome1	-0.99	10.3	3231.5	Yes		-11.290249433106599				ISITrial	Gain
34.0	2	114.544	0.028	677.168	-0.99	-0.5	26.1249	2.885	70.0	5.0	Outcome1	-0.99	10.3	3231.5	Yes		-11.290249433106599			536.0	TrialHappiness	Gain
34.0	2	118.556	4.012	681.18	-0.99	-0.5	26.1249	4.926	70.0	5.0	Outcome1	-0.99	10.3	3231.5	Yes		-11.290249433106599				ISIRate	Gain
35.0	2	123.504	0.022	686.128	0.0	0.0	26.1249	3.0	70.0	2.0	Certain	-0.6	1.72	0.0	No	4.0	2.3182161753590296	1.735	125.239		GetAnswer	Gain
35.0	2	125.259	0.019	687.883	0.0	0.0	26.1249	4.0	70.0	2.0	Certain	-0.6	1.72	0.0	No		2.3182161753590296				ShowChoice	Gain
35.0	2	129.271	0.012	691.895	0.0	0.0	26.1249	1.0	70.0	2.0	Certain	-0.6	1.72	0.0	No		2.3182161753590296				ShowResult	Gain
35.0	2	130.291	0.02	692.915	0.0	0.0	26.1249	2.098	70.0	2.0	Certain	-0.6	1.72	0.0	No		2.3182161753590296				ISITrial	Gain
36.0	2	132.414	0.025	695.038	-4.0	-4.0	25.6249	3.0	70.0	0.4	Certain	-10.65	2.9	3335.75	Yes	4.0	-13.5532879818594	2.101	134.515		GetAnswer	Mixed
36.0	2	134.537	0.022	697.161	-4.0	-4.0	25.6249	4.0	70.0	0.4	Certain	-10.65	2.9	3335.75	Yes		-13.5532879818594				ShowChoice	Mixed
36.0	2	138.549	0.012	701.173	-4.0	-4.0	25.6249	1.0	70.0	0.4	Certain	-10.65	2.9	3335.75	Yes		-13.5532879818594				ShowResult	Mixed
36.0	2	139.569	0.02	702.193	-4.0	-4.0	25.6249	5.156	70.0	0.4	Certain	-10.65	2.9	3335.75	Yes		-13.5532879818594				ISITrial	Mixed
36.0	2	148.111	0.024	710.735	-4.0	-4.0	25.6249	1.16	70.0	0.4	Certain	-10.65	2.9	3335.75	Yes	4{-4}4{-4}	-13.5532879818594	1.16	149.271	456.0	TrialHappiness	Mixed
36.0	2	152.123	4.012	714.747	-4.0	-4.0	25.6249	5.343	70.0	0.4	Certain	-10.65	2.9	3335.75	Yes		-13.5532879818594				ISIRate	Mixed
37.0	2	157.489	0.023	720.113	0.98	0.49	25.7474	3.0	70.0	3.16	Outcome1	0.98	13.7	0.0	No	2.0	-12.7210884353741	1.203	158.692		GetAnswer	Loss
37.0	2	158.709	0.017	721.333	0.98	0.49	25.7474	4.0	70.0	3.16	Outcome1	0.98	13.7	0.0	No		-12.7210884353741				ShowChoice	Loss
37.0	2	162.721	0.012	725.345	0.98	0.49	25.7474	1.0	70.0	3.16	Outcome1	0.98	13.7	0.0	No		-12.7210884353741				ShowResult	Loss
37.0	2	163.741	0.02	726.365	0.98	0.49	25.7474	3.598	70.0	3.16	Outcome1	0.98	13.7	0.0	No		-12.7210884353741				ISITrial	Loss
38.0	2	167.369	0.03	729.993	3.08	2.0	26.1324	3.0	70.0	5.0	Outcome2	0.96	3.08	0.0	No		2.11772486772487				GetAnswer	Loss
38.0	2	170.394	0.025	733.018	3.08	2.0	26.1324	4.0	70.0	5.0	Outcome2	0.96	3.08	0.0	No		2.11772486772487				ShowChoice	Loss
38.0	2	174.406	0.012	737.03	3.08	2.0	26.1324	1.0	70.0	5.0	Outcome2	0.96	3.08	0.0	No		2.11772486772487				ShowResult	Loss
38.0	2	175.426	0.02	738.05	3.08	2.0	26.1324	4.787	70.0	5.0	Outcome2	0.96	3.08	0.0	No		2.11772486772487				ISITrial	Loss
39.0	2	180.241	0.028	742.865	1.98	1.0	26.3799	3.0	70.0	3.6	Outcome1	1.98	-0.17	2864.25	Yes		2.1541950113378703				GetAnswer	Gain
39.0	2	183.266	0.025	745.89	1.98	1.0	26.3799	4.0	70.0	3.6	Outcome1	1.98	-0.17	2864.25	Yes		2.1541950113378703				ShowChoice	Gain
39.0	2	187.278	0.012	749.902	1.98	1.0	26.3799	1.0	70.0	3.6	Outcome1	1.98	-0.17	2864.25	Yes		2.1541950113378703				ShowResult	Gain
39.0	2	188.298	0.02	750.922	1.98	1.0	26.3799	2.348	70.0	3.6	Outcome1	1.98	-0.17	2864.25	Yes		2.1541950113378703				ISITrial	Gain
39.0	2	193.564	0.028	756.188	1.98	1.0	26.3799	2.051	70.0	3.6	Outcome1	1.98	-0.17	2864.25	Yes		2.1541950113378703			772.0	TrialHappiness	Gain
39.0	2	197.576	4.012	760.2	1.98	1.0	26.3799	3.457	70.0	3.6	Outcome1	1.98	-0.17	2864.25	Yes		2.1541950113378703				ISIRate	Gain
40.0	2	201.053	0.02	763.677	-2.0	-2.0	26.1299	3.0	70.0	0.4	Certain	-3.75	-0.28	0.0	No	4.0	3.47448979591837	2.916	203.969		GetAnswer	Mixed
40.0	2	203.995	0.026	766.619	-2.0	-2.0	26.1299	4.0	70.0	0.4	Certain	-3.75	-0.28	0.0	No		3.47448979591837				ShowChoice	Mixed
40.0	2	208.007	0.012	770.631	-2.0	-2.0	26.1299	1.0	70.0	0.4	Certain	-3.75	-0.28	0.0	No		3.47448979591837				ShowResult	Mixed
40.0	2	209.027	0.02	771.651	-2.0	-2.0	26.1299	3.158	70.0	0.4	Certain	-3.75	-0.28	0.0	No		3.47448979591837				ISITrial	Mixed
41.0	2	212.203	0.018	774.827	-7.0	-7.0	25.2549	3.0	70.0	0.3	Certain	-17.5	2.7	4000.0	Yes	4.0	-20.2040816326531	1.474	213.677		GetAnswer	Mixed
41.0	2	213.691	0.014	776.315	-7.0	-7.0	25.2549	4.0	70.0	0.3	Certain	-17.5	2.7	4000.0	Yes		-20.2040816326531				ShowChoice	Mixed
41.0	2	217.703	0.012	780.327	-7.0	-7.0	25.2549	1.0	70.0	0.3	Certain	-17.5	2.7	4000.0	Yes		-20.2040816326531				ShowResult	Mixed
41.0	2	218.723	0.02	781.347	-7.0	-7.0	25.2549	4.506	70.0	0.3	Certain	-17.5	2.7	4000.0	Yes		-20.2040816326531				ISITrial	Mixed
41.0	2	227.282	0.029	789.906	-7.0	-7.0	25.2549	3.618	70.0	0.3	Certain	-17.5	2.7	4000.0	Yes		-20.2040816326531			384.0	TrialHappiness	Mixed
41.0	2	231.294	4.012	793.918	-7.0	-7.0	25.2549	8.0	70.0	0.3	Certain	-17.5	2.7	4000.0	Yes		-20.2040816326531				ISIRate	Mixed
42.0	2	239.318	0.024	801.942	1.92	1.0	25.4949	3.0	70.0	3.16	Outcome2	-0.11	1.92	0.0	No	2.0	2.03080120937264	1.842	241.16		GetAnswer	Gain
42.0	2	241.173	0.013	803.797	1.92	1.0	25.4949	4.0	70.0	3.16	Outcome2	-0.11	1.92	0.0	No		2.03080120937264				ShowChoice	Gain
42.0	2	245.185	0.012	807.809	1.92	1.0	25.4949	1.0	70.0	3.16	Outcome2	-0.11	1.92	0.0	No		2.03080120937264				ShowResult	Gain
42.0	2	246.205	0.02	808.829	1.92	1.0	25.4949	6.248	70.0	3.16	Outcome2	-0.11	1.92	0.0	No		2.03080120937264				ISITrial	Gain
43.0	2	252.474	0.021	815.098	-1.26	-0.63	25.3374	3.0	70.0	2.8	Outcome2	13.5	-1.26	2775.75	Yes	2.0	-14.7573696145125	1.588	254.062		GetAnswer	Loss
43.0	2	254.079	0.017	816.703	-1.26	-0.63	25.3374	4.0	70.0	2.8	Outcome2	13.5	-1.26	2775.75	Yes		-14.7573696145125				ShowChoice	Loss
43.0	2	258.091	0.012	820.715	-1.26	-0.63	25.3374	1.0	70.0	2.8	Outcome2	13.5	-1.26	2775.75	Yes		-14.7573696145125				ShowResult	Loss
43.0	2	259.11	0.019	821.734	-1.26	-0.63	25.3374	4.596	70.0	2.8	Outcome2	13.5	-1.26	2775.75	Yes		-14.7573696145125				ISITrial	Loss
43.0	2	266.516	0.016	829.14	-1.26	-0.63	25.3374	3.419	70.0	2.8	Outcome2	13.5	-1.26	2775.75	Yes	4{-4}4{-4}4{-4}	-14.7573696145125	3.419	269.935	404.0	TrialHappiness	Loss
43.0	2	270.528	4.012	833.152	-1.26	-0.63	25.3374	3.103	70.0	2.8	Outcome2	13.5	-1.26	2775.75	Yes		-14.7573696145125				ISIRate	Loss
44.0	2	273.654	0.023	836.278	1.58	0.0	25.5349	3.0	70.0	5.0	Outcome1	1.58	-0.59	0.0	No		2.17139077853364				GetAnswer	Gain
44.0	2	276.68	0.026	839.304	1.58	0.0	25.5349	4.0	70.0	5.0	Outcome1	1.58	-0.59	0.0	No		2.17139077853364				ShowChoice	Gain
44.0	2	280.692	0.012	843.316	1.58	0.0	25.5349	1.0	70.0	5.0	Outcome1	1.58	-0.59	0.0	No		2.17139077853364				ShowResult	Gain
44.0	2	281.711	0.019	844.335	1.58	0.0	25.5349	2.42	70.0	5.0	Outcome1	1.58	-0.59	0.0	No		2.17139077853364				ISITrial	Gain
45.0	2	284.152	0.021	846.776	-17.13	-9.0	23.3936	3.0	70.0	0.3	Outcome2	-1.3	-17.13	0.0	No	2.0	-15.8321995464853	2.72	286.872		GetAnswer	Mixed
45.0	2	286.894	0.022	849.518	-17.13	-9.0	23.3936	4.0	70.0	0.3	Outcome2	-1.3	-17.13	0.0	No		-15.8321995464853				ShowChoice	Mixed
45.0	2	290.906	0.012	853.53	-17.13	-9.0	23.3936	1.0	70.0	0.3	Outcome2	-1.3	-17.13	0.0	No		-15.8321995464853				ShowResult	Mixed
45.0	2	291.925	0.019	854.549	-17.13	-9.0	23.3936	3.144	70.0	0.3	Outcome2	-1.3	-17.13	0.0	No		-15.8321995464853				ISITrial	Mixed
46.0	2	295.085	0.016	857.709	-15.31	-7.0	21.4798	3.0	70.0	0.4	Outcome1	-15.31	0.9	3841.25	Yes		-16.210884353741502				GetAnswer	Mixed
46.0	2	298.11	0.025	860.734	-15.31	-7.0	21.4798	4.0	70.0	0.4	Outcome1	-15.31	0.9	3841.25	Yes		-16.210884353741502				ShowChoice	Mixed
46.0	2	302.122	0.012	864.746	-15.31	-7.0	21.4798	1.0	70.0	0.4	Outcome1	-15.31	0.9	3841.25	Yes		-16.210884353741502				ShowResult	Mixed
46.0	2	303.142	0.02	865.766	-15.31	-7.0	21.4798	2.246	70.0	0.4	Outcome1	-15.31	0.9	3841.25	Yes		-16.210884353741502				ISITrial	Mixed
46.0	2	309.261	0.021	871.885	-15.31	-7.0	21.4798	1.478	70.0	0.4	Outcome1	-15.31	0.9	3841.25	Yes		-16.210884353741502			232.0	TrialHappiness	Mixed
46.0	2	313.273	4.012	875.897	-15.31	-7.0	21.4798	7.365	70.0	0.4	Outcome1	-15.31	0.9	3841.25	Yes		-16.210884353741502				ISIRate	Mixed
47.0	2	320.661	0.023	883.285	-12.36	-5.0	19.9348	3.0	70.0	0.66	Outcome1	-12.36	1.3	0.0	No		-13.6643990929705				GetAnswer	Mixed
47.0	2	323.687	0.026	886.311	-12.36	-5.0	19.9348	4.0	70.0	0.66	Outcome1	-12.36	1.3	0.0	No		-13.6643990929705				ShowChoice	Mixed
47.0	2	327.699	0.012	890.323	-12.36	-5.0	19.9348	1.0	70.0	0.66	Outcome1	-12.36	1.3	0.0	No		-13.6643990929705				ShowResult	Mixed
47.0	2	328.719	0.02	891.343	-12.36	-5.0	19.9348	2.0	70.0	0.66	Outcome1	-12.36	1.3	0.0	No		-13.6643990929705				ISITrial	Mixed
48.0	2	330.742	0.023	893.366	-7.35	0.0	19.016	3.0	70.0	1.68	Outcome2	6.5	-7.35	2831.75	Yes	2.0	-13.8480725623583	1.451	332.193		GetAnswer	Gain
48.0	2	332.213	0.02	894.837	-7.35	0.0	19.016	4.0	70.0	1.68	Outcome2	6.5	-7.35	2831.75	Yes		-13.8480725623583				ShowChoice	Gain
48.0	2	336.225	0.012	898.849	-7.35	0.0	19.016	1.0	70.0	1.68	Outcome2	6.5	-7.35	2831.75	Yes		-13.8480725623583				ShowResult	Gain
48.0	2	337.244	0.019	899.868	-7.35	0.0	19.016	3.692	70.0	1.68	Outcome2	6.5	-7.35	2831.75	Yes		-13.8480725623583				ISITrial	Gain
48.0	2	343.814	0.026	906.438	-7.35	0.0	19.016	1.461	70.0	1.68	Outcome2	6.5	-7.35	2831.75	Yes		-13.8480725623583			72.0	TrialHappiness	Gain
48.0	2	347.826	4.012	910.45	-7.35	0.0	19.016	3.327	70.0	1.68	Outcome2	6.5	-7.35	2831.75	Yes		-13.8480725623583				ISIRate	Gain
49.0	2	351.169	0.016	913.793	0.0	0.0	19.016	3.0	70.0	1.0	Certain	-0.08	-1.03	0.0	No	4.0	0.947845804988662	1.369	352.538		GetAnswer	Mixed
49.0	2	352.557	0.019	915.181	0.0	0.0	19.016	4.0	70.0	1.0	Certain	-0.08	-1.03	0.0	No		0.947845804988662				ShowChoice	Mixed
49.0	2	356.569	0.012	919.193	0.0	0.0	19.016	1.0	70.0	1.0	Certain	-0.08	-1.03	0.0	No		0.947845804988662				ShowResult	Mixed
49.0	2	357.589	0.02	920.213	0.0	0.0	19.016	8.0	70.0	1.0	Certain	-0.08	-1.03	0.0	No		0.947845804988662				ISITrial	Mixed
50.0	2	365.613	0.024	928.237	-5.0	-5.0	18.391	3.0	70.0	1.5	Certain	-11.21	0.1	3547.25	Yes	4.0	-11.312925170067999	2.179	367.792		GetAnswer	Mixed
50.0	2	367.819	0.027	930.443	-5.0	-5.0	18.391	4.0	70.0	1.5	Certain	-11.21	0.1	3547.25	Yes		-11.312925170067999				ShowChoice	Mixed
50.0	2	371.831	0.012	934.455	-5.0	-5.0	18.391	1.0	70.0	1.5	Certain	-11.21	0.1	3547.25	Yes		-11.312925170067999				ShowResult	Mixed
50.0	2	372.851	0.02	935.475	-5.0	-5.0	18.391	7.537	70.0	1.5	Certain	-11.21	0.1	3547.25	Yes		-11.312925170067999				ISITrial	Mixed
50.0	2	383.984	0.03	946.608	-5.0	-5.0	18.391	1.527	70.0	1.5	Certain	-11.21	0.1	3547.25	Yes		-11.312925170067999			280.0	TrialHappiness	Mixed
50.0	2	387.996	4.012	950.62	-5.0	-5.0	18.391	6.189	70.0	1.5	Certain	-11.21	0.1	3547.25	Yes		-11.312925170067999				ISIRate	Mixed
51.0	2	394.215	0.03	956.839	2.02	1.0	18.6435	3.0	70.0	4.2	Outcome1	2.02	0.23	0.0	No	2.0	1.79327286470144	1.377	395.592		GetAnswer	Gain
51.0	2	395.619	0.027	958.243	2.02	1.0	18.6435	4.0	70.0	4.2	Outcome1	2.02	0.23	0.0	No		1.79327286470144				ShowChoice	Gain
51.0	2	399.631	0.012	962.255	2.02	1.0	18.6435	1.0	70.0	4.2	Outcome1	2.02	0.23	0.0	No		1.79327286470144				ShowResult	Gain
51.0	2	400.651	0.02	963.275	2.02	1.0	18.6435	5.508	70.0	4.2	Outcome1	2.02	0.23	0.0	No		1.79327286470144				ISITrial	Gain
52.0	2	406.184	0.025	968.808	-2.59	-1.3	18.3197	3.0	70.0	1.68	Outcome1	-2.59	12.5	0.0	No	2.0	-15.0907029478458	1.775	407.959		GetAnswer	Loss
52.0	2	407.973	0.014	970.597	-2.59	-1.3	18.3197	4.0	70.0	1.68	Outcome1	-2.59	12.5	0.0	No		-15.0907029478458				ShowChoice	Loss
52.0	2	411.985	0.012	974.609	-2.59	-1.3	18.3197	1.0	70.0	1.68	Outcome1	-2.59	12.5	0.0	No		-15.0907029478458				ShowResult	Loss
52.0	2	413.005	0.02	975.629	-2.59	-1.3	18.3197	5.913	70.0	1.68	Outcome1	-2.59	12.5	0.0	No		-15.0907029478458				ISITrial	Loss
53.0	2	418.939	0.021	981.563	-6.83	1.0	17.4659	3.0	70.0	1.68	Outcome1	-6.83	8.5	2996.75	Yes	2.0	-15.328798185941	1.481	420.42		GetAnswer	Gain
53.0	2	420.444	0.024	983.068	-6.83	1.0	17.4659	4.0	70.0	1.68	Outcome1	-6.83	8.5	2996.75	Yes		-15.328798185941				ShowChoice	Gain
53.0	2	424.456	0.012	987.08	-6.83	1.0	17.4659	1.0	70.0	1.68	Outcome1	-6.83	8.5	2996.75	Yes		-15.328798185941				ShowResult	Gain
53.0	2	425.475	0.019	988.099	-6.83	1.0	17.4659	3.66	70.0	1.68	Outcome1	-6.83	8.5	2996.75	Yes		-15.328798185941				ISITrial	Gain
53.0	2	432.179	0.029	994.803	-6.83	1.0	17.4659	3.867	70.0	1.68	Outcome1	-6.83	8.5	2996.75	Yes		-15.328798185941			80.0	TrialHappiness	Gain
53.0	2	436.191	4.012	998.815	-6.83	1.0	17.4659	3.987	70.0	1.68	Outcome1	-6.83	8.5	2996.75	Yes		-15.328798185941				ISIRate	Gain
54.0	2	440.203	0.025	1002.827	-6.67	0.0	16.6321	3.0	70.0	2.8	Outcome2	5.5	-6.67	0.0	No	2.0	-12.165532879818599	1.477	441.68		GetAnswer	Gain
54.0	2	441.707	0.027	1004.331	-6.67	0.0	16.6321	4.0	70.0	2.8	Outcome2	5.5	-6.67	0.0	No		-12.165532879818599				ShowChoice	Gain
54.0	2	445.719	0.012	1008.343	-6.67	0.0	16.6321	1.0	70.0	2.8	Outcome2	5.5	-6.67	0.0	No		-12.165532879818599				ShowResult	Gain
54.0	2	446.739	0.02	1009.363	-6.67	0.0	16.6321	8.0	70.0	2.8	Outcome2	5.5	-6.67	0.0	No		-12.165532879818599				ISITrial	Gain
	2	454.763	0.024	1017.387				-0.001								{SPACE}		32.282	487.045		Rest	
	2	487.06	0.014	1049.684				4.0													BlockHappyPreview	
	2	491.072	0.012	1053.696				0.992												288.0	BlockStartHappiness	
	2	496.956	0.023	1059.58				-0.001								5.0		2.184	499.14		ScanWait	
	3	0.023	0.023	1061.787				10.0													GetReady	
55.0	3	10.036	0.013	1071.8	11.5	0.08	18.0696	3.0	955.0	2.8	Outcome1	11.5	0.17	2533.25	Yes	2.0	11.3306908267271	0.95	10.986		GetAnswer	Loss
55.0	3	11.006	0.02	1072.77	11.5	0.08	18.0696	4.0	955.0	2.8	Outcome1	11.5	0.17	2533.25	Yes		11.3306908267271				ShowChoice	Loss
55.0	3	15.018	0.012	1076.782	11.5	0.08	18.0696	1.0	955.0	2.8	Outcome1	11.5	0.17	2533.25	Yes		11.3306908267271				ShowResult	Loss
55.0	3	16.038	0.02	1077.802	11.5	0.08	18.0696	7.709	955.0	2.8	Outcome1	11.5	0.17	2533.25	Yes		11.3306908267271				ISITrial	Loss
55.0	3	26.318	0.024	1088.082	11.5	0.08	18.0696	1.662	955.0	2.8	Outcome1	11.5	0.17	2533.25	Yes		11.3306908267271			728.0	TrialHappiness	Loss
55.0	3	30.33	4.012	1092.094	11.5	0.08	18.0696	2.133	955.0	2.8	Outcome1	11.5	0.17	2533.25	Yes		11.3306908267271				ISIRate	Loss
56.0	3	32.487	0.024	1094.251	9.72	4.86	19.2846	3.0	955.0	1.82	Outcome2	10.7	9.72	0.0	No	2.0	-0.9841449603624008	0.882	33.369		GetAnswer	Loss
56.0	3	33.39	0.021	1095.154	9.72	4.86	19.2846	4.0	955.0	1.82	Outcome2	10.7	9.72	0.0	No		-0.9841449603624008				ShowChoice	Loss
56.0	3	37.402	0.012	1099.166	9.72	4.86	19.2846	1.0	955.0	1.82	Outcome2	10.7	9.72	0.0	No		-0.9841449603624008				ShowResult	Loss
56.0	3	38.421	0.019	1100.185	9.72	4.86	19.2846	4.697	955.0	1.82	Outcome2	10.7	9.72	0.0	No		-0.9841449603624008				ISITrial	Loss
57.0	3	43.135	0.017	1104.899	6.49	3.24	20.0958	3.0	955.0	2.8	Outcome2	7.5	6.49	0.0	No	2.0	-1.00556813892035	1.237	44.372		GetAnswer	Gain
57.0	3	44.389	0.017	1106.153	6.49	3.24	20.0958	4.0	955.0	2.8	Outcome2	7.5	6.49	0.0	No		-1.00556813892035				ShowChoice	Gain
57.0	3	48.401	0.012	1110.165	6.49	3.24	20.0958	1.0	955.0	2.8	Outcome2	7.5	6.49	0.0	No		-1.00556813892035				ShowResult	Gain
57.0	3	49.421	0.02	1111.185	6.49	3.24	20.0958	4.291	955.0	2.8	Outcome2	7.5	6.49	0.0	No		-1.00556813892035				ISITrial	Gain
58.0	3	53.734	0.022	1115.498	2.3	0.0	20.3833	3.0	955.0	2.0	Outcome1	2.3	-2.83	3045.75	Yes	2.0	5.12570781426954	0.879	54.613		GetAnswer	Mixed
58.0	3	54.637	0.024	1116.401	2.3	0.0	20.3833	4.0	955.0	2.0	Outcome1	2.3	-2.83	3045.75	Yes		5.12570781426954				ShowChoice	Mixed
58.0	3	58.649	0.012	1120.413	2.3	0.0	20.3833	1.0	955.0	2.0	Outcome1	2.3	-2.83	3045.75	Yes		5.12570781426954				ShowResult	Mixed
58.0	3	59.668	0.019	1121.432	2.3	0.0	20.3833	2.037	955.0	2.0	Outcome1	2.3	-2.83	3045.75	Yes		5.12570781426954				ISITrial	Mixed
58.0	3	64.8	0.03	1126.564	2.3	0.0	20.3833	2.749	955.0	2.0	Outcome1	2.3	-2.83	3045.75	Yes		5.12570781426954			816.0	TrialHappiness	Mixed
58.0	3	68.812	4.012	1130.576	2.3	0.0	20.3833	4.183	955.0	2.0	Outcome1	2.3	-2.83	3045.75	Yes		5.12570781426954				ISIRate	Mixed
59.0	3	73.025	0.03	1134.789	13.21	6.6	22.0345	3.0	955.0	3.6	Outcome1	13.21	13.9	0.0	No	2.0	-0.6912986032465079	1.267	74.292		GetAnswer	Loss
59.0	3	74.312	0.02	1136.076	13.21	6.6	22.0345	4.0	955.0	3.6	Outcome1	13.21	13.9	0.0	No		-0.6912986032465079				ShowChoice	Loss
59.0	3	78.324	0.012	1140.088	13.21	6.6	22.0345	1.0	955.0	3.6	Outcome1	13.21	13.9	0.0	No		-0.6912986032465079				ShowResult	Loss
59.0	3	79.344	0.02	1141.108	13.21	6.6	22.0345	5.064	955.0	3.6	Outcome1	13.21	13.9	0.0	No		-0.6912986032465079				ISITrial	Loss
60.0	3	84.426	0.018	1146.19	4.3	2.0	22.572	3.0	955.0	2.0	Outcome1	4.3	0.25	3562.5	Yes	2.0	4.04530011325028	1.37	85.796		GetAnswer	Mixed
60.0	3	85.813	0.017	1147.577	4.3	2.0	22.572	4.0	955.0	2.0	Outcome1	4.3	0.25	3562.5	Yes		4.04530011325028				ShowChoice	Mixed
60.0	3	89.825	0.012	1151.589	4.3	2.0	22.572	1.0	955.0	2.0	Outcome1	4.3	0.25	3562.5	Yes		4.04530011325028				ShowResult	Mixed
60.0	3	90.845	0.02	1152.609	4.3	2.0	22.572	8.0	955.0	2.0	Outcome1	4.3	0.25	3562.5	Yes		4.04530011325028				ISITrial	Mixed
60.0	3	102.446	0.015	1164.21	4.3	2.0	22.572	3.842	955.0	2.0	Outcome1	4.3	0.25	3562.5	Yes		4.04530011325028			808.0	TrialHappiness	Mixed
60.0	3	106.458	4.012	1168.222	4.3	2.0	22.572	6.25	955.0	2.0	Outcome1	4.3	0.25	3562.5	Yes		4.04530011325028				ISIRate	Mixed
61.0	3	112.727	0.019	1174.491	13.3	4.48	24.2345	3.0	955.0	2.48	Outcome2	8.96	13.3	0.0	No	2.0	4.3386183465458705	1.028	113.755		GetAnswer	Loss
61.0	3	113.78	0.025	1175.544	13.3	4.48	24.2345	4.0	955.0	2.48	Outcome2	8.96	13.3	0.0	No		4.3386183465458705				ShowChoice	Loss
61.0	3	117.792	0.012	1179.556	13.3	4.48	24.2345	1.0	955.0	2.48	Outcome2	8.96	13.3	0.0	No		4.3386183465458705				ShowResult	Loss
61.0	3	118.812	0.02	1180.576	13.3	4.48	24.2345	4.586	955.0	2.48	Outcome2	8.96	13.3	0.0	No		4.3386183465458705				ISITrial	Loss
62.0	3	123.426	0.028	1185.19	11.1	3.3	25.622	3.0	955.0	2.22	Outcome2	6.59	11.1	3748.75	Yes	2.0	4.50509626274066	1.077	124.503		GetAnswer	Loss
62.0	3	124.529	0.026	1186.293	11.1	3.3	25.622	4.0	955.0	2.22	Outcome2	6.59	11.1	3748.75	Yes		4.50509626274066				ShowChoice	Loss
62.0	3	128.541	0.012	1190.305	11.1	3.3	25.622	1.0	955.0	2.22	Outcome2	6.59	11.1	3748.75	Yes		4.50509626274066				ShowResult	Loss
62.0	3	129.561	0.02	1191.325	11.1	3.3	25.622	5.212	955.0	2.22	Outcome2	6.59	11.1	3748.75	Yes		4.50509626274066				ISITrial	Loss
62.0	3	138.571	0.029	1200.335	11.1	3.3	25.622	3.727	955.0	2.22	Outcome2	6.59	11.1	3748.75	Yes		4.50509626274066			856.0	TrialHappiness	Loss
62.0	3	142.6	4.029	1204.364	11.1	3.3	25.622	6.995	955.0	2.22	Outcome2	6.59	11.1	3748.75	Yes		4.50509626274066				ISIRate	Loss
63.0	3	149.621	0.026	1211.385	9.92	4.96	26.862	3.0	955.0	1.68	Outcome2	10.5	9.92	0.0	No	2.0	-0.582955832389581	0.808	150.429		GetAnswer	Loss
63.0	3	150.44	0.011	1212.204	9.92	4.96	26.862	4.0	955.0	1.68	Outcome2	10.5	9.92	0.0	No		-0.582955832389581				ShowChoice	Loss
63.0	3	154.452	0.012	1216.216	9.92	4.96	26.862	1.0	955.0	1.68	Outcome2	10.5	9.92	0.0	No		-0.582955832389581				ShowResult	Loss
63.0	3	155.472	0.02	1217.236	9.92	4.96	26.862	5.595	955.0	1.68	Outcome2	10.5	9.92	0.0	No		-0.582955832389581				ISITrial	Loss
64.0	3	161.089	0.022	1222.853	9.7	2.86	28.0745	3.0	955.0	3.16	Outcome1	9.7	5.73	0.0	No	2.0	3.9682899207247995	0.679	161.768		GetAnswer	Gain
64.0	3	161.791	0.023	1223.555	9.7	2.86	28.0745	4.0	955.0	3.16	Outcome1	9.7	5.73	0.0	No		3.9682899207247995				ShowChoice	Gain
64.0	3	165.803	0.012	1227.567	9.7	2.86	28.0745	1.0	955.0	3.16	Outcome1	9.7	5.73	0.0	No		3.9682899207247995				ShowResult	Gain
64.0	3	166.823	0.02	1228.587	9.7	2.86	28.0745	5.47	955.0	3.16	Outcome1	9.7	5.73	0.0	No		3.9682899207247995				ISITrial	Gain
65.0	3	172.323	0.03	1234.087	8.3	4.15	29.112	3.0	955.0	2.0	Outcome1	8.3	8.9	2996.75	Yes	2.0	-0.601642129105323	0.848	173.171		GetAnswer	Gain
65.0	3	173.192	0.021	1234.956	8.3	4.15	29.112	4.0	955.0	2.0	Outcome1	8.3	8.9	2996.75	Yes		-0.601642129105323				ShowChoice	Gain
65.0	3	177.204	0.012	1238.968	8.3	4.15	29.112	1.0	955.0	2.0	Outcome1	8.3	8.9	2996.75	Yes		-0.601642129105323				ShowResult	Gain
65.0	3	178.224	0.02	1239.988	8.3	4.15	29.112	3.344	955.0	2.0	Outcome1	8.3	8.9	2996.75	Yes		-0.601642129105323				ISITrial	Gain
65.0	3	184.609	0.028	1246.373	8.3	4.15	29.112	2.433	955.0	2.0	Outcome1	8.3	8.9	2996.75	Yes		-0.601642129105323			916.0	TrialHappiness	Gain
65.0	3	188.621	4.012	1250.385	8.3	4.15	29.112	3.987	955.0	2.0	Outcome1	8.3	8.9	2996.75	Yes		-0.601642129105323				ISIRate	Gain
66.0	3	192.633	0.025	1254.397	11.3	4.07	30.5245	3.0	955.0	2.48	Outcome2	8.13	11.3	0.0	No	2.0	3.17327293318233	0.773	193.406		GetAnswer	Loss
66.0	3	193.419	0.013	1255.183	11.3	4.07	30.5245	4.0	955.0	2.48	Outcome2	8.13	11.3	0.0	No		3.17327293318233				ShowChoice	Loss
66.0	3	197.431	0.012	1259.195	11.3	4.07	30.5245	1.0	955.0	2.48	Outcome2	8.13	11.3	0.0	No		3.17327293318233				ShowResult	Loss
66.0	3	198.451	0.02	1260.215	11.3	4.07	30.5245	3.959	955.0	2.48	Outcome2	8.13	11.3	0.0	No		3.17327293318233				ISITrial	Loss
67.0	3	202.429	0.019	1264.193	-2.0	-2.0	30.2745	3.0	955.0	0.66	Certain	-0.7	-3.92	2918.5	Yes	4.0	3.21744054360136	1.96	204.389		GetAnswer	Mixed
67.0	3	204.402	0.013	1266.166	-2.0	-2.0	30.2745	4.0	955.0	0.66	Certain	-0.7	-3.92	2918.5	Yes		3.21744054360136				ShowChoice	Mixed
67.0	3	208.414	0.012	1270.178	-2.0	-2.0	30.2745	1.0	955.0	0.66	Certain	-0.7	-3.92	2918.5	Yes		3.21744054360136				ShowResult	Mixed
67.0	3	209.434	0.02	1271.198	-2.0	-2.0	30.2745	4.199	955.0	0.66	Certain	-0.7	-3.92	2918.5	Yes		3.21744054360136				ISITrial	Mixed
67.0	3	216.588	0.024	1278.352	-2.0	-2.0	30.2745	3.385	955.0	0.66	Certain	-0.7	-3.92	2918.5	Yes		3.21744054360136			708.0	TrialHappiness	Mixed
67.0	3	220.601	4.013	1282.365	-2.0	-2.0	30.2745	3.674	955.0	0.66	Certain	-0.7	-3.92	2918.5	Yes		3.21744054360136				ISIRate	Mixed
68.0	3	224.295	0.02	1286.059	-3.0	-3.0	29.8995	3.0	955.0	1.2	Certain	-6.9	-0.1	0.0	No	4.0	6.7950169875424695	2.06	226.355		GetAnswer	Mixed
68.0	3	226.368	0.013	1288.132	-3.0	-3.0	29.8995	4.0	955.0	1.2	Certain	-6.9	-0.1	0.0	No		6.7950169875424695				ShowChoice	Mixed
68.0	3	230.38	0.012	1292.144	-3.0	-3.0	29.8995	1.0	955.0	1.2	Certain	-6.9	-0.1	0.0	No		6.7950169875424695				ShowResult	Mixed
68.0	3	231.4	0.02	1293.164	-3.0	-3.0	29.8995	2.185	955.0	1.2	Certain	-6.9	-0.1	0.0	No		6.7950169875424695				ISITrial	Mixed
69.0	3	233.606	0.021	1295.37	0.3	-3.0	29.936999999999998	3.0	955.0	2.0	Outcome1	0.3	-6.77	0.0	No	2.0	7.07474518686297	1.734	235.34		GetAnswer	Mixed
69.0	3	235.361	0.021	1297.125	0.3	-3.0	29.936999999999998	4.0	955.0	2.0	Outcome1	0.3	-6.77	0.0	No		7.07474518686297				ShowChoice	Mixed
69.0	3	239.373	0.012	1301.137	0.3	-3.0	29.936999999999998	1.0	955.0	2.0	Outcome1	0.3	-6.77	0.0	No		7.07474518686297				ShowResult	Mixed
69.0	3	240.393	0.02	1302.157	0.3	-3.0	29.936999999999998	2.0	955.0	2.0	Outcome1	0.3	-6.77	0.0	No		7.07474518686297				ISITrial	Mixed
70.0	3	242.416	0.023	1304.18	8.63	4.32	31.0158	3.0	955.0	3.6	Outcome2	9.9	8.63	3651.25	Yes	2.0	-1.26557191392978	2.076	244.492		GetAnswer	Gain
70.0	3	244.505	0.013	1306.269	8.63	4.32	31.0158	4.0	955.0	3.6	Outcome2	9.9	8.63	3651.25	Yes		-1.26557191392978				ShowChoice	Gain
70.0	3	248.517	0.012	1310.281	8.63	4.32	31.0158	1.0	955.0	3.6	Outcome2	9.9	8.63	3651.25	Yes		-1.26557191392978				ShowResult	Gain
70.0	3	249.537	0.02	1311.301	8.63	4.32	31.0158	2.623	955.0	3.6	Outcome2	9.9	8.63	3651.25	Yes		-1.26557191392978				ISITrial	Gain
70.0	3	255.856	0.027	1317.62	8.63	4.32	31.0158	2.212	955.0	3.6	Outcome2	9.9	8.63	3651.25	Yes	2{-2}2{-2}	-1.26557191392978	2.212	258.068	936.0	TrialHappiness	Gain
70.0	3	259.868	4.012	1321.632	8.63	4.32	31.0158	6.605	955.0	3.6	Outcome2	9.9	8.63	3651.25	Yes		-1.26557191392978				ISIRate	Gain
71.0	3	266.505	0.032	1328.269	0.34	0.0	31.0583	3.0	955.0	0.3	Outcome1	0.34	0.7	0.0	No	2.0	-0.36362778406946006	1.118	267.623		GetAnswer	Mixed
71.0	3	267.641	0.018	1329.405	0.34	0.0	31.0583	4.0	955.0	0.3	Outcome1	0.34	0.7	0.0	No		-0.36362778406946006				ShowChoice	Mixed
71.0	3	271.653	0.012	1333.417	0.34	0.0	31.0583	1.0	955.0	0.3	Outcome1	0.34	0.7	0.0	No		-0.36362778406946006				ShowResult	Mixed
71.0	3	272.673	0.02	1334.437	0.34	0.0	31.0583	5.499	955.0	0.3	Outcome1	0.34	0.7	0.0	No		-0.36362778406946006				ISITrial	Mixed
72.0	3	278.19	0.018	1339.954	1.13	1.0	31.1996	3.0	955.0	0.82	Outcome1	1.13	1.5	3080.5	Yes	2.0	-0.365420913552284	1.101	279.291		GetAnswer	Mixed
72.0	3	279.31	0.019	1341.074	1.13	1.0	31.1996	4.0	955.0	0.82	Outcome1	1.13	1.5	3080.5	Yes		-0.365420913552284				ShowChoice	Mixed
72.0	3	283.322	0.012	1345.086	1.13	1.0	31.1996	1.0	955.0	0.82	Outcome1	1.13	1.5	3080.5	Yes		-0.365420913552284				ShowResult	Mixed
72.0	3	284.341	0.019	1346.105	1.13	1.0	31.1996	5.672	955.0	0.82	Outcome1	1.13	1.5	3080.5	Yes		-0.365420913552284				ISITrial	Mixed
72.0	3	293.135	0.03	1354.899	1.13	1.0	31.1996	2.613	955.0	0.82	Outcome1	1.13	1.5	3080.5	Yes		-0.365420913552284			760.0	TrialHappiness	Mixed
72.0	3	297.147	4.012	1358.911	1.13	1.0	31.1996	4.322	955.0	0.82	Outcome1	1.13	1.5	3080.5	Yes		-0.365420913552284				ISIRate	Mixed
73.0	3	301.493	0.024	1363.257	9.5	1.36	32.3871	3.0	955.0	2.8	Outcome1	9.5	2.71	0.0	No	2.0	6.793884484711209	0.832	302.325		GetAnswer	Gain
73.0	3	302.345	0.02	1364.109	9.5	1.36	32.3871	4.0	955.0	2.8	Outcome1	9.5	2.71	0.0	No		6.793884484711209				ShowChoice	Gain
73.0	3	306.357	0.012	1368.121	9.5	1.36	32.3871	1.0	955.0	2.8	Outcome1	9.5	2.71	0.0	No		6.793884484711209				ShowResult	Gain
73.0	3	307.377	0.02	1369.141	9.5	1.36	32.3871	4.616	955.0	2.8	Outcome1	9.5	2.71	0.0	No		6.793884484711209				ISITrial	Gain
74.0	3	312.024	0.031	1373.788	8.3	0.64	33.4246	3.0	955.0	5.0	Outcome1	8.3	1.29	3056.25	Yes	2.0	7.014722536806341	1.737	313.761		GetAnswer	Gain
74.0	3	313.78	0.019	1375.544	8.3	0.64	33.4246	4.0	955.0	5.0	Outcome1	8.3	1.29	3056.25	Yes		7.014722536806341				ShowChoice	Gain
74.0	3	317.792	0.012	1379.556	8.3	0.64	33.4246	1.0	955.0	5.0	Outcome1	8.3	1.29	3056.25	Yes		7.014722536806341				ShowResult	Gain
74.0	3	318.811	0.019	1380.575	8.3	0.64	33.4246	3.909	955.0	5.0	Outcome1	8.3	1.29	3056.25	Yes		7.014722536806341				ISITrial	Gain
74.0	3	325.816	0.02	1387.58	8.3	0.64	33.4246	2.753	955.0	5.0	Outcome1	8.3	1.29	3056.25	Yes		7.014722536806341			876.0	TrialHappiness	Gain
74.0	3	329.828	4.012	1391.592	8.3	0.64	33.4246	4.225	955.0	5.0	Outcome1	8.3	1.29	3056.25	Yes		7.014722536806341				ISIRate	Gain
75.0	3	334.074	0.021	1395.838	13.1	3.92	35.0621	3.0	955.0	2.22	Outcome1	13.1	7.84	0.0	No	2.0	5.26500566251416	1.148	335.222		GetAnswer	Loss
75.0	3	335.244	0.022	1397.008	13.1	3.92	35.0621	4.0	955.0	2.22	Outcome1	13.1	7.84	0.0	No		5.26500566251416				ShowChoice	Loss
75.0	3	339.256	0.012	1401.02	13.1	3.92	35.0621	1.0	955.0	2.22	Outcome1	13.1	7.84	0.0	No		5.26500566251416				ShowResult	Loss
75.0	3	340.276	0.02	1402.04	13.1	3.92	35.0621	4.979	955.0	2.22	Outcome1	13.1	7.84	0.0	No		5.26500566251416				ISITrial	Loss
76.0	3	345.274	0.019	1407.038	-1.56	-1.0	34.8671	3.0	955.0	0.52	Outcome1	-1.56	-0.9	0.0	No		-0.654964137410343				GetAnswer	Mixed
76.0	3	348.3	0.026	1410.064	-1.56	-1.0	34.8671	4.0	955.0	0.52	Outcome1	-1.56	-0.9	0.0	No		-0.654964137410343				ShowChoice	Mixed
76.0	3	352.312	0.012	1414.076	-1.56	-1.0	34.8671	1.0	955.0	0.52	Outcome1	-1.56	-0.9	0.0	No		-0.654964137410343				ShowResult	Mixed
76.0	3	353.332	0.02	1415.096	-1.56	-1.0	34.8671	3.931	955.0	0.52	Outcome1	-1.56	-0.9	0.0	No		-0.654964137410343				ISITrial	Mixed
77.0	3	357.293	0.03	1419.057	4.7	2.0	35.4546	3.0	955.0	1.82	Outcome1	4.7	-0.74	4000.0	Yes	2.0	5.443941109852769	2.309	359.602		GetAnswer	Gain
77.0	3	359.617	0.015	1421.381	4.7	2.0	35.4546	4.0	955.0	1.82	Outcome1	4.7	-0.74	4000.0	Yes		5.443941109852769				ShowChoice	Gain
77.0	3	363.629	0.012	1425.393	4.7	2.0	35.4546	1.0	955.0	1.82	Outcome1	4.7	-0.74	4000.0	Yes		5.443941109852769				ShowResult	Gain
77.0	3	364.649	0.02	1426.413	4.7	2.0	35.4546	7.022	955.0	1.82	Outcome1	4.7	-0.74	4000.0	Yes		5.443941109852769				ISITrial	Gain
77.0	3	375.715	0.028	1437.479	4.7	2.0	35.4546	2.298	955.0	1.82	Outcome1	4.7	-0.74	4000.0	Yes		5.443941109852769			936.0	TrialHappiness	Gain
77.0	3	379.727	4.012	1441.491	4.7	2.0	35.4546	8.0	955.0	1.82	Outcome1	4.7	-0.74	4000.0	Yes		5.443941109852769				ISIRate	Gain
78.0	3	387.751	0.024	1449.515	11.27	5.64	36.8634	3.0	955.0	3.16	Outcome1	11.27	11.7	0.0	No	2.0	-0.42638731596829	1.267	389.018		GetAnswer	Loss
78.0	3	389.039	0.021	1450.803	11.27	5.64	36.8634	4.0	955.0	3.16	Outcome1	11.27	11.7	0.0	No		-0.42638731596829				ShowChoice	Loss
78.0	3	393.051	0.012	1454.815	11.27	5.64	36.8634	1.0	955.0	3.16	Outcome1	11.27	11.7	0.0	No		-0.42638731596829				ShowResult	Loss
78.0	3	394.07	0.019	1455.834	11.27	5.64	36.8634	2.078	955.0	3.16	Outcome1	11.27	11.7	0.0	No		-0.42638731596829				ISITrial	Loss
79.0	3	396.177	0.029	1457.941	4.27	2.13	37.3972	3.0	955.0	1.82	Outcome2	4.7	4.27	2729.5	Yes	2.0	-0.42818044545111406	1.224	397.401		GetAnswer	Gain
79.0	3	397.414	0.013	1459.178	4.27	2.13	37.3972	4.0	955.0	1.82	Outcome2	4.7	4.27	2729.5	Yes		-0.42818044545111406				ShowChoice	Gain
79.0	3	401.426	0.012	1463.19	4.27	2.13	37.3972	1.0	955.0	1.82	Outcome2	4.7	4.27	2729.5	Yes		-0.42818044545111406				ShowResult	Gain
79.0	3	402.445	0.019	1464.209	4.27	2.13	37.3972	3.829	955.0	1.82	Outcome2	4.7	4.27	2729.5	Yes		-0.42818044545111406				ISITrial	Gain
79.0	3	409.049	0.029	1470.813	4.27	2.13	37.3972	3.852	955.0	1.82	Outcome2	4.7	4.27	2729.5	Yes		-0.42818044545111406			944.0	TrialHappiness	Gain
79.0	3	413.061	4.012	1474.825	4.27	2.13	37.3972	2.918	955.0	1.82	Outcome2	4.7	4.27	2729.5	Yes		-0.42818044545111406				ISIRate	Gain
80.0	3	416.003	0.024	1477.767	-1.3	-3.0	37.2347	3.0	955.0	0.3	Outcome2	-5.72	-1.3	0.0	No		4.4212910532276295				GetAnswer	Mixed
80.0	3	419.028	0.025	1480.792	-1.3	-3.0	37.2347	4.0	955.0	0.3	Outcome2	-5.72	-1.3	0.0	No		4.4212910532276295				ShowChoice	Mixed
80.0	3	423.04	0.012	1484.804	-1.3	-3.0	37.2347	1.0	955.0	0.3	Outcome2	-5.72	-1.3	0.0	No		4.4212910532276295				ShowResult	Mixed
80.0	3	424.06	0.02	1485.824	-1.3	-3.0	37.2347	3.336	955.0	0.3	Outcome2	-5.72	-1.3	0.0	No		4.4212910532276295				ISITrial	Mixed
81.0	3	427.42	0.024	1489.184	-2.0	-2.0	36.9847	3.0	955.0	2.0	Certain	-4.13	0.3	3923.75	Yes	4.0	4.43374858437146	2.171	429.591		GetAnswer	Mixed
81.0	3	429.61	0.019	1491.374	-2.0	-2.0	36.9847	4.0	955.0	2.0	Certain	-4.13	0.3	3923.75	Yes		4.43374858437146				ShowChoice	Mixed
81.0	3	433.622	0.012	1495.386	-2.0	-2.0	36.9847	1.0	955.0	2.0	Certain	-4.13	0.3	3923.75	Yes		4.43374858437146				ShowResult	Mixed
81.0	3	434.642	0.02	1496.406	-2.0	-2.0	36.9847	3.919	955.0	2.0	Certain	-4.13	0.3	3923.75	Yes		4.43374858437146				ISITrial	Mixed
81.0	3	442.532	0.021	1504.296	-2.0	-2.0	36.9847	2.815	955.0	2.0	Certain	-4.13	0.3	3923.75	Yes		4.43374858437146			952.0	TrialHappiness	Mixed
81.0	3	446.544	4.012	1508.308	-2.0	-2.0	36.9847	7.695	955.0	2.0	Certain	-4.13	0.3	3923.75	Yes		4.43374858437146				ISIRate	Mixed
	3	454.267	0.028	1516.031				3.0													CurrentEarnings	
	3	457.293	0.026	1519.057				-0.001								{SPACE}		3.469	460.762		Goodbye	
