trial_number	block	onset	onset_delay	onset_unadjusted	amount_change	certain_amount	current_amount	duration	mood_target	multiplier	outcome	outcome1_amount	outcome2_amount	question_duration	rating	response	rpe	rt	rt_time	slider_response	trial_phase	trial_type
	0	-48.682	0.02	22.458				-0.001								{SPACE}		4.556	-44.126		Welcome	
	0	-44.1	0.026	27.04				5.0													LifeHappyPreview	
	0	-39.069	0.031	32.071				1.09												304.0	LifeHappiness	
	0	-21.025	0.03	50.115				4.0													BlockHappyPreview	
	0	-17.01	0.015	54.13				1.611												412.0	BlockStartHappiness	
	0	-1.382	0.025	69.758				-0.001								5.0					ScanWait	
	1	0.018	0.018	71.158				10.0													GetReady	
1.0	1	10.047	0.029	81.187	-0.1	1.0	9.9875	3.0	955.0	1.5	Outcome2	2.1	-0.1	0.0	No	2.0	-2.20356738391846	1.723	11.77		GetAnswer	Mixed
1.0	1	11.797	0.027	82.937	-0.1	1.0	9.9875	4.0	955.0	1.5	Outcome2	2.1	-0.1	0.0	No		-2.20356738391846				ShowChoice	Mixed
1.0	1	15.812	0.015	86.952	-0.1	1.0	9.9875	1.0	955.0	1.5	Outcome2	2.1	-0.1	0.0	No		-2.20356738391846				ShowResult	Mixed
1.0	1	16.828	0.016	87.968	-0.1	1.0	9.9875	2.431	955.0	1.5	Outcome2	2.1	-0.1	0.0	No		-2.20356738391846				ISITrial	Mixed
2.0	1	19.278	0.019	90.418	-5.0	-5.0	9.3625	3.0	955.0	0.82	Certain	-10.34	-0.5	0.0	No	4.0	9.83918459796149	2.247	21.525		GetAnswer	Mixed
2.0	1	21.543	0.018	92.683	-5.0	-5.0	9.3625	4.0	955.0	0.82	Certain	-10.34	-0.5	0.0	No		9.83918459796149				ShowChoice	Mixed
2.0	1	25.559	0.016	96.699	-5.0	-5.0	9.3625	1.0	955.0	0.82	Certain	-10.34	-0.5	0.0	No		9.83918459796149				ShowResult	Mixed
2.0	1	26.575	0.016	97.715	-5.0	-5.0	9.3625	4.568	955.0	0.82	Certain	-10.34	-0.5	0.0	No		9.83918459796149				ISITrial	Mixed
3.0	1	31.173	0.03	102.313	5.5	0.0	10.05	3.0	955.0	2.8	Outcome2	-4.95	5.5	2868.0	Yes	2.0	10.454133635334099	2.149	33.322		GetAnswer	Gain
3.0	1	33.339	0.017	104.479	5.5	0.0	10.05	4.0	955.0	2.8	Outcome2	-4.95	5.5	2868.0	Yes		10.454133635334099				ShowChoice	Gain
3.0	1	37.355	0.016	108.495	5.5	0.0	10.05	1.0	955.0	2.8	Outcome2	-4.95	5.5	2868.0	Yes		10.454133635334099				ShowResult	Gain
3.0	1	38.371	0.016	109.511	5.5	0.0	10.05	3.243	955.0	2.8	Outcome2	-4.95	5.5	2868.0	Yes		10.454133635334099				ISITrial	Gain
3.0	1	44.535	0.031	115.675	5.5	0.0	10.05	1.557	955.0	2.8	Outcome2	-4.95	5.5	2868.0	Yes		10.454133635334099			480.0	TrialHappiness	Gain
3.0	1	48.551	4.016	119.691	5.5	0.0	10.05	3.472	955.0	2.8	Outcome2	-4.95	5.5	2868.0	Yes		10.454133635334099				ISIRate	Gain
4.0	1	52.049	0.026	123.189	8.5	-0.7	11.1125	3.0	955.0	1.68	Outcome1	8.5	-1.41	0.0	No		9.913929784824461				GetAnswer	Gain
4.0	1	55.065	0.016	126.205	8.5	-0.7	11.1125	4.0	955.0	1.68	Outcome1	8.5	-1.41	0.0	No		9.913929784824461				ShowChoice	Gain
4.0	1	59.08	0.015	130.22	8.5	-0.7	11.1125	1.0	955.0	1.68	Outcome1	8.5	-1.41	0.0	No		9.913929784824461				ShowResult	Gain
4.0	1	60.097	0.017	131.237	8.5	-0.7	11.1125	2.011	955.0	1.68	Outcome1	8.5	-1.41	0.0	No		9.913929784824461				ISITrial	Gain
5.0	1	62.129	0.021	133.269	-0.88	-0.88	11.0025	3.0	955.0	1.82	Certain	-1.75	8.7	2582.5	Yes	4.0	10.4518686296716	1.421	63.55		GetAnswer	Gain
5.0	1	63.579	0.029	134.719	-0.88	-0.88	11.0025	4.0	955.0	1.82	Certain	-1.75	8.7	2582.5	Yes		10.4518686296716				ShowChoice	Gain
5.0	1	67.594	0.015	138.734	-0.88	-0.88	11.0025	1.0	955.0	1.82	Certain	-1.75	8.7	2582.5	Yes		10.4518686296716				ShowResult	Gain
5.0	1	68.61	0.016	139.75	-0.88	-0.88	11.0025	5.129	955.0	1.82	Certain	-1.75	8.7	2582.5	Yes		10.4518686296716				ISITrial	Gain
5.0	1	76.374	0.033	147.514	-0.88	-0.88	11.0025	1.373	955.0	1.82	Certain	-1.75	8.7	2582.5	Yes		10.4518686296716			488.0	TrialHappiness	Gain
5.0	1	80.39	4.016	151.53	-0.88	-0.88	11.0025	2.33	955.0	1.82	Certain	-1.75	8.7	2582.5	Yes		10.4518686296716				ISIRate	Gain
6.0	1	82.739	0.019	153.879	9.5	-0.68	12.19	3.0	955.0	2.8	Outcome2	-1.35	9.5	0.0	No	2.0	10.853907134767802	1.73	84.469		GetAnswer	Gain
6.0	1	84.488	0.019	155.628	9.5	-0.68	12.19	4.0	955.0	2.8	Outcome2	-1.35	9.5	0.0	No		10.853907134767802				ShowChoice	Gain
6.0	1	88.503	0.015	159.643	9.5	-0.68	12.19	1.0	955.0	2.8	Outcome2	-1.35	9.5	0.0	No		10.853907134767802				ShowResult	Gain
6.0	1	89.52	0.017	160.66	9.5	-0.68	12.19	6.232	955.0	2.8	Outcome2	-1.35	9.5	0.0	No		10.853907134767802				ISITrial	Gain
7.0	1	95.784	0.032	166.924	-2.0	-2.0	11.94	3.0	955.0	0.52	Certain	3.1	-8.28	0.0	No	4.0	11.3827859569649	1.932	97.716		GetAnswer	Mixed
7.0	1	97.733	0.017	168.873	-2.0	-2.0	11.94	4.0	955.0	0.52	Certain	3.1	-8.28	0.0	No		11.3827859569649				ShowChoice	Mixed
7.0	1	101.749	0.016	172.889	-2.0	-2.0	11.94	1.0	955.0	0.52	Certain	3.1	-8.28	0.0	No		11.3827859569649				ShowResult	Mixed
7.0	1	102.765	0.016	173.905	-2.0	-2.0	11.94	2.305	955.0	0.52	Certain	3.1	-8.28	0.0	No		11.3827859569649				ISITrial	Mixed
8.0	1	105.098	0.028	176.238	-0.3	-6.0	11.9025	3.0	955.0	1.0	Outcome1	-0.3	-12.21	3112.5	Yes		11.911664779161901				GetAnswer	Mixed
8.0	1	108.113	0.015	179.253	-0.3	-6.0	11.9025	4.0	955.0	1.0	Outcome1	-0.3	-12.21	3112.5	Yes		11.911664779161901				ShowChoice	Mixed
8.0	1	112.128	0.015	183.268	-0.3	-6.0	11.9025	1.0	955.0	1.0	Outcome1	-0.3	-12.21	3112.5	Yes		11.911664779161901				ShowResult	Mixed
8.0	1	113.145	0.017	184.285	-0.3	-6.0	11.9025	3.506	955.0	1.0	Outcome1	-0.3	-12.21	3112.5	Yes		11.911664779161901				ISITrial	Mixed
8.0	1	119.809	0.02	190.949	-0.3	-6.0	11.9025	2.127	955.0	1.0	Outcome1	-0.3	-12.21	3112.5	Yes		11.911664779161901			620.0	TrialHappiness	Mixed
8.0	1	123.824	4.015	194.964	-0.3	-6.0	11.9025	4.45	955.0	1.0	Outcome1	-0.3	-12.21	3112.5	Yes		11.911664779161901				ISIRate	Mixed
9.0	1	128.306	0.032	199.446	11.5	0.65	13.34	3.0	955.0	2.8	Outcome2	1.3	11.5	0.0	No	2.0	10.198187995469999	1.549	129.855		GetAnswer	Loss
9.0	1	129.872	0.017	201.012	11.5	0.65	13.34	4.0	955.0	2.8	Outcome2	1.3	11.5	0.0	No		10.198187995469999				ShowChoice	Loss
9.0	1	133.888	0.016	205.028	11.5	0.65	13.34	1.0	955.0	2.8	Outcome2	1.3	11.5	0.0	No		10.198187995469999				ShowResult	Loss
9.0	1	134.904	0.016	206.044	11.5	0.65	13.34	2.0	955.0	2.8	Outcome2	1.3	11.5	0.0	No		10.198187995469999				ISITrial	Loss
10.0	1	136.936	0.032	208.076	13.7	1.56	15.0525	3.0	955.0	3.16	Outcome1	13.7	3.12	4000.0	Yes	2.0	10.5775764439411	2.438	139.374		GetAnswer	Loss
10.0	1	139.402	0.028	210.542	13.7	1.56	15.0525	4.0	955.0	3.16	Outcome1	13.7	3.12	4000.0	Yes		10.5775764439411				ShowChoice	Loss
10.0	1	143.418	0.016	214.558	13.7	1.56	15.0525	1.0	955.0	3.16	Outcome1	13.7	3.12	4000.0	Yes		10.5775764439411				ShowResult	Loss
10.0	1	144.434	0.016	215.574	13.7	1.56	15.0525	2.0	955.0	3.16	Outcome1	13.7	3.12	4000.0	Yes		10.5775764439411				ISITrial	Loss
10.0	1	150.482	0.032	221.622	13.7	1.56	15.0525	2.942	955.0	3.16	Outcome1	13.7	3.12	4000.0	Yes		10.5775764439411			712.0	TrialHappiness	Loss
10.0	1	154.497	4.015	225.637	13.7	1.56	15.0525	8.0	955.0	3.16	Outcome1	13.7	3.12	4000.0	Yes		10.5775764439411				ISIRate	Loss
11.0	1	162.528	0.031	233.668	-3.0	-3.0	14.6775	3.0	955.0	1.2	Certain	-7.49	1.9	0.0	No	4.0	9.394110985277461	1.594	164.122		GetAnswer	Mixed
11.0	1	164.144	0.022	235.284	-3.0	-3.0	14.6775	4.0	955.0	1.2	Certain	-7.49	1.9	0.0	No		9.394110985277461				ShowChoice	Mixed
11.0	1	168.159	0.015	239.299	-3.0	-3.0	14.6775	1.0	955.0	1.2	Certain	-7.49	1.9	0.0	No		9.394110985277461				ShowResult	Mixed
11.0	1	169.175	0.016	240.315	-3.0	-3.0	14.6775	3.324	955.0	1.2	Certain	-7.49	1.9	0.0	No		9.394110985277461				ISITrial	Mixed
12.0	1	172.524	0.025	243.664	3.25	1.62	15.0837	3.0	955.0	1.82	Outcome2	4.7	3.25	2618.75	Yes	2.0	-1.44790486976217	1.41	173.934		GetAnswer	Gain
12.0	1	173.957	0.023	245.097	3.25	1.62	15.0837	4.0	955.0	1.82	Outcome2	4.7	3.25	2618.75	Yes		-1.44790486976217				ShowChoice	Gain
12.0	1	177.972	0.015	249.112	3.25	1.62	15.0837	1.0	955.0	1.82	Outcome2	4.7	3.25	2618.75	Yes		-1.44790486976217				ShowResult	Gain
12.0	1	178.989	0.017	250.129	3.25	1.62	15.0837	6.642	955.0	1.82	Outcome2	4.7	3.25	2618.75	Yes		-1.44790486976217				ISITrial	Gain
12.0	1	188.302	0.03	259.442	3.25	1.62	15.0837	0.939	955.0	1.82	Outcome2	4.7	3.25	2618.75	Yes		-1.44790486976217			628.0	TrialHappiness	Gain
12.0	1	192.317	4.015	263.457	3.25	1.62	15.0837	2.475	955.0	1.82	Outcome2	4.7	3.25	2618.75	Yes		-1.44790486976217				ISIRate	Gain
13.0	1	194.816	0.024	265.956	10.89	5.44	16.4449	3.0	955.0	1.82	Outcome2	12.7	10.89	0.0	No	2.0	-1.81172140430351	1.173	195.989		GetAnswer	Loss
13.0	1	196.016	0.027	267.156	10.89	5.44	16.4449	4.0	955.0	1.82	Outcome2	12.7	10.89	0.0	No		-1.81172140430351				ShowChoice	Loss
13.0	1	200.031	0.015	271.171	10.89	5.44	16.4449	1.0	955.0	1.82	Outcome2	12.7	10.89	0.0	No		-1.81172140430351				ShowResult	Loss
13.0	1	201.047	0.016	272.187	10.89	5.44	16.4449	3.48	955.0	1.82	Outcome2	12.7	10.89	0.0	No		-1.81172140430351				ISITrial	Loss
14.0	1	204.546	0.019	275.686	10.26	5.13	17.7274	3.0	955.0	4.2	Outcome2	12.1	10.26	0.0	No	2.0	-1.84258210645527	1.09	205.636		GetAnswer	Loss
14.0	1	205.663	0.027	276.803	10.26	5.13	17.7274	4.0	955.0	4.2	Outcome2	12.1	10.26	0.0	No		-1.84258210645527				ShowChoice	Loss
14.0	1	209.678	0.015	280.818	10.26	5.13	17.7274	1.0	955.0	4.2	Outcome2	12.1	10.26	0.0	No		-1.84258210645527				ShowResult	Loss
14.0	1	210.694	0.016	281.834	10.26	5.13	17.7274	5.019	955.0	4.2	Outcome2	12.1	10.26	0.0	No		-1.84258210645527				ISITrial	Loss
15.0	1	215.742	0.029	286.882	1.0	1.0	17.8524	3.0	955.0	2.22	Certain	7.1	-5.01	3348.5	Yes	4.0	12.112117780294499	1.417	217.159		GetAnswer	Gain
15.0	1	217.175	0.016	288.315	1.0	1.0	17.8524	4.0	955.0	2.22	Certain	7.1	-5.01	3348.5	Yes		12.112117780294499				ShowChoice	Gain
15.0	1	221.19	0.015	292.33	1.0	1.0	17.8524	1.0	955.0	2.22	Certain	7.1	-5.01	3348.5	Yes		12.112117780294499				ShowResult	Gain
15.0	1	222.207	0.017	293.347	1.0	1.0	17.8524	7.614	955.0	2.22	Certain	7.1	-5.01	3348.5	Yes		12.112117780294499				ISITrial	Gain
15.0	1	233.203	0.018	304.343	1.0	1.0	17.8524	3.505	955.0	2.22	Certain	7.1	-5.01	3348.5	Yes		12.112117780294499			756.0	TrialHappiness	Gain
15.0	1	237.218	4.015	308.358	1.0	1.0	17.8524	5.394	955.0	2.22	Certain	7.1	-5.01	3348.5	Yes		12.112117780294499				ISIRate	Gain
16.0	1	242.633	0.021	313.773	-5.0	-5.0	17.2274	3.0	955.0	1.5	Certain	-10.21	0.1	0.0	No	4.0	10.3080407701019	1.941	244.574		GetAnswer	Mixed
16.0	1	244.599	0.025	315.739	-5.0	-5.0	17.2274	4.0	955.0	1.5	Certain	-10.21	0.1	0.0	No		10.3080407701019				ShowChoice	Mixed
16.0	1	248.614	0.015	319.754	-5.0	-5.0	17.2274	1.0	955.0	1.5	Certain	-10.21	0.1	0.0	No		10.3080407701019				ShowResult	Mixed
16.0	1	249.631	0.017	320.771	-5.0	-5.0	17.2274	3.008	955.0	1.5	Certain	-10.21	0.1	0.0	No		10.3080407701019				ISITrial	Mixed
17.0	1	252.663	0.024	323.803	11.9	0.68	18.7149	3.0	955.0	3.6	Outcome2	1.37	11.9	3041.5	Yes	2.0	10.533408833522099	1.207	253.87		GetAnswer	Loss
17.0	1	253.896	0.026	325.036	11.9	0.68	18.7149	4.0	955.0	3.6	Outcome2	1.37	11.9	3041.5	Yes		10.533408833522099				ShowChoice	Loss
17.0	1	257.911	0.015	329.051	11.9	0.68	18.7149	1.0	955.0	3.6	Outcome2	1.37	11.9	3041.5	Yes		10.533408833522099				ShowResult	Loss
17.0	1	258.927	0.016	330.067	11.9	0.68	18.7149	3.566	955.0	3.6	Outcome2	1.37	11.9	3041.5	Yes		10.533408833522099				ISITrial	Loss
17.0	1	265.575	0.024	336.715	11.9	0.68	18.7149	1.489	955.0	3.6	Outcome2	1.37	11.9	3041.5	Yes		10.533408833522099			628.0	TrialHappiness	Loss
17.0	1	269.59	4.015	340.73	11.9	0.68	18.7149	4.166	955.0	3.6	Outcome2	1.37	11.9	3041.5	Yes		10.533408833522099				ISIRate	Loss
18.0	1	273.789	0.033	344.929	11.96	5.98	20.2099	3.0	955.0	3.6	Outcome2	13.9	11.96	0.0	No	2.0	-1.94186485466214	0.956	274.745		GetAnswer	Loss
18.0	1	274.772	0.027	345.912	11.96	5.98	20.2099	4.0	955.0	3.6	Outcome2	13.9	11.96	0.0	No		-1.94186485466214				ShowChoice	Loss
18.0	1	278.787	0.015	349.927	11.96	5.98	20.2099	1.0	955.0	3.6	Outcome2	13.9	11.96	0.0	No		-1.94186485466214				ShowResult	Loss
18.0	1	279.803	0.016	350.943	11.96	5.98	20.2099	6.787	955.0	3.6	Outcome2	13.9	11.96	0.0	No		-1.94186485466214				ISITrial	Loss
19.0	1	286.618	0.028	357.758	12.9	-0.2	21.8224	3.0	955.0	2.0	Outcome2	-0.4	12.9	0.0	No	2.0	13.3035107587769	1.574	288.192		GetAnswer	Loss
19.0	1	288.217	0.025	359.357	12.9	-0.2	21.8224	4.0	955.0	2.0	Outcome2	-0.4	12.9	0.0	No		13.3035107587769				ShowChoice	Loss
19.0	1	292.232	0.015	363.372	12.9	-0.2	21.8224	1.0	955.0	2.0	Outcome2	-0.4	12.9	0.0	No		13.3035107587769				ShowResult	Loss
19.0	1	293.249	0.017	364.389	12.9	-0.2	21.8224	2.0	955.0	2.0	Outcome2	-0.4	12.9	0.0	No		13.3035107587769				ISITrial	Loss
20.0	1	295.281	0.032	366.421	7.3	3.65	22.7349	3.0	955.0	2.48	Outcome2	9.3	7.3	2921.25	Yes	2.0	-2.00358625896565	1.067	296.348		GetAnswer	Gain
20.0	1	296.364	0.016	367.504	7.3	3.65	22.7349	4.0	955.0	2.48	Outcome2	9.3	7.3	2921.25	Yes		-2.00358625896565				ShowChoice	Gain
20.0	1	300.379	0.015	371.519	7.3	3.65	22.7349	1.0	955.0	2.48	Outcome2	9.3	7.3	2921.25	Yes		-2.00358625896565				ShowResult	Gain
20.0	1	301.396	0.017	372.536	7.3	3.65	22.7349	8.0	955.0	2.48	Outcome2	9.3	7.3	2921.25	Yes		-2.00358625896565				ISITrial	Gain
20.0	1	312.359	0.028	383.499	7.3	3.65	22.7349	2.67	955.0	2.48	Outcome2	9.3	7.3	2921.25	Yes		-2.00358625896565			652.0	TrialHappiness	Gain
20.0	1	316.374	4.015	387.514	7.3	3.65	22.7349	3.685	955.0	2.48	Outcome2	9.3	7.3	2921.25	Yes		-2.00358625896565				ISIRate	Gain
21.0	1	320.089	0.03	391.229	10.7	-1.47	24.0724	3.0	955.0	1.82	Outcome2	-2.94	10.7	0.0	No	2.0	13.636466591166501	1.376	321.465		GetAnswer	Loss
21.0	1	321.489	0.024	392.629	10.7	-1.47	24.0724	4.0	955.0	1.82	Outcome2	-2.94	10.7	0.0	No		13.636466591166501				ShowChoice	Loss
21.0	1	325.504	0.015	396.644	10.7	-1.47	24.0724	1.0	955.0	1.82	Outcome2	-2.94	10.7	0.0	No		13.636466591166501				ShowResult	Loss
21.0	1	326.52	0.016	397.66	10.7	-1.47	24.0724	3.555	955.0	1.82	Outcome2	-2.94	10.7	0.0	No		13.636466591166501				ISITrial	Loss
22.0	1	330.102	0.027	401.242	1.73	2.0	24.2886	3.0	955.0	1.0	Outcome1	1.73	3.7	3219.5	Yes	2.0	-1.96564741411854	2.235	332.337		GetAnswer	Mixed
22.0	1	332.352	0.015	403.492	1.73	2.0	24.2886	4.0	955.0	1.0	Outcome1	1.73	3.7	3219.5	Yes		-1.96564741411854				ShowChoice	Mixed
22.0	1	336.367	0.015	407.507	1.73	2.0	24.2886	1.0	955.0	1.0	Outcome1	1.73	3.7	3219.5	Yes		-1.96564741411854				ShowResult	Mixed
22.0	1	337.383	0.016	408.523	1.73	2.0	24.2886	6.793	955.0	1.0	Outcome1	1.73	3.7	3219.5	Yes		-1.96564741411854				ISITrial	Mixed
22.0	1	347.446	0.028	418.586	1.73	2.0	24.2886	1.584	955.0	1.0	Outcome1	1.73	3.7	3219.5	Yes	2{-2}2{-2}2{-2}2{-2}	-1.96564741411854	1.584	349.03	652.0	TrialHappiness	Mixed
22.0	1	351.462	4.016	422.602	1.73	2.0	24.2886	4.878	955.0	1.0	Outcome1	1.73	3.7	3219.5	Yes		-1.96564741411854				ISIRate	Mixed
23.0	1	356.36	0.02	427.5	-3.0	-3.0	23.9136	3.0	955.0	0.82	Certain	3.5	-10.82	0.0	No	4.0	14.3227633069083	1.23	357.59		GetAnswer	Mixed
23.0	1	357.61	0.02	428.75	-3.0	-3.0	23.9136	4.0	955.0	0.82	Certain	3.5	-10.82	0.0	No		14.3227633069083				ShowChoice	Mixed
23.0	1	361.625	0.015	432.765	-3.0	-3.0	23.9136	1.0	955.0	0.82	Certain	3.5	-10.82	0.0	No		14.3227633069083				ShowResult	Mixed
23.0	1	362.641	0.016	433.781	-3.0	-3.0	23.9136	8.0	955.0	0.82	Certain	3.5	-10.82	0.0	No		14.3227633069083				ISITrial	Mixed
24.0	1	370.672	0.031	441.812	11.08	5.54	25.2986	3.0	955.0	2.22	Outcome1	11.08	13.1	3255.0	Yes	2.0	-2.02283880709702	1.132	371.804		GetAnswer	Loss
24.0	1	371.821	0.017	442.961	11.08	5.54	25.2986	4.0	955.0	2.22	Outcome1	11.08	13.1	3255.0	Yes		-2.02283880709702				ShowChoice	Loss
24.0	1	375.836	0.015	446.976	11.08	5.54	25.2986	1.0	955.0	2.22	Outcome1	11.08	13.1	3255.0	Yes		-2.02283880709702				ShowResult	Loss
24.0	1	376.853	0.017	447.993	11.08	5.54	25.2986	2.0	955.0	2.22	Outcome1	11.08	13.1	3255.0	Yes		-2.02283880709702				ISITrial	Loss
24.0	1	382.151	0.027	453.291	11.08	5.54	25.2986	3.195	955.0	2.22	Outcome1	11.08	13.1	3255.0	Yes		-2.02283880709702			632.0	TrialHappiness	Loss
24.0	1	386.166	4.015	457.306	11.08	5.54	25.2986	5.02	955.0	2.22	Outcome1	11.08	13.1	3255.0	Yes		-2.02283880709702				ISIRate	Loss
25.0	1	391.214	0.028	462.354	1.0	1.0	25.4236	3.0	955.0	2.0	Certain	-6.45	8.9	0.0	No	4.0	15.3488108720272	1.509	392.723		GetAnswer	Gain
25.0	1	392.747	0.023	463.887	1.0	1.0	25.4236	4.0	955.0	2.0	Certain	-6.45	8.9	0.0	No		15.3488108720272				ShowChoice	Gain
25.0	1	396.763	0.016	467.903	1.0	1.0	25.4236	1.0	955.0	2.0	Certain	-6.45	8.9	0.0	No		15.3488108720272				ShowResult	Gain
25.0	1	397.779	0.016	468.919	1.0	1.0	25.4236	3.749	955.0	2.0	Certain	-6.45	8.9	0.0	No		15.3488108720272				ISITrial	Gain
26.0	1	401.561	0.033	472.701	-2.0	-2.0	25.1736	3.0	955.0	4.2	Certain	-9.61	6.1	0.0	No	4.0	15.7146092865232	2.376	403.937		GetAnswer	Gain
26.0	1	403.96	0.023	475.1	-2.0	-2.0	25.1736	4.0	955.0	4.2	Certain	-9.61	6.1	0.0	No		15.7146092865232				ShowChoice	Gain
26.0	1	407.975	0.015	479.115	-2.0	-2.0	25.1736	1.0	955.0	4.2	Certain	-9.61	6.1	0.0	No		15.7146092865232				ShowResult	Gain
26.0	1	408.992	0.017	480.132	-2.0	-2.0	25.1736	7.834	955.0	4.2	Certain	-9.61	6.1	0.0	No		15.7146092865232				ISITrial	Gain
27.0	1	416.856	0.03	487.996	-3.0	-3.0	24.7986	3.0	955.0	2.0	Certain	-11.18	4.9	2549.75	Yes	4.0	16.0804077010193	1.991	418.847		GetAnswer	Gain
27.0	1	418.871	0.024	490.011	-3.0	-3.0	24.7986	4.0	955.0	2.0	Certain	-11.18	4.9	2549.75	Yes		16.0804077010193				ShowChoice	Gain
27.0	1	422.887	0.016	494.027	-3.0	-3.0	24.7986	1.0	955.0	2.0	Certain	-11.18	4.9	2549.75	Yes		16.0804077010193				ShowResult	Gain
27.0	1	423.903	0.016	495.043	-3.0	-3.0	24.7986	4.225	955.0	2.0	Certain	-11.18	4.9	2549.75	Yes		16.0804077010193				ISITrial	Gain
27.0	1	430.734	0.032	501.874	-3.0	-3.0	24.7986	3.462	955.0	2.0	Certain	-11.18	4.9	2549.75	Yes		16.0804077010193			420.0	TrialHappiness	Gain
27.0	1	434.749	4.015	505.889	-3.0	-3.0	24.7986	2.199	955.0	2.0	Certain	-11.18	4.9	2549.75	Yes		16.0804077010193				ISIRate	Gain
	1	436.982	0.034	508.122				-0.001								{SPACE}		57.313	494.295		Rest	
	1	494.312	0.016	565.452				4.0													BlockHappyPreview	
	1	498.327	0.015	569.467				2.856												432.0	BlockStartHappiness	
	1	507.157	0.014	578.297				-0.001								5.0		1.701	508.858		ScanWait	
	2	0.015	0.015	580.013				10.0													GetReady	
28.0	2	10.045	0.03	590.043	-5.06	-2.0	24.1661	3.0	70.0	0.52	Outcome1	-5.06	1.1	0.0	No	2.0	-6.156462585034009	1.805	11.85		GetAnswer	Mixed
28.0	2	11.878	0.028	591.876	-5.06	-2.0	24.1661	4.0	70.0	0.52	Outcome1	-5.06	1.1	0.0	No		-6.156462585034009				ShowChoice	Mixed
28.0	2	15.893	0.015	595.891	-5.06	-2.0	24.1661	1.0	70.0	0.52	Outcome1	-5.06	1.1	0.0	No		-6.156462585034009				ShowResult	Mixed
28.0	2	16.91	0.017	596.908	-5.06	-2.0	24.1661	3.575	70.0	0.52	Outcome1	-5.06	1.1	0.0	No		-6.156462585034009				ISITrial	Mixed
29.0	2	20.508	0.023	600.506	1.0	1.0	24.2911	3.0	70.0	5.0	Certain	1.58	0.08	3529.0	Yes	4.0	1.5049130763416498	1.548	22.056		GetAnswer	Gain
29.0	2	22.074	0.018	602.072	1.0	1.0	24.2911	4.0	70.0	5.0	Certain	1.58	0.08	3529.0	Yes		1.5049130763416498				ShowChoice	Gain
29.0	2	26.09	0.016	606.088	1.0	1.0	24.2911	1.0	70.0	5.0	Certain	1.58	0.08	3529.0	Yes		1.5049130763416498				ShowResult	Gain
29.0	2	27.106	0.016	607.104	1.0	1.0	24.2911	3.955	70.0	5.0	Certain	1.58	0.08	3529.0	Yes		1.5049130763416498				ISITrial	Gain
29.0	2	34.62	0.02	614.618	1.0	1.0	24.2911	3.21	70.0	5.0	Certain	1.58	0.08	3529.0	Yes		1.5049130763416498			388.0	TrialHappiness	Gain
29.0	2	38.635	4.015	618.633	1.0	1.0	24.2911	6.116	70.0	5.0	Certain	1.58	0.08	3529.0	Yes		1.5049130763416498				ISIRate	Gain
30.0	2	44.783	0.032	624.781	0.27	0.14	24.3249	3.0	70.0	1.68	Outcome1	0.27	6.5	0.0	No	2.0	-6.22902494331066	1.411	46.194		GetAnswer	Gain
30.0	2	46.216	0.022	626.214	0.27	0.14	24.3249	4.0	70.0	1.68	Outcome1	0.27	6.5	0.0	No		-6.22902494331066				ShowChoice	Gain
30.0	2	50.231	0.015	630.229	0.27	0.14	24.3249	1.0	70.0	1.68	Outcome1	0.27	6.5	0.0	No		-6.22902494331066				ShowResult	Gain
30.0	2	51.248	0.017	631.246	0.27	0.14	24.3249	4.453	70.0	1.68	Outcome1	0.27	6.5	0.0	No		-6.22902494331066				ISITrial	Gain
31.0	2	55.729	0.028	635.727	-0.32	-1.0	24.2849	3.0	70.0	0.3	Outcome1	-0.32	-1.71	2503.25	Yes	2.0	1.3904006046863202	1.943	57.672		GetAnswer	Mixed
31.0	2	57.695	0.023	637.693	-0.32	-1.0	24.2849	4.0	70.0	0.3	Outcome1	-0.32	-1.71	2503.25	Yes		1.3904006046863202				ShowChoice	Mixed
31.0	2	61.711	0.016	641.709	-0.32	-1.0	24.2849	1.0	70.0	0.3	Outcome1	-0.32	-1.71	2503.25	Yes		1.3904006046863202				ShowResult	Mixed
31.0	2	62.727	0.016	642.725	-0.32	-1.0	24.2849	4.786	70.0	0.3	Outcome1	-0.32	-1.71	2503.25	Yes		1.3904006046863202				ISITrial	Mixed
31.0	2	70.058	0.03	650.056	-0.32	-1.0	24.2849	1.256	70.0	0.3	Outcome1	-0.32	-1.71	2503.25	Yes	4{-4}4{-4}4{-4}	1.3904006046863202	1.256	71.314	440.0	TrialHappiness	Mixed
31.0	2	74.073	4.015	654.071	-0.32	-1.0	24.2849	2.013	70.0	0.3	Outcome1	-0.32	-1.71	2503.25	Yes		1.3904006046863202				ISIRate	Mixed
32.0	2	76.106	0.02	656.104	0.47	0.24	24.3437	3.0	70.0	5.0	Outcome2	8.3	0.47	0.0	No	2.0	-7.834467120181411	1.215	77.321		GetAnswer	Gain
32.0	2	77.338	0.017	657.336	0.47	0.24	24.3437	4.0	70.0	5.0	Outcome2	8.3	0.47	0.0	No		-7.834467120181411				ShowChoice	Gain
32.0	2	81.354	0.016	661.352	0.47	0.24	24.3437	1.0	70.0	5.0	Outcome2	8.3	0.47	0.0	No		-7.834467120181411				ShowResult	Gain
32.0	2	82.37	0.016	662.368	0.47	0.24	24.3437	2.0	70.0	5.0	Outcome2	8.3	0.47	0.0	No		-7.834467120181411				ISITrial	Gain
33.0	2	84.386	0.016	664.384	0.0	0.0	24.3437	3.0	70.0	1.5	Certain	4.1	-4.15	0.0	No	4.0	-8.25396825396825	1.824	86.21		GetAnswer	Mixed
33.0	2	86.235	0.025	666.233	0.0	0.0	24.3437	4.0	70.0	1.5	Certain	4.1	-4.15	0.0	No		-8.25396825396825				ShowChoice	Mixed
33.0	2	90.251	0.016	670.249	0.0	0.0	24.3437	1.0	70.0	1.5	Certain	4.1	-4.15	0.0	No		-8.25396825396825				ShowResult	Mixed
33.0	2	91.267	0.016	671.265	0.0	0.0	24.3437	5.099	70.0	1.5	Certain	4.1	-4.15	0.0	No		-8.25396825396825				ISITrial	Mixed
34.0	2	96.382	0.016	676.38	3.63	1.82	24.7975	3.0	70.0	5.0	Outcome2	12.3	3.63	3231.5	Yes	2.0	-8.6734693877551	1.278	97.66		GetAnswer	Loss
34.0	2	97.681	0.021	677.679	3.63	1.82	24.7975	4.0	70.0	5.0	Outcome2	12.3	3.63	3231.5	Yes		-8.6734693877551				ShowChoice	Loss
34.0	2	101.697	0.016	681.695	3.63	1.82	24.7975	1.0	70.0	5.0	Outcome2	12.3	3.63	3231.5	Yes		-8.6734693877551				ShowResult	Loss
34.0	2	102.713	0.016	682.711	3.63	1.82	24.7975	4.784	70.0	5.0	Outcome2	12.3	3.63	3231.5	Yes		-8.6734693877551				ISITrial	Loss
34.0	2	110.76	0.017	690.758	3.63	1.82	24.7975	2.737	70.0	5.0	Outcome2	12.3	3.63	3231.5	Yes		-8.6734693877551			388.0	TrialHappiness	Loss
34.0	2	114.775	4.015	694.773	3.63	1.82	24.7975	4.926	70.0	5.0	Outcome2	12.3	3.63	3231.5	Yes		-8.6734693877551				ISIRate	Loss
35.0	2	119.724	0.023	699.722	-2.0	-2.0	24.5475	3.0	70.0	2.0	Certain	-5.91	2.3	0.0	No	4.0	-8.20861678004535	1.931	121.655		GetAnswer	Mixed
35.0	2	121.673	0.018	701.671	-2.0	-2.0	24.5475	4.0	70.0	2.0	Certain	-5.91	2.3	0.0	No		-8.20861678004535				ShowChoice	Mixed
35.0	2	125.688	0.015	705.686	-2.0	-2.0	24.5475	1.0	70.0	2.0	Certain	-5.91	2.3	0.0	No		-8.20861678004535				ShowResult	Mixed
35.0	2	126.705	0.017	706.703	-2.0	-2.0	24.5475	2.098	70.0	2.0	Certain	-5.91	2.3	0.0	No		-8.20861678004535				ISITrial	Mixed
36.0	2	128.82	0.017	708.818	-1.67	2.0	24.3387	3.0	70.0	2.0	Outcome2	6.9	-1.67	3335.75	Yes	2.0	-8.56916099773243	2.132	130.952		GetAnswer	Gain
36.0	2	130.97	0.018	710.968	-1.67	2.0	24.3387	4.0	70.0	2.0	Outcome2	6.9	-1.67	3335.75	Yes		-8.56916099773243				ShowChoice	Gain
36.0	2	134.985	0.015	714.983	-1.67	2.0	24.3387	1.0	70.0	2.0	Outcome2	6.9	-1.67	3335.75	Yes		-8.56916099773243				ShowResult	Gain
36.0	2	136.001	0.016	715.999	-1.67	2.0	24.3387	5.156	70.0	2.0	Outcome2	6.9	-1.67	3335.75	Yes		-8.56916099773243				ISITrial	Gain
36.0	2	144.548	0.029	724.546	-1.67	2.0	24.3387	2.669	70.0	2.0	Outcome2	6.9	-1.67	3335.75	Yes		-8.56916099773243			344.0	TrialHappiness	Gain
36.0	2	148.564	4.016	728.562	-1.67	2.0	24.3387	5.343	70.0	2.0	Outcome2	6.9	-1.67	3335.75	Yes		-8.56916099773243				ISIRate	Gain
37.0	2	153.928	0.021	733.926	-0.08	-0.04	24.3287	3.0	70.0	4.2	Outcome1	-0.08	8.1	0.0	No	2.0	-8.181405895691611	1.46	155.388		GetAnswer	Gain
37.0	2	155.411	0.023	735.409	-0.08	-0.04	24.3287	4.0	70.0	4.2	Outcome1	-0.08	8.1	0.0	No		-8.181405895691611				ShowChoice	Gain
37.0	2	159.426	0.015	739.424	-0.08	-0.04	24.3287	1.0	70.0	4.2	Outcome1	-0.08	8.1	0.0	No		-8.181405895691611				ShowResult	Gain
37.0	2	160.443	0.017	740.441	-0.08	-0.04	24.3287	3.598	70.0	4.2	Outcome1	-0.08	8.1	0.0	No		-8.181405895691611				ISITrial	Gain
38.0	2	164.058	0.017	744.056	1.0	1.0	24.4537	3.0	70.0	3.16	Certain	5.7	-2.79	0.0	No	4.0	-8.49206349206349	1.48	165.538		GetAnswer	Gain
38.0	2	165.558	0.02	745.556	1.0	1.0	24.4537	4.0	70.0	3.16	Certain	5.7	-2.79	0.0	No		-8.49206349206349				ShowChoice	Gain
38.0	2	169.573	0.015	749.571	1.0	1.0	24.4537	1.0	70.0	3.16	Certain	5.7	-2.79	0.0	No		-8.49206349206349				ShowResult	Gain
38.0	2	170.589	0.016	750.587	1.0	1.0	24.4537	4.787	70.0	3.16	Certain	5.7	-2.79	0.0	No		-8.49206349206349				ISITrial	Gain
39.0	2	175.404	0.028	755.402	1.5	0.75	24.6412	3.0	70.0	5.0	Outcome1	1.5	10.3	2864.25	Yes	2.0	-8.80272108843537	1.295	176.699		GetAnswer	Gain
39.0	2	176.72	0.021	756.718	1.5	0.75	24.6412	4.0	70.0	5.0	Outcome1	1.5	10.3	2864.25	Yes		-8.80272108843537				ShowChoice	Gain
39.0	2	180.736	0.016	760.734	1.5	0.75	24.6412	1.0	70.0	5.0	Outcome1	1.5	10.3	2864.25	Yes		-8.80272108843537				ShowResult	Gain
39.0	2	181.752	0.016	761.75	1.5	0.75	24.6412	2.348	70.0	5.0	Outcome1	1.5	10.3	2864.25	Yes		-8.80272108843537				ISITrial	Gain
39.0	2	187.0	0.018	766.998	1.5	0.75	24.6412	2.41	70.0	5.0	Outcome1	1.5	10.3	2864.25	Yes	4{-4}2{-2}2{-2}2{-2}	-8.80272108843537	2.41	189.41	412.0	TrialHappiness	Gain
39.0	2	191.015	4.015	771.013	1.5	0.75	24.6412	3.457	70.0	5.0	Outcome1	1.5	10.3	2864.25	Yes		-8.80272108843537				ISIRate	Gain
40.0	2	194.498	0.026	774.496	1.0	1.0	24.7662	3.0	70.0	4.2	Certain	2.52	0.76	0.0	No	4.0	1.7605820105820102	1.713	196.211		GetAnswer	Gain
40.0	2	196.23	0.019	776.228	1.0	1.0	24.7662	4.0	70.0	4.2	Certain	2.52	0.76	0.0	No		1.7605820105820102				ShowChoice	Gain
40.0	2	200.246	0.016	780.244	1.0	1.0	24.7662	1.0	70.0	4.2	Certain	2.52	0.76	0.0	No		1.7605820105820102				ShowResult	Gain
40.0	2	201.262	0.016	781.26	1.0	1.0	24.7662	3.158	70.0	4.2	Certain	2.52	0.76	0.0	No		1.7605820105820102				ISITrial	Gain
41.0	2	204.444	0.024	784.442	1.0	1.0	24.8912	3.0	70.0	1.82	Certain	-3.96	6.7	4000.0	Yes	4.0	-10.6575963718821	1.821	206.265		GetAnswer	Gain
41.0	2	206.277	0.012	786.275	1.0	1.0	24.8912	4.0	70.0	1.82	Certain	-3.96	6.7	4000.0	Yes		-10.6575963718821				ShowChoice	Gain
41.0	2	210.292	0.015	790.29	1.0	1.0	24.8912	1.0	70.0	1.82	Certain	-3.96	6.7	4000.0	Yes		-10.6575963718821				ShowResult	Gain
41.0	2	211.308	0.016	791.306	1.0	1.0	24.8912	4.506	70.0	1.82	Certain	-3.96	6.7	4000.0	Yes		-10.6575963718821				ISITrial	Gain
41.0	2	219.855	0.015	799.853	1.0	1.0	24.8912	0.975	70.0	1.82	Certain	-3.96	6.7	4000.0	Yes		-10.6575963718821			472.0	TrialHappiness	Gain
41.0	2	223.871	4.016	803.869	1.0	1.0	24.8912	8.0	70.0	1.82	Certain	-3.96	6.7	4000.0	Yes		-10.6575963718821				ISIRate	Gain
42.0	2	231.901	0.03	811.899	-13.17	-7.0	23.245	3.0	70.0	0.4	Outcome1	-13.17	-1.1	0.0	No	2.0	-12.065759637188199	2.349	234.25		GetAnswer	Mixed
42.0	2	234.267	0.017	814.265	-13.17	-7.0	23.245	4.0	70.0	0.4	Outcome1	-13.17	-1.1	0.0	No		-12.065759637188199				ShowChoice	Mixed
42.0	2	238.282	0.015	818.28	-13.17	-7.0	23.245	1.0	70.0	0.4	Outcome1	-13.17	-1.1	0.0	No		-12.065759637188199				ShowResult	Mixed
42.0	2	239.299	0.017	819.297	-13.17	-7.0	23.245	6.248	70.0	0.4	Outcome1	-13.17	-1.1	0.0	No		-12.065759637188199				ISITrial	Mixed
43.0	2	245.563	0.016	825.561	-0.02	-0.01	23.2425	3.0	70.0	1.68	Outcome2	12.5	-0.02	2775.75	Yes	2.0	-12.521541950113402	1.353	246.916		GetAnswer	Loss
43.0	2	246.929	0.013	826.927	-0.02	-0.01	23.2425	4.0	70.0	1.68	Outcome2	12.5	-0.02	2775.75	Yes		-12.521541950113402				ShowChoice	Loss
43.0	2	250.945	0.016	830.943	-0.02	-0.01	23.2425	1.0	70.0	1.68	Outcome2	12.5	-0.02	2775.75	Yes		-12.521541950113402				ShowResult	Loss
43.0	2	251.961	0.016	831.959	-0.02	-0.01	23.2425	4.596	70.0	1.68	Outcome2	12.5	-0.02	2775.75	Yes		-12.521541950113402				ISITrial	Loss
43.0	2	259.375	0.023	839.373	-0.02	-0.01	23.2425	2.755	70.0	1.68	Outcome2	12.5	-0.02	2775.75	Yes		-12.521541950113402			220.0	TrialHappiness	Loss
43.0	2	263.39	4.015	843.388	-0.02	-0.01	23.2425	3.103	70.0	1.68	Outcome2	12.5	-0.02	2775.75	Yes		-12.521541950113402				ISIRate	Loss
44.0	2	266.522	0.029	846.52	2.72	2.0	23.5825	3.0	70.0	2.0	Outcome2	1.6	2.72	0.0	No	2.0	1.1211262282690901	1.181	267.703		GetAnswer	Loss
44.0	2	267.722	0.019	847.72	2.72	2.0	23.5825	4.0	70.0	2.0	Outcome2	1.6	2.72	0.0	No		1.1211262282690901				ShowChoice	Loss
44.0	2	271.737	0.015	851.735	2.72	2.0	23.5825	1.0	70.0	2.0	Outcome2	1.6	2.72	0.0	No		1.1211262282690901				ShowResult	Loss
44.0	2	272.754	0.017	852.752	2.72	2.0	23.5825	2.42	70.0	2.0	Outcome2	1.6	2.72	0.0	No		1.1211262282690901				ISITrial	Loss
45.0	2	275.203	0.029	855.201	-2.0	-2.0	23.3325	3.0	70.0	0.2	Certain	-6.36	2.5	0.0	No	4.0	-8.86167800453515	2.309	277.512		GetAnswer	Mixed
45.0	2	277.535	0.023	857.533	-2.0	-2.0	23.3325	4.0	70.0	0.2	Certain	-6.36	2.5	0.0	No		-8.86167800453515				ShowChoice	Mixed
45.0	2	281.551	0.016	861.549	-2.0	-2.0	23.3325	1.0	70.0	0.2	Certain	-6.36	2.5	0.0	No		-8.86167800453515				ShowResult	Mixed
45.0	2	282.567	0.016	862.565	-2.0	-2.0	23.3325	3.144	70.0	0.2	Certain	-6.36	2.5	0.0	No		-8.86167800453515				ISITrial	Mixed
46.0	2	285.732	0.021	865.73	0.87	0.44	23.4413	3.0	70.0	3.6	Outcome1	0.87	9.9	3841.25	Yes	2.0	-9.03174603174603	1.172	286.904		GetAnswer	Gain
46.0	2	286.932	0.028	866.93	0.87	0.44	23.4413	4.0	70.0	3.6	Outcome1	0.87	9.9	3841.25	Yes		-9.03174603174603				ShowChoice	Gain
46.0	2	290.947	0.015	870.945	0.87	0.44	23.4413	1.0	70.0	3.6	Outcome1	0.87	9.9	3841.25	Yes		-9.03174603174603				ShowResult	Gain
46.0	2	291.964	0.017	871.962	0.87	0.44	23.4413	2.246	70.0	3.6	Outcome1	0.87	9.9	3841.25	Yes		-9.03174603174603				ISITrial	Gain
46.0	2	298.095	0.025	878.093	0.87	0.44	23.4413	1.74	70.0	3.6	Outcome1	0.87	9.9	3841.25	Yes		-9.03174603174603			320.0	TrialHappiness	Gain
46.0	2	302.11	4.015	882.108	0.87	0.44	23.4413	7.365	70.0	3.6	Outcome1	0.87	9.9	3841.25	Yes		-9.03174603174603				ISIRate	Gain
47.0	2	309.491	0.016	889.489	-4.0	-4.0	22.9413	3.0	70.0	0.82	Certain	-9.4	1.5	0.0	No	4.0	-10.9024943310658	2.414	311.905		GetAnswer	Mixed
47.0	2	311.923	0.018	891.921	-4.0	-4.0	22.9413	4.0	70.0	0.82	Certain	-9.4	1.5	0.0	No		-10.9024943310658				ShowChoice	Mixed
47.0	2	315.939	0.016	895.937	-4.0	-4.0	22.9413	1.0	70.0	0.82	Certain	-9.4	1.5	0.0	No		-10.9024943310658				ShowResult	Mixed
47.0	2	316.955	0.016	896.953	-4.0	-4.0	22.9413	2.0	70.0	0.82	Certain	-9.4	1.5	0.0	No		-10.9024943310658				ISITrial	Mixed
48.0	2	318.971	0.016	898.969	0.0	0.0	22.9413	3.0	70.0	0.4	Certain	0.72	-0.87	2831.75	Yes	4.0	1.59353741496599	1.891	320.862		GetAnswer	Mixed
48.0	2	320.887	0.025	900.885	0.0	0.0	22.9413	4.0	70.0	0.4	Certain	0.72	-0.87	2831.75	Yes		1.59353741496599				ShowChoice	Mixed
48.0	2	324.902	0.015	904.9	0.0	0.0	22.9413	1.0	70.0	0.4	Certain	0.72	-0.87	2831.75	Yes		1.59353741496599				ShowResult	Mixed
48.0	2	325.918	0.016	905.916	0.0	0.0	22.9413	3.692	70.0	0.4	Certain	0.72	-0.87	2831.75	Yes		1.59353741496599				ISITrial	Mixed
48.0	2	332.483	0.017	912.481	0.0	0.0	22.9413	2.997	70.0	0.4	Certain	0.72	-0.87	2831.75	Yes	{-4}4{-4}4{-4}4{-4}4{-4}4{-4}4{-4}4{-4}4{-4}2{-2}	1.59353741496599	2.997	335.48	372.0	TrialHappiness	Mixed
48.0	2	336.498	4.015	916.496	0.0	0.0	22.9413	3.327	70.0	0.4	Certain	0.72	-0.87	2831.75	Yes		1.59353741496599				ISIRate	Mixed
49.0	2	339.847	0.022	919.845	0.0	0.0	22.9413	3.0	70.0	0.3	Certain	0.18	-1.65	0.0	No	4.0	1.8284202569916899	1.466	341.313		GetAnswer	Mixed
49.0	2	341.33	0.017	921.328	0.0	0.0	22.9413	4.0	70.0	0.3	Certain	0.18	-1.65	0.0	No		1.8284202569916899				ShowChoice	Mixed
49.0	2	345.345	0.015	925.343	0.0	0.0	22.9413	1.0	70.0	0.3	Certain	0.18	-1.65	0.0	No		1.8284202569916899				ShowResult	Mixed
49.0	2	346.361	0.016	926.359	0.0	0.0	22.9413	8.0	70.0	0.3	Certain	0.18	-1.65	0.0	No		1.8284202569916899				ISITrial	Mixed
50.0	2	354.392	0.031	934.39	-3.0	-3.0	22.5663	3.0	70.0	0.66	Certain	-9.4	3.3	3547.25	Yes	4.0	-12.6961451247166	2.576	356.968		GetAnswer	Mixed
50.0	2	356.991	0.023	936.989	-3.0	-3.0	22.5663	4.0	70.0	0.66	Certain	-9.4	3.3	3547.25	Yes		-12.6961451247166				ShowChoice	Mixed
50.0	2	361.006	0.015	941.004	-3.0	-3.0	22.5663	1.0	70.0	0.66	Certain	-9.4	3.3	3547.25	Yes		-12.6961451247166				ShowResult	Mixed
50.0	2	362.022	0.016	942.02	-3.0	-3.0	22.5663	7.537	70.0	0.66	Certain	-9.4	3.3	3547.25	Yes		-12.6961451247166				ISITrial	Mixed
50.0	2	373.135	0.018	953.133	-3.0	-3.0	22.5663	1.602	70.0	0.66	Certain	-9.4	3.3	3547.25	Yes		-12.6961451247166			352.0	TrialHappiness	Mixed
50.0	2	377.151	4.016	957.149	-3.0	-3.0	22.5663	6.189	70.0	0.66	Certain	-9.4	3.3	3547.25	Yes		-12.6961451247166				ISIRate	Mixed
51.0	2	383.365	0.025	963.363	-1.0	-1.0	22.4413	3.0	70.0	2.0	Certain	-1.72	0.08	0.0	No	4.0	1.8042328042328	1.587	384.952		GetAnswer	Mixed
51.0	2	384.964	0.012	964.962	-1.0	-1.0	22.4413	4.0	70.0	2.0	Certain	-1.72	0.08	0.0	No		1.8042328042328				ShowChoice	Mixed
51.0	2	388.98	0.016	968.978	-1.0	-1.0	22.4413	1.0	70.0	2.0	Certain	-1.72	0.08	0.0	No		1.8042328042328				ShowResult	Mixed
51.0	2	389.996	0.016	969.994	-1.0	-1.0	22.4413	5.508	70.0	2.0	Certain	-1.72	0.08	0.0	No		1.8042328042328				ISITrial	Mixed
52.0	2	395.527	0.023	975.525	-1.0	-1.0	22.3163	3.0	70.0	2.48	Certain	-7.72	5.3	0.0	No	4.0	-13.0181405895692	1.759	397.286		GetAnswer	Gain
52.0	2	397.31	0.024	977.308	-1.0	-1.0	22.3163	4.0	70.0	2.48	Certain	-7.72	5.3	0.0	No		-13.0181405895692				ShowChoice	Gain
52.0	2	401.325	0.015	981.323	-1.0	-1.0	22.3163	1.0	70.0	2.48	Certain	-7.72	5.3	0.0	No		-13.0181405895692				ShowResult	Gain
52.0	2	402.342	0.017	982.34	-1.0	-1.0	22.3163	5.913	70.0	2.48	Certain	-7.72	5.3	0.0	No		-13.0181405895692				ISITrial	Gain
53.0	2	408.273	0.018	988.271	-10.64	-4.0	20.9863	3.0	70.0	0.3	Outcome1	-10.64	2.7	2996.75	Yes	2.0	-13.3378684807256	2.788	411.061		GetAnswer	Mixed
53.0	2	411.089	0.028	991.087	-10.64	-4.0	20.9863	4.0	70.0	0.3	Outcome1	-10.64	2.7	2996.75	Yes		-13.3378684807256				ShowChoice	Mixed
53.0	2	415.104	0.015	995.102	-10.64	-4.0	20.9863	1.0	70.0	0.3	Outcome1	-10.64	2.7	2996.75	Yes		-13.3378684807256				ShowResult	Mixed
53.0	2	416.12	0.016	996.118	-10.64	-4.0	20.9863	3.66	70.0	0.3	Outcome1	-10.64	2.7	2996.75	Yes		-13.3378684807256				ISITrial	Mixed
53.0	2	422.818	0.019	1002.816	-10.64	-4.0	20.9863	2.487	70.0	0.3	Outcome1	-10.64	2.7	2996.75	Yes		-13.3378684807256			260.0	TrialHappiness	Mixed
53.0	2	426.833	4.015	1006.831	-10.64	-4.0	20.9863	3.987	70.0	0.3	Outcome1	-10.64	2.7	2996.75	Yes		-13.3378684807256				ISIRate	Mixed
54.0	2	430.848	0.028	1010.846	1.0	1.0	21.1113	3.0	70.0	2.48	Certain	7.3	-4.79	0.0	No	4.0	-12.092970521542	1.535	432.383		GetAnswer	Gain
54.0	2	432.398	0.015	1012.396	1.0	1.0	21.1113	4.0	70.0	2.48	Certain	7.3	-4.79	0.0	No		-12.092970521542				ShowChoice	Gain
54.0	2	436.413	0.015	1016.411	1.0	1.0	21.1113	1.0	70.0	2.48	Certain	7.3	-4.79	0.0	No		-12.092970521542				ShowResult	Gain
54.0	2	437.429	0.016	1017.427	1.0	1.0	21.1113	8.0	70.0	2.48	Certain	7.3	-4.79	0.0	No		-12.092970521542				ISITrial	Gain
	2	445.46	0.031	1025.458				-0.001								{SPACE}		58.671	504.131		Rest	
	2	504.156	0.025	1084.154				4.0													BlockHappyPreview	
	2	508.171	0.015	1088.169				0.406												392.0	BlockStartHappiness	
	2	514.952	0.021	1094.95				-0.001								5.0		3.779	518.731		ScanWait	
	3	0.02	0.02	1098.749				10.0													GetReady	
55.0	3	10.05	0.03	1108.779	2.02	1.01	21.3638	3.0	955.0	2.0	Outcome1	2.02	4.3	2533.25	Yes	2.0	-2.2847300868252205	1.212	11.262		GetAnswer	Mixed
55.0	3	11.283	0.021	1110.012	2.02	1.01	21.3638	4.0	955.0	2.0	Outcome1	2.02	4.3	2533.25	Yes		-2.2847300868252205				ShowChoice	Mixed
55.0	3	15.298	0.015	1114.027	2.02	1.01	21.3638	1.0	955.0	2.0	Outcome1	2.02	4.3	2533.25	Yes		-2.2847300868252205				ShowResult	Mixed
55.0	3	16.314	0.016	1115.043	2.02	1.01	21.3638	7.709	955.0	2.0	Outcome1	2.02	4.3	2533.25	Yes		-2.2847300868252205				ISITrial	Mixed
55.0	3	26.594	0.016	1125.323	2.02	1.01	21.3638	1.382	955.0	2.0	Outcome1	2.02	4.3	2533.25	Yes		-2.2847300868252205			580.0	TrialHappiness	Mixed
55.0	3	30.609	4.015	1129.338	2.02	1.01	21.3638	2.133	955.0	2.0	Outcome1	2.02	4.3	2533.25	Yes		-2.2847300868252205				ISIRate	Mixed
56.0	3	32.759	0.017	1131.488	6.33	3.16	22.155	3.0	955.0	3.6	Outcome1	6.33	7.9	0.0	No	2.0	-1.57493393733484	1.059	33.818		GetAnswer	Gain
56.0	3	33.842	0.024	1132.571	6.33	3.16	22.155	4.0	955.0	3.6	Outcome1	6.33	7.9	0.0	No		-1.57493393733484				ShowChoice	Gain
56.0	3	37.857	0.015	1136.586	6.33	3.16	22.155	1.0	955.0	3.6	Outcome1	6.33	7.9	0.0	No		-1.57493393733484				ShowResult	Gain
56.0	3	38.873	0.016	1137.602	6.33	3.16	22.155	4.697	955.0	3.6	Outcome1	6.33	7.9	0.0	No		-1.57493393733484				ISITrial	Gain
57.0	3	43.588	0.018	1142.317	1.0	1.0	22.28	3.0	955.0	1.68	Certain	-2.93	4.5	0.0	No	4.0	7.432616081540201	1.974	45.562		GetAnswer	Gain
57.0	3	45.588	0.026	1144.317	1.0	1.0	22.28	4.0	955.0	1.68	Certain	-2.93	4.5	0.0	No		7.432616081540201				ShowChoice	Gain
57.0	3	49.603	0.015	1148.332	1.0	1.0	22.28	1.0	955.0	1.68	Certain	-2.93	4.5	0.0	No		7.432616081540201				ShowResult	Gain
57.0	3	50.619	0.016	1149.348	1.0	1.0	22.28	4.291	955.0	1.68	Certain	-2.93	4.5	0.0	No		7.432616081540201				ISITrial	Gain
58.0	3	54.934	0.024	1153.663	0.0	0.0	22.28	3.0	955.0	0.2	Certain	-1.15	0.5	3045.75	Yes	4.0	-1.64571536428841	1.976	56.91		GetAnswer	Mixed
58.0	3	56.934	0.024	1155.663	0.0	0.0	22.28	4.0	955.0	0.2	Certain	-1.15	0.5	3045.75	Yes		-1.64571536428841				ShowChoice	Mixed
58.0	3	60.949	0.015	1159.678	0.0	0.0	22.28	1.0	955.0	0.2	Certain	-1.15	0.5	3045.75	Yes		-1.64571536428841				ShowResult	Mixed
58.0	3	61.965	0.016	1160.694	0.0	0.0	22.28	2.037	955.0	0.2	Certain	-1.15	0.5	3045.75	Yes		-1.64571536428841				ISITrial	Mixed
58.0	3	67.08	0.02	1165.809	0.0	0.0	22.28	2.334	955.0	0.2	Certain	-1.15	0.5	3045.75	Yes		-1.64571536428841			652.0	TrialHappiness	Mixed
58.0	3	71.095	4.015	1169.824	0.0	0.0	22.28	4.183	955.0	0.2	Certain	-1.15	0.5	3045.75	Yes		-1.64571536428841				ISIRate	Mixed
59.0	3	75.294	0.016	1174.023	-2.0	-2.0	22.03	3.0	955.0	0.4	Certain	-6.16	0.9	0.0	No	4.0	7.0588901472253704	2.303	77.597		GetAnswer	Mixed
59.0	3	77.61	0.013	1176.339	-2.0	-2.0	22.03	4.0	955.0	0.4	Certain	-6.16	0.9	0.0	No		7.0588901472253704				ShowChoice	Mixed
59.0	3	81.625	0.015	1180.354	-2.0	-2.0	22.03	1.0	955.0	0.4	Certain	-6.16	0.9	0.0	No		7.0588901472253704				ShowResult	Mixed
59.0	3	82.641	0.016	1181.37	-2.0	-2.0	22.03	5.064	955.0	0.4	Certain	-6.16	0.9	0.0	No		7.0588901472253704				ISITrial	Mixed
60.0	3	87.723	0.018	1186.452	11.3	1.95	23.4425	3.0	955.0	2.48	Outcome2	3.9	11.3	3562.5	Yes	2.0	7.40203850509626	0.988	88.711		GetAnswer	Loss
60.0	3	88.722	0.011	1187.451	11.3	1.95	23.4425	4.0	955.0	2.48	Outcome2	3.9	11.3	3562.5	Yes		7.40203850509626				ShowChoice	Loss
60.0	3	92.738	0.016	1191.467	11.3	1.95	23.4425	1.0	955.0	2.48	Outcome2	3.9	11.3	3562.5	Yes		7.40203850509626				ShowResult	Loss
60.0	3	93.754	0.016	1192.483	11.3	1.95	23.4425	8.0	955.0	2.48	Outcome2	3.9	11.3	3562.5	Yes		7.40203850509626				ISITrial	Loss
60.0	3	105.35	0.02	1204.079	11.3	1.95	23.4425	3.272	955.0	2.48	Outcome2	3.9	11.3	3562.5	Yes		7.40203850509626			772.0	TrialHappiness	Loss
60.0	3	109.365	4.015	1208.094	11.3	1.95	23.4425	6.25	955.0	2.48	Outcome2	3.9	11.3	3562.5	Yes		7.40203850509626				ISIRate	Loss
61.0	3	115.646	0.031	1214.375	-4.0	-4.0	22.9425	3.0	955.0	0.2	Certain	-7.21	-1.5	0.0	No	4.0	5.70668176670442	1.269	116.915		GetAnswer	Mixed
61.0	3	116.929	0.014	1215.658	-4.0	-4.0	22.9425	4.0	955.0	0.2	Certain	-7.21	-1.5	0.0	No		5.70668176670442				ShowChoice	Mixed
61.0	3	120.945	0.016	1219.674	-4.0	-4.0	22.9425	1.0	955.0	0.2	Certain	-7.21	-1.5	0.0	No		5.70668176670442				ShowResult	Mixed
61.0	3	121.961	0.016	1220.69	-4.0	-4.0	22.9425	4.586	955.0	0.2	Certain	-7.21	-1.5	0.0	No		5.70668176670442				ISITrial	Mixed
62.0	3	126.576	0.029	1225.305	1.0	1.0	23.0675	3.0	955.0	0.66	Certain	0.32	1.3	3748.75	Yes	4.0	-0.9764061910154781	1.608	128.184		GetAnswer	Mixed
62.0	3	128.209	0.025	1226.938	1.0	1.0	23.0675	4.0	955.0	0.66	Certain	0.32	1.3	3748.75	Yes		-0.9764061910154781				ShowChoice	Mixed
62.0	3	132.224	0.015	1230.953	1.0	1.0	23.0675	1.0	955.0	0.66	Certain	0.32	1.3	3748.75	Yes		-0.9764061910154781				ShowResult	Mixed
62.0	3	133.24	0.016	1231.969	1.0	1.0	23.0675	5.212	955.0	0.66	Certain	0.32	1.3	3748.75	Yes		-0.9764061910154781				ISITrial	Mixed
62.0	3	142.237	0.016	1240.966	1.0	1.0	23.0675	1.884	955.0	0.66	Certain	0.32	1.3	3748.75	Yes		-0.9764061910154781			620.0	TrialHappiness	Mixed
62.0	3	146.252	4.015	1244.981	1.0	1.0	23.0675	6.995	955.0	0.66	Certain	0.32	1.3	3748.75	Yes		-0.9764061910154781				ISIRate	Mixed
63.0	3	153.267	0.02	1251.996	10.5	0.9	24.38	3.0	955.0	1.68	Outcome1	10.5	1.8	0.0	No	2.0	8.703284258210651	1.094	154.361		GetAnswer	Loss
63.0	3	154.383	0.022	1253.112	10.5	0.9	24.38	4.0	955.0	1.68	Outcome1	10.5	1.8	0.0	No		8.703284258210651				ShowChoice	Loss
63.0	3	158.398	0.015	1257.127	10.5	0.9	24.38	1.0	955.0	1.68	Outcome1	10.5	1.8	0.0	No		8.703284258210651				ShowResult	Loss
63.0	3	159.415	0.017	1258.144	10.5	0.9	24.38	5.595	955.0	1.68	Outcome1	10.5	1.8	0.0	No		8.703284258210651				ISITrial	Loss
64.0	3	165.029	0.019	1263.758	11.1	1.01	25.7675	3.0	955.0	2.22	Outcome1	11.1	2.02	0.0	No	2.0	9.08267270668177	0.978	166.007		GetAnswer	Loss
64.0	3	166.029	0.022	1264.758	11.1	1.01	25.7675	4.0	955.0	2.22	Outcome1	11.1	2.02	0.0	No		9.08267270668177				ShowChoice	Loss
64.0	3	170.044	0.015	1268.773	11.1	1.01	25.7675	1.0	955.0	2.22	Outcome1	11.1	2.02	0.0	No		9.08267270668177				ShowResult	Loss
64.0	3	171.06	0.016	1269.789	11.1	1.01	25.7675	5.47	955.0	2.22	Outcome1	11.1	2.02	0.0	No		9.08267270668177				ISITrial	Loss
65.0	3	176.559	0.029	1275.288	13.5	2.02	27.455	3.0	955.0	2.8	Outcome1	13.5	4.04	2996.75	Yes	2.0	9.46206115515289	1.153	177.712		GetAnswer	Loss
65.0	3	177.725	0.013	1276.454	13.5	2.02	27.455	4.0	955.0	2.8	Outcome1	13.5	4.04	2996.75	Yes		9.46206115515289				ShowChoice	Loss
65.0	3	181.74	0.015	1280.469	13.5	2.02	27.455	1.0	955.0	2.8	Outcome1	13.5	4.04	2996.75	Yes		9.46206115515289				ShowResult	Loss
65.0	3	182.756	0.016	1281.485	13.5	2.02	27.455	3.344	955.0	2.8	Outcome1	13.5	4.04	2996.75	Yes		9.46206115515289				ISITrial	Loss
65.0	3	189.137	0.018	1287.866	13.5	2.02	27.455	2.6	955.0	2.8	Outcome1	13.5	4.04	2996.75	Yes		9.46206115515289			860.0	TrialHappiness	Loss
65.0	3	193.153	4.016	1291.882	13.5	2.02	27.455	3.987	955.0	2.8	Outcome1	13.5	4.04	2996.75	Yes		9.46206115515289				ISIRate	Loss
66.0	3	197.168	0.028	1295.897	9.1	1.67	28.5925	3.0	955.0	2.22	Outcome2	3.34	9.1	0.0	No	2.0	5.764439411098531	1.071	198.239		GetAnswer	Gain
66.0	3	198.268	0.029	1296.997	9.1	1.67	28.5925	4.0	955.0	2.22	Outcome2	3.34	9.1	0.0	No		5.764439411098531				ShowChoice	Gain
66.0	3	202.283	0.015	1301.012	9.1	1.67	28.5925	1.0	955.0	2.22	Outcome2	3.34	9.1	0.0	No		5.764439411098531				ShowResult	Gain
66.0	3	203.299	0.016	1302.028	9.1	1.67	28.5925	3.959	955.0	2.22	Outcome2	3.34	9.1	0.0	No		5.764439411098531				ISITrial	Gain
67.0	3	207.281	0.023	1306.01	-1.44	-1.0	28.4125	3.0	955.0	0.66	Outcome1	-1.44	-0.7	2918.5	Yes	2.0	-0.7403737259343148	2.523	209.804		GetAnswer	Mixed
67.0	3	209.83	0.026	1308.559	-1.44	-1.0	28.4125	4.0	955.0	0.66	Outcome1	-1.44	-0.7	2918.5	Yes		-0.7403737259343148				ShowChoice	Mixed
67.0	3	213.846	0.016	1312.575	-1.44	-1.0	28.4125	1.0	955.0	0.66	Outcome1	-1.44	-0.7	2918.5	Yes		-0.7403737259343148				ShowResult	Mixed
67.0	3	214.862	0.016	1313.591	-1.44	-1.0	28.4125	4.199	955.0	0.66	Outcome1	-1.44	-0.7	2918.5	Yes		-0.7403737259343148				ISITrial	Mixed
67.0	3	222.026	0.031	1320.755	-1.44	-1.0	28.4125	3.859	955.0	0.66	Outcome1	-1.44	-0.7	2918.5	Yes		-0.7403737259343148			732.0	TrialHappiness	Mixed
67.0	3	226.041	4.015	1324.77	-1.44	-1.0	28.4125	3.674	955.0	0.66	Outcome1	-1.44	-0.7	2918.5	Yes		-0.7403737259343148				ISIRate	Mixed
68.0	3	229.74	0.025	1328.469	-4.0	-4.0	27.9125	3.0	955.0	1.2	Certain	-8.25	-0.1	0.0	No	4.0	8.15402038505096	1.508	231.248		GetAnswer	Mixed
68.0	3	231.273	0.025	1330.002	-4.0	-4.0	27.9125	4.0	955.0	1.2	Certain	-8.25	-0.1	0.0	No		8.15402038505096				ShowChoice	Mixed
68.0	3	235.288	0.015	1334.017	-4.0	-4.0	27.9125	1.0	955.0	1.2	Certain	-8.25	-0.1	0.0	No		8.15402038505096				ShowResult	Mixed
68.0	3	236.304	0.016	1335.033	-4.0	-4.0	27.9125	2.185	955.0	1.2	Certain	-8.25	-0.1	0.0	No		8.15402038505096				ISITrial	Mixed
69.0	3	238.52	0.031	1337.249	10.41	5.2	29.2137	3.0	955.0	3.16	Outcome1	10.41	11.7	0.0	No	2.0	-1.2898263495658702	1.05	239.57		GetAnswer	Loss
69.0	3	239.587	0.017	1338.316	10.41	5.2	29.2137	4.0	955.0	3.16	Outcome1	10.41	11.7	0.0	No		-1.2898263495658702				ShowChoice	Loss
69.0	3	243.602	0.015	1342.331	10.41	5.2	29.2137	1.0	955.0	3.16	Outcome1	10.41	11.7	0.0	No		-1.2898263495658702				ShowResult	Loss
69.0	3	244.618	0.016	1343.347	10.41	5.2	29.2137	2.0	955.0	3.16	Outcome1	10.41	11.7	0.0	No		-1.2898263495658702				ISITrial	Loss
70.0	3	246.651	0.033	1345.38	0.0	0.0	29.2137	3.0	955.0	1.2	Certain	-4.76	3.9	3651.25	Yes	4.0	8.65911664779162	1.494	248.145		GetAnswer	Mixed
70.0	3	248.167	0.022	1346.896	0.0	0.0	29.2137	4.0	955.0	1.2	Certain	-4.76	3.9	3651.25	Yes		8.65911664779162				ShowChoice	Mixed
70.0	3	252.182	0.015	1350.911	0.0	0.0	29.2137	1.0	955.0	1.2	Certain	-4.76	3.9	3651.25	Yes		8.65911664779162				ShowResult	Mixed
70.0	3	253.198	0.016	1351.927	0.0	0.0	29.2137	2.623	955.0	1.2	Certain	-4.76	3.9	3651.25	Yes		8.65911664779162				ISITrial	Mixed
70.0	3	259.53	0.031	1358.259	0.0	0.0	29.2137	3.49	955.0	1.2	Certain	-4.76	3.9	3651.25	Yes	2{-2}2{-2}4{-4}2{-2}2{-2}2{-2}2{-2}2{-2}	8.65911664779162	3.49	263.02	660.0	TrialHappiness	Mixed
70.0	3	263.545	4.015	1362.274	0.0	0.0	29.2137	6.605	955.0	1.2	Certain	-4.76	3.9	3651.25	Yes		8.65911664779162				ISIRate	Mixed
71.0	3	270.176	0.026	1368.905	5.88	2.94	29.9487	3.0	955.0	2.8	Outcome1	5.88	7.5	0.0	No	2.0	-1.62410343525859	0.964	271.14		GetAnswer	Gain
71.0	3	271.159	0.019	1369.888	5.88	2.94	29.9487	4.0	955.0	2.8	Outcome1	5.88	7.5	0.0	No		-1.62410343525859				ShowChoice	Gain
71.0	3	275.174	0.015	1373.903	5.88	2.94	29.9487	1.0	955.0	2.8	Outcome1	5.88	7.5	0.0	No		-1.62410343525859				ShowResult	Gain
71.0	3	276.19	0.016	1374.919	5.88	2.94	29.9487	5.499	955.0	2.8	Outcome1	5.88	7.5	0.0	No		-1.62410343525859				ISITrial	Gain
72.0	3	281.722	0.033	1380.451	8.05	4.03	30.9549	3.0	955.0	3.16	Outcome2	9.7	8.05	3080.5	Yes	2.0	-1.6519441298603201	0.963	282.685		GetAnswer	Gain
72.0	3	282.705	0.02	1381.434	8.05	4.03	30.9549	4.0	955.0	3.16	Outcome2	9.7	8.05	3080.5	Yes		-1.6519441298603201				ShowChoice	Gain
72.0	3	286.72	0.015	1385.449	8.05	4.03	30.9549	1.0	955.0	3.16	Outcome2	9.7	8.05	3080.5	Yes		-1.6519441298603201				ShowResult	Gain
72.0	3	287.736	0.016	1386.465	8.05	4.03	30.9549	5.672	955.0	3.16	Outcome2	9.7	8.05	3080.5	Yes		-1.6519441298603201				ISITrial	Gain
72.0	3	296.533	0.019	1395.262	8.05	4.03	30.9549	3.209	955.0	3.16	Outcome2	9.7	8.05	3080.5	Yes		-1.6519441298603201			768.0	TrialHappiness	Gain
72.0	3	300.549	4.016	1399.278	8.05	4.03	30.9549	4.322	955.0	3.16	Outcome2	9.7	8.05	3080.5	Yes		-1.6519441298603201				ISIRate	Gain
73.0	3	304.897	0.026	1403.626	7.7	-0.64	31.9174	3.0	955.0	3.16	Outcome2	-1.27	7.7	0.0	No	2.0	8.968289920724802	1.472	306.369		GetAnswer	Gain
73.0	3	306.397	0.028	1405.126	7.7	-0.64	31.9174	4.0	955.0	3.16	Outcome2	-1.27	7.7	0.0	No		8.968289920724802				ShowChoice	Gain
73.0	3	310.412	0.015	1409.141	7.7	-0.64	31.9174	1.0	955.0	3.16	Outcome2	-1.27	7.7	0.0	No		8.968289920724802				ShowResult	Gain
73.0	3	311.428	0.016	1410.157	7.7	-0.64	31.9174	4.616	955.0	3.16	Outcome2	-1.27	7.7	0.0	No		8.968289920724802				ISITrial	Gain
74.0	3	316.06	0.016	1414.789	-5.0	-5.0	31.2924	3.0	955.0	0.52	Certain	-10.08	-0.9	3056.25	Yes	4.0	9.18006795016988	1.512	317.572		GetAnswer	Mixed
74.0	3	317.593	0.021	1416.322	-5.0	-5.0	31.2924	4.0	955.0	0.52	Certain	-10.08	-0.9	3056.25	Yes		9.18006795016988				ShowChoice	Mixed
74.0	3	321.608	0.015	1420.337	-5.0	-5.0	31.2924	1.0	955.0	0.52	Certain	-10.08	-0.9	3056.25	Yes		9.18006795016988				ShowResult	Mixed
74.0	3	322.624	0.016	1421.353	-5.0	-5.0	31.2924	3.909	955.0	0.52	Certain	-10.08	-0.9	3056.25	Yes		9.18006795016988				ISITrial	Mixed
74.0	3	329.638	0.026	1428.367	-5.0	-5.0	31.2924	1.245	955.0	0.52	Certain	-10.08	-0.9	3056.25	Yes		9.18006795016988			652.0	TrialHappiness	Mixed
74.0	3	333.654	4.016	1432.383	-5.0	-5.0	31.2924	4.225	955.0	0.52	Certain	-10.08	-0.9	3056.25	Yes		9.18006795016988				ISIRate	Mixed
75.0	3	337.902	0.023	1436.631	0.0	0.0	31.2924	3.0	955.0	2.22	Certain	5.1	-6.26	0.0	No	4.0	11.3624009060023	1.339	339.241		GetAnswer	Gain
75.0	3	339.252	0.011	1437.981	0.0	0.0	31.2924	4.0	955.0	2.22	Certain	5.1	-6.26	0.0	No		11.3624009060023				ShowChoice	Gain
75.0	3	343.267	0.015	1441.996	0.0	0.0	31.2924	1.0	955.0	2.22	Certain	5.1	-6.26	0.0	No		11.3624009060023				ShowResult	Gain
75.0	3	344.283	0.016	1443.012	0.0	0.0	31.2924	4.979	955.0	2.22	Certain	5.1	-6.26	0.0	No		11.3624009060023				ISITrial	Gain
76.0	3	349.282	0.02	1448.011	0.0	0.0	31.2924	3.0	955.0	3.6	Certain	5.9	-5.81	0.0	No	4.0	11.705549263873198	1.377	350.659		GetAnswer	Gain
76.0	3	350.681	0.022	1449.41	0.0	0.0	31.2924	4.0	955.0	3.6	Certain	5.9	-5.81	0.0	No		11.705549263873198				ShowChoice	Gain
76.0	3	354.696	0.015	1453.425	0.0	0.0	31.2924	1.0	955.0	3.6	Certain	5.9	-5.81	0.0	No		11.705549263873198				ShowResult	Gain
76.0	3	355.713	0.017	1454.442	0.0	0.0	31.2924	3.931	955.0	3.6	Certain	5.9	-5.81	0.0	No		11.705549263873198				ISITrial	Gain
77.0	3	359.661	0.017	1458.39	11.5	5.75	32.7299	3.0	955.0	2.48	Outcome2	13.3	11.5	4000.0	Yes	2.0	-1.8047376368440902	1.037	360.698		GetAnswer	Loss
77.0	3	360.711	0.013	1459.44	11.5	5.75	32.7299	4.0	955.0	2.48	Outcome2	13.3	11.5	4000.0	Yes		-1.8047376368440902				ShowChoice	Loss
77.0	3	364.726	0.015	1463.455	11.5	5.75	32.7299	1.0	955.0	2.48	Outcome2	13.3	11.5	4000.0	Yes		-1.8047376368440902				ShowResult	Loss
77.0	3	365.743	0.017	1464.472	11.5	5.75	32.7299	7.022	955.0	2.48	Outcome2	13.3	11.5	4000.0	Yes		-1.8047376368440902				ISITrial	Loss
77.0	3	376.805	0.015	1475.534	11.5	5.75	32.7299	2.14	955.0	2.48	Outcome2	13.3	11.5	4000.0	Yes		-1.8047376368440902			620.0	TrialHappiness	Loss
77.0	3	380.821	4.016	1479.55	11.5	5.75	32.7299	8.0	955.0	2.48	Outcome2	13.3	11.5	4000.0	Yes		-1.8047376368440902				ISIRate	Loss
78.0	3	388.851	0.03	1487.58	-5.0	-5.0	32.1049	3.0	955.0	1.0	Certain	-11.24	1.7	0.0	No	4.0	12.9354473386183	1.172	390.023		GetAnswer	Mixed
78.0	3	390.034	0.011	1488.763	-5.0	-5.0	32.1049	4.0	955.0	1.0	Certain	-11.24	1.7	0.0	No		12.9354473386183				ShowChoice	Mixed
78.0	3	394.049	0.015	1492.778	-5.0	-5.0	32.1049	1.0	955.0	1.0	Certain	-11.24	1.7	0.0	No		12.9354473386183				ShowResult	Mixed
78.0	3	395.066	0.017	1493.795	-5.0	-5.0	32.1049	2.078	955.0	1.0	Certain	-11.24	1.7	0.0	No		12.9354473386183				ISITrial	Mixed
79.0	3	397.165	0.021	1495.894	1.0	1.0	32.2299	3.0	955.0	3.6	Certain	7.9	-5.41	2729.5	Yes	4.0	13.3148357870895	1.299	398.464		GetAnswer	Gain
79.0	3	398.481	0.017	1497.21	1.0	1.0	32.2299	4.0	955.0	3.6	Certain	7.9	-5.41	2729.5	Yes		13.3148357870895				ShowChoice	Gain
79.0	3	402.496	0.015	1501.225	1.0	1.0	32.2299	1.0	955.0	3.6	Certain	7.9	-5.41	2729.5	Yes		13.3148357870895				ShowResult	Gain
79.0	3	403.513	0.017	1502.242	1.0	1.0	32.2299	3.829	955.0	3.6	Certain	7.9	-5.41	2729.5	Yes		13.3148357870895				ISITrial	Gain
79.0	3	410.11	0.019	1508.839	1.0	1.0	32.2299	0.975	955.0	3.6	Certain	7.9	-5.41	2729.5	Yes		13.3148357870895			572.0	TrialHappiness	Gain
79.0	3	414.126	4.016	1512.855	1.0	1.0	32.2299	2.918	955.0	3.6	Certain	7.9	-5.41	2729.5	Yes		13.3148357870895				ISIRate	Gain
80.0	3	417.075	0.031	1515.804	-1.1	-8.0	32.0924	3.0	955.0	0.4	Outcome2	-15.61	-1.1	0.0	No	2.0	14.509626274065699	2.45	419.525		GetAnswer	Mixed
80.0	3	419.54	0.015	1518.269	-1.1	-8.0	32.0924	4.0	955.0	0.4	Outcome2	-15.61	-1.1	0.0	No		14.509626274065699				ShowChoice	Mixed
80.0	3	423.556	0.016	1522.285	-1.1	-8.0	32.0924	1.0	955.0	0.4	Outcome2	-15.61	-1.1	0.0	No		14.509626274065699				ShowResult	Mixed
80.0	3	424.572	0.016	1523.301	-1.1	-8.0	32.0924	3.336	955.0	0.4	Outcome2	-15.61	-1.1	0.0	No		14.509626274065699				ISITrial	Mixed
81.0	3	427.937	0.029	1526.666	10.24	5.12	33.3724	3.0	955.0	1.68	Outcome2	12.5	10.24	3923.75	Yes	2.0	-2.25736126840317	1.076	429.013		GetAnswer	Loss
81.0	3	429.037	0.024	1527.766	10.24	5.12	33.3724	4.0	955.0	1.68	Outcome2	12.5	10.24	3923.75	Yes		-2.25736126840317				ShowChoice	Loss
81.0	3	433.052	0.015	1531.781	10.24	5.12	33.3724	1.0	955.0	1.68	Outcome2	12.5	10.24	3923.75	Yes		-2.25736126840317				ShowResult	Loss
81.0	3	434.069	0.017	1532.798	10.24	5.12	33.3724	3.919	955.0	1.68	Outcome2	12.5	10.24	3923.75	Yes		-2.25736126840317				ISITrial	Loss
81.0	3	441.949	0.024	1540.678	10.24	5.12	33.3724	3.509	955.0	1.68	Outcome2	12.5	10.24	3923.75	Yes	2{-2}2{-2}2{-2}2{-2}2{-2}2{-2}2{-2}2{-2}4{-4}2{-2}2{-2}2{-2}2{-2}	-2.25736126840317	3.509	445.458	644.0	TrialHappiness	Loss
81.0	3	445.965	4.016	1544.694	10.24	5.12	33.3724	7.695	955.0	1.68	Outcome2	12.5	10.24	3923.75	Yes		-2.25736126840317				ISIRate	Loss
	3	453.679	0.019	1552.408				3.0													CurrentEarnings	
	3	456.694	0.015	1555.423				-0.001								{SPACE}		12.825	469.519		Goodbye	
