trial_number	block	onset	onset_delay	onset_unadjusted	amount_change	certain_amount	current_amount	duration	mood_target	multiplier	outcome	outcome1_amount	outcome2_amount	question_duration	rating	response	rpe	rt	rt_time	slider_response	trial_phase	trial_type
	0	-41.424	0.013	29.237				-0.001								{SPACE}		3.257	-38.167		Welcome	
	0	-38.139	0.028	32.522				5.0													LifeHappyPreview	
	0	-33.108	0.031	37.553				1.564												624.0	LifeHappiness	
	0	-14.636	0.012	56.025				4.0													BlockHappyPreview	
	0	-10.624	0.012	60.037				2.314												576.0	BlockStartHappiness	
	0	-1.965	0.027	68.696				-0.001								5.0					ScanWait	
	1	0.025	0.025	70.686				10.0													GetReady	
1.0	1	10.038	0.013	80.699	0.0	0.0	10.0	3.0	955.0	0.66	Certain	-3.14	3.3	0.0	No	4.0	6.43827859569649	1.708	11.746		GetAnswer	Mixed
1.0	1	11.76	0.013	82.421	0.0	0.0	10.0	4.0	955.0	0.66	Certain	-3.14	3.3	0.0	No		6.43827859569649				ShowChoice	Mixed
1.0	1	15.772	0.012	86.433	0.0	0.0	10.0	1.0	955.0	0.66	Certain	-3.14	3.3	0.0	No		6.43827859569649				ShowResult	Mixed
1.0	1	16.792	0.02	87.453	0.0	0.0	10.0	2.431	955.0	0.66	Certain	-3.14	3.3	0.0	No		6.43827859569649				ISITrial	Mixed
2.0	1	19.249	0.026	89.91	-0.27	0.0	9.9662	3.0	955.0	0.66	Outcome1	-0.27	1.3	0.0	No	2.0	-1.5738014345035902	1.102	20.351		GetAnswer	Mixed
2.0	1	20.369	0.018	91.03	-0.27	0.0	9.9662	4.0	955.0	0.66	Outcome1	-0.27	1.3	0.0	No		-1.5738014345035902				ShowChoice	Mixed
2.0	1	24.381	0.012	95.042	-0.27	0.0	9.9662	1.0	955.0	0.66	Outcome1	-0.27	1.3	0.0	No		-1.5738014345035902				ShowResult	Mixed
2.0	1	25.401	0.02	96.062	-0.27	0.0	9.9662	4.568	955.0	0.66	Outcome1	-0.27	1.3	0.0	No		-1.5738014345035902				ISITrial	Mixed
3.0	1	29.998	0.029	100.659	0.9	-3.0	10.0787	3.0	955.0	0.4	Outcome1	0.9	-6.4	2868.0	Yes	2.0	7.296715741789349	1.783	31.781		GetAnswer	Mixed
3.0	1	31.803	0.022	102.464	0.9	-3.0	10.0787	4.0	955.0	0.4	Outcome1	0.9	-6.4	2868.0	Yes		7.296715741789349				ShowChoice	Mixed
3.0	1	35.815	0.012	106.476	0.9	-3.0	10.0787	1.0	955.0	0.4	Outcome1	0.9	-6.4	2868.0	Yes		7.296715741789349				ShowResult	Mixed
3.0	1	36.835	0.02	107.496	0.9	-3.0	10.0787	3.243	955.0	0.4	Outcome1	0.9	-6.4	2868.0	Yes		7.296715741789349				ISITrial	Mixed
3.0	1	42.987	0.024	113.648	0.9	-3.0	10.0787	0.225	955.0	0.4	Outcome1	0.9	-6.4	2868.0	Yes		7.296715741789349			520.0	TrialHappiness	Mixed
3.0	1	46.999	4.012	117.66	0.9	-3.0	10.0787	3.472	955.0	0.4	Outcome1	0.9	-6.4	2868.0	Yes		7.296715741789349				ISIRate	Mixed
4.0	1	50.492	0.021	121.153	6.7	2.0	10.9162	3.0	955.0	1.82	Outcome2	-1.98	6.7	0.0	No	2.0	8.67723669309173	1.666	52.158		GetAnswer	Gain
4.0	1	52.181	0.023	122.842	6.7	2.0	10.9162	4.0	955.0	1.82	Outcome2	-1.98	6.7	0.0	No		8.67723669309173				ShowChoice	Gain
4.0	1	56.193	0.012	126.854	6.7	2.0	10.9162	1.0	955.0	1.82	Outcome2	-1.98	6.7	0.0	No		8.67723669309173				ShowResult	Gain
4.0	1	57.212	0.019	127.873	6.7	2.0	10.9162	2.011	955.0	1.82	Outcome2	-1.98	6.7	0.0	No		8.67723669309173				ISITrial	Gain
5.0	1	59.252	0.029	129.913	5.1	0.0	11.5537	3.0	955.0	2.22	Outcome1	5.1	-4.07	2582.5	Yes	2.0	9.169875424688561	2.099	61.351		GetAnswer	Gain
5.0	1	61.375	0.024	132.036	5.1	0.0	11.5537	4.0	955.0	2.22	Outcome1	5.1	-4.07	2582.5	Yes		9.169875424688561				ShowChoice	Gain
5.0	1	65.387	0.012	136.048	5.1	0.0	11.5537	1.0	955.0	2.22	Outcome1	5.1	-4.07	2582.5	Yes		9.169875424688561				ShowResult	Gain
5.0	1	66.407	0.02	137.068	5.1	0.0	11.5537	5.129	955.0	2.22	Outcome1	5.1	-4.07	2582.5	Yes		9.169875424688561				ISITrial	Gain
5.0	1	74.163	0.026	144.824	5.1	0.0	11.5537	2.437	955.0	2.22	Outcome1	5.1	-4.07	2582.5	Yes		9.169875424688561			584.0	TrialHappiness	Gain
5.0	1	78.175	4.012	148.836	5.1	0.0	11.5537	2.33	955.0	2.22	Outcome1	5.1	-4.07	2582.5	Yes		9.169875424688561				ISIRate	Gain
6.0	1	80.532	0.027	151.193	-1.0	-1.0	11.4287	3.0	955.0	0.3	Certain	2.7	-5.88	0.0	No	4.0	8.5753114382786	2.379	82.911		GetAnswer	Mixed
6.0	1	82.923	0.012	153.584	-1.0	-1.0	11.4287	4.0	955.0	0.3	Certain	2.7	-5.88	0.0	No		8.5753114382786				ShowChoice	Mixed
6.0	1	86.935	0.012	157.596	-1.0	-1.0	11.4287	1.0	955.0	0.3	Certain	2.7	-5.88	0.0	No		8.5753114382786				ShowResult	Mixed
6.0	1	87.954	0.019	158.615	-1.0	-1.0	11.4287	6.232	955.0	0.3	Certain	2.7	-5.88	0.0	No		8.5753114382786				ISITrial	Mixed
7.0	1	94.206	0.02	164.867	5.9	1.0	12.1662	3.0	955.0	3.6	Outcome1	5.9	-3.1	0.0	No	2.0	8.995469988674971	1.465	95.671		GetAnswer	Gain
7.0	1	95.694	0.023	166.355	5.9	1.0	12.1662	4.0	955.0	3.6	Outcome1	5.9	-3.1	0.0	No		8.995469988674971				ShowChoice	Gain
7.0	1	99.706	0.012	170.367	5.9	1.0	12.1662	1.0	955.0	3.6	Outcome1	5.9	-3.1	0.0	No		8.995469988674971				ShowResult	Gain
7.0	1	100.726	0.02	171.387	5.9	1.0	12.1662	2.305	955.0	3.6	Outcome1	5.9	-3.1	0.0	No		8.995469988674971				ISITrial	Gain
8.0	1	103.049	0.018	173.71	-5.0	-5.0	11.5412	3.0	955.0	1.2	Certain	-9.52	-0.1	3112.5	Yes	4.0	9.41562853907135	2.132	105.181		GetAnswer	Mixed
8.0	1	105.206	0.025	175.867	-5.0	-5.0	11.5412	4.0	955.0	1.2	Certain	-9.52	-0.1	3112.5	Yes		9.41562853907135				ShowChoice	Mixed
8.0	1	109.218	0.012	179.879	-5.0	-5.0	11.5412	1.0	955.0	1.2	Certain	-9.52	-0.1	3112.5	Yes		9.41562853907135				ShowResult	Mixed
8.0	1	110.238	0.02	180.899	-5.0	-5.0	11.5412	3.506	955.0	1.2	Certain	-9.52	-0.1	3112.5	Yes		9.41562853907135				ISITrial	Mixed
8.0	1	116.891	0.014	187.552	-5.0	-5.0	11.5412	1.06	955.0	1.2	Certain	-9.52	-0.1	3112.5	Yes		9.41562853907135			568.0	TrialHappiness	Mixed
8.0	1	120.903	4.012	191.564	-5.0	-5.0	11.5412	4.45	955.0	1.2	Certain	-9.52	-0.1	3112.5	Yes		9.41562853907135				ISIRate	Mixed
9.0	1	125.383	0.03	196.044	9.9	-0.1	12.7787	3.0	955.0	3.6	Outcome2	-0.21	9.9	0.0	No	2.0	10.1075877689694	1.357	126.74		GetAnswer	Gain
9.0	1	126.754	0.014	197.415	9.9	-0.1	12.7787	4.0	955.0	3.6	Outcome2	-0.21	9.9	0.0	No		10.1075877689694				ShowChoice	Gain
9.0	1	130.766	0.012	201.427	9.9	-0.1	12.7787	1.0	955.0	3.6	Outcome2	-0.21	9.9	0.0	No		10.1075877689694				ShowResult	Gain
9.0	1	131.785	0.019	202.446	9.9	-0.1	12.7787	2.0	955.0	3.6	Outcome2	-0.21	9.9	0.0	No		10.1075877689694				ISITrial	Gain
10.0	1	133.808	0.023	204.469	11.5	0.48	14.2162	3.0	955.0	2.8	Outcome1	11.5	0.95	4000.0	Yes	2.0	10.545866364665901	1.092	134.9		GetAnswer	Loss
10.0	1	134.911	0.011	205.572	11.5	0.48	14.2162	4.0	955.0	2.8	Outcome1	11.5	0.95	4000.0	Yes		10.545866364665901				ShowChoice	Loss
10.0	1	138.923	0.012	209.584	11.5	0.48	14.2162	1.0	955.0	2.8	Outcome1	11.5	0.95	4000.0	Yes		10.545866364665901				ShowResult	Loss
10.0	1	139.943	0.02	210.604	11.5	0.48	14.2162	2.0	955.0	2.8	Outcome1	11.5	0.95	4000.0	Yes		10.545866364665901				ISITrial	Loss
10.0	1	145.994	0.028	216.655	11.5	0.48	14.2162	2.773	955.0	2.8	Outcome1	11.5	0.95	4000.0	Yes		10.545866364665901			680.0	TrialHappiness	Loss
10.0	1	150.006	4.012	220.667	11.5	0.48	14.2162	8.0	955.0	2.8	Outcome1	11.5	0.95	4000.0	Yes		10.545866364665901				ISIRate	Loss
11.0	1	158.03	0.024	228.691	-0.49	-0.49	14.1549	3.0	955.0	4.2	Certain	-0.98	8.1	0.0	No	4.0	9.08154020385051	1.654	159.684		GetAnswer	Gain
11.0	1	159.702	0.018	230.363	-0.49	-0.49	14.1549	4.0	955.0	4.2	Certain	-0.98	8.1	0.0	No		9.08154020385051				ShowChoice	Gain
11.0	1	163.714	0.012	234.375	-0.49	-0.49	14.1549	1.0	955.0	4.2	Certain	-0.98	8.1	0.0	No		9.08154020385051				ShowResult	Gain
11.0	1	164.734	0.02	235.395	-0.49	-0.49	14.1549	3.324	955.0	4.2	Certain	-0.98	8.1	0.0	No		9.08154020385051				ISITrial	Gain
12.0	1	168.077	0.019	238.738	-5.0	-5.0	13.5299	3.0	955.0	0.66	Certain	-0.7	-10.09	2618.75	Yes	4.0	9.39297848244621	2.146	170.223		GetAnswer	Mixed
12.0	1	170.234	0.011	240.895	-5.0	-5.0	13.5299	4.0	955.0	0.66	Certain	-0.7	-10.09	2618.75	Yes		9.39297848244621				ShowChoice	Mixed
12.0	1	174.246	0.012	244.907	-5.0	-5.0	13.5299	1.0	955.0	0.66	Certain	-0.7	-10.09	2618.75	Yes		9.39297848244621				ShowResult	Mixed
12.0	1	175.265	0.019	245.926	-5.0	-5.0	13.5299	6.642	955.0	0.66	Certain	-0.7	-10.09	2618.75	Yes		9.39297848244621				ISITrial	Mixed
12.0	1	184.56	0.022	255.221	-5.0	-5.0	13.5299	1.574	955.0	0.66	Certain	-0.7	-10.09	2618.75	Yes		9.39297848244621			596.0	TrialHappiness	Mixed
12.0	1	188.572	4.012	259.233	-5.0	-5.0	13.5299	2.475	955.0	0.66	Certain	-0.7	-10.09	2618.75	Yes		9.39297848244621				ISIRate	Mixed
13.0	1	191.063	0.016	261.724	-1.1	-6.0	13.3924	3.0	955.0	0.4	Outcome1	-1.1	-12.23	0.0	No	2.0	11.1313703284258	1.786	192.849		GetAnswer	Mixed
13.0	1	192.868	0.019	263.529	-1.1	-6.0	13.3924	4.0	955.0	0.4	Outcome1	-1.1	-12.23	0.0	No		11.1313703284258				ShowChoice	Mixed
13.0	1	196.88	0.012	267.541	-1.1	-6.0	13.3924	1.0	955.0	0.4	Outcome1	-1.1	-12.23	0.0	No		11.1313703284258				ShowResult	Mixed
13.0	1	197.9	0.02	268.561	-1.1	-6.0	13.3924	3.48	955.0	0.4	Outcome1	-1.1	-12.23	0.0	No		11.1313703284258				ISITrial	Mixed
14.0	1	201.41	0.03	272.071	-3.0	-3.0	13.0174	3.0	955.0	0.2	Certain	-9.04	2.5	0.0	No	4.0	11.5379388448471	1.931	203.341		GetAnswer	Mixed
14.0	1	203.366	0.025	274.027	-3.0	-3.0	13.0174	4.0	955.0	0.2	Certain	-9.04	2.5	0.0	No		11.5379388448471				ShowChoice	Mixed
14.0	1	207.378	0.012	278.039	-3.0	-3.0	13.0174	1.0	955.0	0.2	Certain	-9.04	2.5	0.0	No		11.5379388448471				ShowResult	Mixed
14.0	1	208.398	0.02	279.059	-3.0	-3.0	13.0174	5.019	955.0	0.2	Certain	-9.04	2.5	0.0	No		11.5379388448471				ISITrial	Mixed
15.0	1	213.446	0.029	284.107	-0.5	-6.0	12.9549	3.0	955.0	0.82	Outcome2	-12.44	-0.5	3348.5	Yes	2.0	11.944507361268402	1.913	215.359		GetAnswer	Mixed
15.0	1	215.385	0.026	286.046	-0.5	-6.0	12.9549	4.0	955.0	0.82	Outcome2	-12.44	-0.5	3348.5	Yes		11.944507361268402				ShowChoice	Mixed
15.0	1	219.397	0.012	290.058	-0.5	-6.0	12.9549	1.0	955.0	0.82	Outcome2	-12.44	-0.5	3348.5	Yes		11.944507361268402				ShowResult	Mixed
15.0	1	220.417	0.02	291.078	-0.5	-6.0	12.9549	7.614	955.0	0.82	Outcome2	-12.44	-0.5	3348.5	Yes		11.944507361268402				ISITrial	Mixed
15.0	1	231.433	0.028	302.094	-0.5	-6.0	12.9549	2.052	955.0	0.82	Outcome2	-12.44	-0.5	3348.5	Yes		11.944507361268402			624.0	TrialHappiness	Mixed
15.0	1	235.445	4.012	306.106	-0.5	-6.0	12.9549	5.394	955.0	0.82	Outcome2	-12.44	-0.5	3348.5	Yes		11.944507361268402				ISIRate	Mixed
16.0	1	240.861	0.022	311.522	10.7	-0.59	14.2924	3.0	955.0	1.82	Outcome2	-1.18	10.7	0.0	No	2.0	11.875424688561699	1.477	242.338		GetAnswer	Loss
16.0	1	242.366	0.028	313.027	10.7	-0.59	14.2924	4.0	955.0	1.82	Outcome2	-1.18	10.7	0.0	No		11.875424688561699				ShowChoice	Loss
16.0	1	246.378	0.012	317.039	10.7	-0.59	14.2924	1.0	955.0	1.82	Outcome2	-1.18	10.7	0.0	No		11.875424688561699				ShowResult	Loss
16.0	1	247.398	0.02	318.059	10.7	-0.59	14.2924	3.008	955.0	1.82	Outcome2	-1.18	10.7	0.0	No		11.875424688561699				ISITrial	Loss
17.0	1	250.423	0.017	321.084	4.6	2.3	14.8674	3.0	955.0	1.68	Outcome1	4.6	6.5	3041.5	Yes	2.0	-1.89552661381653	0.975	251.398		GetAnswer	Gain
17.0	1	251.41	0.012	322.071	4.6	2.3	14.8674	4.0	955.0	1.68	Outcome1	4.6	6.5	3041.5	Yes		-1.89552661381653				ShowChoice	Gain
17.0	1	255.422	0.012	326.083	4.6	2.3	14.8674	1.0	955.0	1.68	Outcome1	4.6	6.5	3041.5	Yes		-1.89552661381653				ShowResult	Gain
17.0	1	256.441	0.019	327.102	4.6	2.3	14.8674	3.566	955.0	1.68	Outcome1	4.6	6.5	3041.5	Yes		-1.89552661381653				ISITrial	Gain
17.0	1	263.078	0.017	333.739	4.6	2.3	14.8674	2.882	955.0	1.68	Outcome1	4.6	6.5	3041.5	Yes		-1.89552661381653			680.0	TrialHappiness	Gain
17.0	1	267.09	4.012	337.751	4.6	2.3	14.8674	4.166	955.0	1.68	Outcome1	4.6	6.5	3041.5	Yes		-1.89552661381653				ISIRate	Gain
18.0	1	271.286	0.03	341.947	-0.3	-6.0	14.8299	3.0	955.0	1.0	Outcome2	-11.97	-0.3	0.0	No	2.0	11.673839184598	1.656	272.942		GetAnswer	Mixed
18.0	1	272.957	0.014	343.618	-0.3	-6.0	14.8299	4.0	955.0	1.0	Outcome2	-11.97	-0.3	0.0	No		11.673839184598				ShowChoice	Mixed
18.0	1	276.969	0.012	347.63	-0.3	-6.0	14.8299	1.0	955.0	1.0	Outcome2	-11.97	-0.3	0.0	No		11.673839184598				ShowResult	Mixed
18.0	1	277.989	0.02	348.65	-0.3	-6.0	14.8299	6.787	955.0	1.0	Outcome2	-11.97	-0.3	0.0	No		11.673839184598				ISITrial	Mixed
19.0	1	284.793	0.017	355.454	10.37	5.18	16.1262	3.0	955.0	4.2	Outcome1	10.37	12.1	0.0	No	2.0	-1.7254624386561	0.829	285.622		GetAnswer	Loss
19.0	1	285.645	0.023	356.306	10.37	5.18	16.1262	4.0	955.0	4.2	Outcome1	10.37	12.1	0.0	No		-1.7254624386561				ShowChoice	Loss
19.0	1	289.657	0.012	360.318	10.37	5.18	16.1262	1.0	955.0	4.2	Outcome1	10.37	12.1	0.0	No		-1.7254624386561				ShowResult	Loss
19.0	1	290.677	0.02	361.338	10.37	5.18	16.1262	2.0	955.0	4.2	Outcome1	10.37	12.1	0.0	No		-1.7254624386561				ISITrial	Loss
20.0	1	292.7	0.023	363.361	8.3	2.0	17.1637	3.0	955.0	5.0	Outcome2	-4.0	8.3	2921.25	Yes	2.0	12.2967157417894	1.169	293.869		GetAnswer	Gain
20.0	1	293.887	0.018	364.548	8.3	2.0	17.1637	4.0	955.0	5.0	Outcome2	-4.0	8.3	2921.25	Yes		12.2967157417894				ShowChoice	Gain
20.0	1	297.899	0.012	368.56	8.3	2.0	17.1637	1.0	955.0	5.0	Outcome2	-4.0	8.3	2921.25	Yes		12.2967157417894				ShowResult	Gain
20.0	1	298.918	0.019	369.579	8.3	2.0	17.1637	8.0	955.0	5.0	Outcome2	-4.0	8.3	2921.25	Yes		12.2967157417894				ISITrial	Gain
20.0	1	309.885	0.022	380.546	8.3	2.0	17.1637	2.073	955.0	5.0	Outcome2	-4.0	8.3	2921.25	Yes		12.2967157417894			680.0	TrialHappiness	Gain
20.0	1	313.897	4.012	384.558	8.3	2.0	17.1637	3.685	955.0	5.0	Outcome2	-4.0	8.3	2921.25	Yes		12.2967157417894				ISIRate	Gain
21.0	1	317.608	0.026	388.269	-1.0	-1.0	17.0387	3.0	955.0	2.8	Certain	-7.11	5.5	0.0	No	4.0	12.608154020385099	1.702	319.31		GetAnswer	Gain
21.0	1	319.329	0.019	389.99	-1.0	-1.0	17.0387	4.0	955.0	2.8	Certain	-7.11	5.5	0.0	No		12.608154020385099				ShowChoice	Gain
21.0	1	323.341	0.012	394.002	-1.0	-1.0	17.0387	1.0	955.0	2.8	Certain	-7.11	5.5	0.0	No		12.608154020385099				ShowResult	Gain
21.0	1	324.361	0.02	395.022	-1.0	-1.0	17.0387	3.555	955.0	2.8	Certain	-7.11	5.5	0.0	No		12.608154020385099				ISITrial	Gain
22.0	1	327.938	0.022	398.599	-0.1	1.0	17.0262	3.0	955.0	1.0	Outcome2	1.7	-0.1	3219.5	Yes	2.0	-1.80332200830502	1.154	329.092		GetAnswer	Mixed
22.0	1	329.109	0.017	399.77	-0.1	1.0	17.0262	4.0	955.0	1.0	Outcome2	1.7	-0.1	3219.5	Yes		-1.80332200830502				ShowChoice	Mixed
22.0	1	333.121	0.012	403.782	-0.1	1.0	17.0262	1.0	955.0	1.0	Outcome2	1.7	-0.1	3219.5	Yes		-1.80332200830502				ShowResult	Mixed
22.0	1	334.14	0.019	404.801	-0.1	1.0	17.0262	6.793	955.0	1.0	Outcome2	1.7	-0.1	3219.5	Yes		-1.80332200830502				ISITrial	Mixed
22.0	1	344.187	0.023	414.848	-0.1	1.0	17.0262	1.307	955.0	1.0	Outcome2	1.7	-0.1	3219.5	Yes		-1.80332200830502			596.0	TrialHappiness	Mixed
22.0	1	348.199	4.012	418.86	-0.1	1.0	17.0262	4.878	955.0	1.0	Outcome2	1.7	-0.1	3219.5	Yes		-1.80332200830502				ISIRate	Mixed
23.0	1	353.097	0.02	423.758	-3.0	-3.0	16.6512	3.0	955.0	2.0	Certain	4.3	-10.36	0.0	No	4.0	14.657984144960402	1.351	354.448		GetAnswer	Mixed
23.0	1	354.468	0.02	425.129	-3.0	-3.0	16.6512	4.0	955.0	2.0	Certain	4.3	-10.36	0.0	No		14.657984144960402				ShowChoice	Mixed
23.0	1	358.48	0.012	429.141	-3.0	-3.0	16.6512	1.0	955.0	2.0	Certain	4.3	-10.36	0.0	No		14.657984144960402				ShowResult	Mixed
23.0	1	359.5	0.02	430.161	-3.0	-3.0	16.6512	8.0	955.0	2.0	Certain	4.3	-10.36	0.0	No		14.657984144960402				ISITrial	Mixed
24.0	1	367.524	0.024	438.185	-5.0	-5.0	16.0262	3.0	955.0	2.0	Certain	-12.76	2.3	3255.0	Yes	4.0	15.0645526613817	1.289	368.813		GetAnswer	Mixed
24.0	1	368.827	0.014	439.488	-5.0	-5.0	16.0262	4.0	955.0	2.0	Certain	-12.76	2.3	3255.0	Yes		15.0645526613817				ShowChoice	Mixed
24.0	1	372.839	0.012	443.5	-5.0	-5.0	16.0262	1.0	955.0	2.0	Certain	-12.76	2.3	3255.0	Yes		15.0645526613817				ShowResult	Mixed
24.0	1	373.859	0.02	444.52	-5.0	-5.0	16.0262	2.0	955.0	2.0	Certain	-12.76	2.3	3255.0	Yes		15.0645526613817				ISITrial	Mixed
24.0	1	379.158	0.021	449.819	-5.0	-5.0	16.0262	1.662	955.0	2.0	Certain	-12.76	2.3	3255.0	Yes		15.0645526613817			436.0	TrialHappiness	Mixed
24.0	1	383.17	4.012	453.831	-5.0	-5.0	16.0262	5.02	955.0	2.0	Certain	-12.76	2.3	3255.0	Yes		15.0645526613817				ISIRate	Mixed
25.0	1	388.219	0.029	458.88	2.01	1.0	16.2775	3.0	955.0	2.0	Outcome1	2.01	4.9	0.0	No	2.0	-2.88722159305398	0.857	389.076		GetAnswer	Gain
25.0	1	389.088	0.012	459.749	2.01	1.0	16.2775	4.0	955.0	2.0	Outcome1	2.01	4.9	0.0	No		-2.88722159305398				ShowChoice	Gain
25.0	1	393.1	0.012	463.761	2.01	1.0	16.2775	1.0	955.0	2.0	Outcome1	2.01	4.9	0.0	No		-2.88722159305398				ShowResult	Gain
25.0	1	394.12	0.02	464.781	2.01	1.0	16.2775	3.749	955.0	2.0	Outcome1	2.01	4.9	0.0	No		-2.88722159305398				ISITrial	Gain
26.0	1	397.898	0.029	468.559	7.9	-1.0	17.265	3.0	955.0	3.6	Outcome2	-10.88	7.9	0.0	No	2.0	18.7768969422424	1.172	399.07		GetAnswer	Gain
26.0	1	399.085	0.014	469.746	7.9	-1.0	17.265	4.0	955.0	3.6	Outcome2	-10.88	7.9	0.0	No		18.7768969422424				ShowChoice	Gain
26.0	1	403.097	0.012	473.758	7.9	-1.0	17.265	1.0	955.0	3.6	Outcome2	-10.88	7.9	0.0	No		18.7768969422424				ShowResult	Gain
26.0	1	404.116	0.019	474.777	7.9	-1.0	17.265	7.834	955.0	3.6	Outcome2	-10.88	7.9	0.0	No		18.7768969422424				ISITrial	Gain
27.0	1	411.973	0.023	482.634	8.9	-1.0	18.3775	3.0	955.0	2.0	Outcome1	8.9	-10.46	2549.75	Yes	2.0	19.3646659116648	1.313	413.286		GetAnswer	Gain
27.0	1	413.31	0.024	483.971	8.9	-1.0	18.3775	4.0	955.0	2.0	Outcome1	8.9	-10.46	2549.75	Yes		19.3646659116648				ShowChoice	Gain
27.0	1	417.322	0.012	487.983	8.9	-1.0	18.3775	1.0	955.0	2.0	Outcome1	8.9	-10.46	2549.75	Yes		19.3646659116648				ShowResult	Gain
27.0	1	418.342	0.02	489.003	8.9	-1.0	18.3775	4.225	955.0	2.0	Outcome1	8.9	-10.46	2549.75	Yes		19.3646659116648				ISITrial	Gain
27.0	1	425.163	0.025	495.824	8.9	-1.0	18.3775	2.719	955.0	2.0	Outcome1	8.9	-10.46	2549.75	Yes		19.3646659116648			664.0	TrialHappiness	Gain
27.0	1	429.175	4.012	499.836	8.9	-1.0	18.3775	2.199	955.0	2.0	Outcome1	8.9	-10.46	2549.75	Yes		19.3646659116648				ISIRate	Gain
	1	431.398	0.024	502.059				-0.001								{SPACE}		56.454	487.852		Rest	
	1	487.867	0.015	558.528				4.0													BlockHappyPreview	
	1	491.879	0.012	562.54				0.776												624.0	BlockStartHappiness	
	1	504.583	0.011	575.244				-0.001								5.0		1.83	506.413		ScanWait	
	2	0.026	0.026	577.1				10.0													GetReady	
28.0	2	10.039	0.013	587.113	2.98	2.0	18.75	3.0	70.0	3.6	Outcome1	2.98	0.73	0.0	No	2.0	2.25075585789871	0.783	10.822		GetAnswer	Loss
28.0	2	10.842	0.02	587.916	2.98	2.0	18.75	4.0	70.0	3.6	Outcome1	2.98	0.73	0.0	No		2.25075585789871				ShowChoice	Loss
28.0	2	14.854	0.012	591.928	2.98	2.0	18.75	1.0	70.0	3.6	Outcome1	2.98	0.73	0.0	No		2.25075585789871				ShowResult	Loss
28.0	2	15.873	0.019	592.947	2.98	2.0	18.75	3.575	70.0	3.6	Outcome1	2.98	0.73	0.0	No		2.25075585789871				ISITrial	Loss
29.0	2	19.467	0.019	596.541	-6.0	-6.0	18.0	3.0	70.0	0.3	Certain	-11.35	-1.3	3529.0	Yes	4.0	-10.0498866213152	1.299	20.766		GetAnswer	Mixed
29.0	2	20.788	0.022	597.862	-6.0	-6.0	18.0	4.0	70.0	0.3	Certain	-11.35	-1.3	3529.0	Yes		-10.0498866213152				ShowChoice	Mixed
29.0	2	24.8	0.012	601.874	-6.0	-6.0	18.0	1.0	70.0	0.3	Certain	-11.35	-1.3	3529.0	Yes		-10.0498866213152				ShowResult	Mixed
29.0	2	25.82	0.02	602.894	-6.0	-6.0	18.0	3.955	70.0	0.3	Certain	-11.35	-1.3	3529.0	Yes		-10.0498866213152				ISITrial	Mixed
29.0	2	33.359	0.032	610.433	-6.0	-6.0	18.0	2.232	70.0	0.3	Certain	-11.35	-1.3	3529.0	Yes		-10.0498866213152			464.0	TrialHappiness	Mixed
29.0	2	37.371	4.012	614.445	-6.0	-6.0	18.0	6.116	70.0	0.3	Certain	-11.35	-1.3	3529.0	Yes		-10.0498866213152				ISIRate	Mixed
30.0	2	43.506	0.019	620.58	0.54	0.27	18.0675	3.0	70.0	1.68	Outcome2	8.5	0.54	0.0	No	2.0	-7.95691609977324	0.764	44.27		GetAnswer	Gain
30.0	2	44.292	0.022	621.366	0.54	0.27	18.0675	4.0	70.0	1.68	Outcome2	8.5	0.54	0.0	No		-7.95691609977324				ShowChoice	Gain
30.0	2	48.304	0.012	625.378	0.54	0.27	18.0675	1.0	70.0	1.68	Outcome2	8.5	0.54	0.0	No		-7.95691609977324				ShowResult	Gain
30.0	2	49.323	0.019	626.397	0.54	0.27	18.0675	4.453	70.0	1.68	Outcome2	8.5	0.54	0.0	No		-7.95691609977324				ISITrial	Gain
31.0	2	53.803	0.027	630.877	-0.22	-1.0	18.04	3.0	70.0	0.52	Outcome2	-1.96	-0.22	2503.25	Yes	2.0	1.74263038548753	0.97	54.773		GetAnswer	Mixed
31.0	2	54.79	0.017	631.864	-0.22	-1.0	18.04	4.0	70.0	0.52	Outcome2	-1.96	-0.22	2503.25	Yes		1.74263038548753				ShowChoice	Mixed
31.0	2	58.802	0.012	635.876	-0.22	-1.0	18.04	1.0	70.0	0.52	Outcome2	-1.96	-0.22	2503.25	Yes		1.74263038548753				ShowResult	Mixed
31.0	2	59.821	0.019	636.895	-0.22	-1.0	18.04	4.786	70.0	0.52	Outcome2	-1.96	-0.22	2503.25	Yes		1.74263038548753				ISITrial	Mixed
31.0	2	67.143	0.021	644.217	-0.22	-1.0	18.04	0.643	70.0	0.52	Outcome2	-1.96	-0.22	2503.25	Yes		1.74263038548753			488.0	TrialHappiness	Mixed
31.0	2	71.155	4.012	648.229	-0.22	-1.0	18.04	2.013	70.0	0.52	Outcome2	-1.96	-0.22	2503.25	Yes		1.74263038548753				ISIRate	Mixed
32.0	2	73.195	0.027	650.269	-5.36	0.0	17.37	3.0	70.0	1.2	Outcome1	-5.36	3.9	0.0	No	2.0	-9.258503401360539	0.68	73.875		GetAnswer	Mixed
32.0	2	73.897	0.022	650.971	-5.36	0.0	17.37	4.0	70.0	1.2	Outcome1	-5.36	3.9	0.0	No		-9.258503401360539				ShowChoice	Mixed
32.0	2	77.909	0.012	654.983	-5.36	0.0	17.37	1.0	70.0	1.2	Outcome1	-5.36	3.9	0.0	No		-9.258503401360539				ShowResult	Mixed
32.0	2	78.928	0.019	656.002	-5.36	0.0	17.37	2.0	70.0	1.2	Outcome1	-5.36	3.9	0.0	No		-9.258503401360539				ISITrial	Mixed
33.0	2	80.951	0.023	658.025	1.17	0.58	17.5163	3.0	70.0	2.0	Outcome1	1.17	10.9	0.0	No	2.0	-9.732426303854881	1.134	82.085		GetAnswer	Loss
33.0	2	82.105	0.02	659.179	1.17	0.58	17.5163	4.0	70.0	2.0	Outcome1	1.17	10.9	0.0	No		-9.732426303854881				ShowChoice	Loss
33.0	2	86.117	0.012	663.191	1.17	0.58	17.5163	1.0	70.0	2.0	Outcome1	1.17	10.9	0.0	No		-9.732426303854881				ShowResult	Loss
33.0	2	87.136	0.019	664.21	1.17	0.58	17.5163	5.099	70.0	2.0	Outcome1	1.17	10.9	0.0	No		-9.732426303854881				ISITrial	Loss
34.0	2	92.252	0.017	669.326	-7.31	-2.0	16.6025	3.0	70.0	0.4	Outcome1	-7.31	2.9	3231.5	Yes	2.0	-10.206349206349199	1.201	93.453		GetAnswer	Mixed
34.0	2	93.472	0.019	670.546	-7.31	-2.0	16.6025	4.0	70.0	0.4	Outcome1	-7.31	2.9	3231.5	Yes		-10.206349206349199				ShowChoice	Mixed
34.0	2	97.484	0.012	674.558	-7.31	-2.0	16.6025	1.0	70.0	0.4	Outcome1	-7.31	2.9	3231.5	Yes		-10.206349206349199				ShowResult	Mixed
34.0	2	98.504	0.02	675.578	-7.31	-2.0	16.6025	4.784	70.0	0.4	Outcome1	-7.31	2.9	3231.5	Yes		-10.206349206349199				ISITrial	Mixed
34.0	2	106.561	0.028	683.635	-7.31	-2.0	16.6025	2.123	70.0	0.4	Outcome1	-7.31	2.9	3231.5	Yes	4{-4}4{-4}4{-4}	-10.206349206349199	2.123	108.684	412.0	TrialHappiness	Mixed
34.0	2	110.573	4.012	687.647	-7.31	-2.0	16.6025	4.926	70.0	0.4	Outcome1	-7.31	2.9	3231.5	Yes		-10.206349206349199				ISIRate	Mixed
35.0	2	115.521	0.022	692.595	-1.89	-0.94	16.3663	3.0	70.0	2.8	Outcome2	7.5	-1.89	0.0	No	2.0	-9.38775510204082	0.957	116.478		GetAnswer	Gain
35.0	2	116.491	0.013	693.565	-1.89	-0.94	16.3663	4.0	70.0	2.8	Outcome2	7.5	-1.89	0.0	No		-9.38775510204082				ShowChoice	Gain
35.0	2	120.503	0.012	697.577	-1.89	-0.94	16.3663	1.0	70.0	2.8	Outcome2	7.5	-1.89	0.0	No		-9.38775510204082				ShowResult	Gain
35.0	2	121.522	0.019	698.596	-1.89	-0.94	16.3663	2.098	70.0	2.8	Outcome2	7.5	-1.89	0.0	No		-9.38775510204082				ISITrial	Gain
36.0	2	123.645	0.025	700.719	1.92	0.96	16.6063	3.0	70.0	3.16	Outcome2	11.7	1.92	3335.75	Yes	2.0	-9.77551020408163	0.809	124.454		GetAnswer	Loss
36.0	2	124.481	0.027	701.555	1.92	0.96	16.6063	4.0	70.0	3.16	Outcome2	11.7	1.92	3335.75	Yes		-9.77551020408163				ShowChoice	Loss
36.0	2	128.493	0.012	705.567	1.92	0.96	16.6063	1.0	70.0	3.16	Outcome2	11.7	1.92	3335.75	Yes		-9.77551020408163				ShowResult	Loss
36.0	2	129.513	0.02	706.587	1.92	0.96	16.6063	5.156	70.0	3.16	Outcome2	11.7	1.92	3335.75	Yes		-9.77551020408163				ISITrial	Loss
36.0	2	138.055	0.024	715.129	1.92	0.96	16.6063	0.626	70.0	3.16	Outcome2	11.7	1.92	3335.75	Yes		-9.77551020408163			488.0	TrialHappiness	Loss
36.0	2	142.067	4.012	719.141	1.92	0.96	16.6063	5.343	70.0	3.16	Outcome2	11.7	1.92	3335.75	Yes		-9.77551020408163				ISIRate	Loss
37.0	2	147.433	0.023	724.507	-5.76	0.0	15.8863	3.0	70.0	3.16	Outcome1	-5.76	5.7	0.0	No	2.0	-11.455782312925198	1.04	148.473		GetAnswer	Gain
37.0	2	148.486	0.013	725.56	-5.76	0.0	15.8863	4.0	70.0	3.16	Outcome1	-5.76	5.7	0.0	No		-11.455782312925198				ShowChoice	Gain
37.0	2	152.498	0.012	729.572	-5.76	0.0	15.8863	1.0	70.0	3.16	Outcome1	-5.76	5.7	0.0	No		-11.455782312925198				ShowResult	Gain
37.0	2	153.518	0.02	730.592	-5.76	0.0	15.8863	3.598	70.0	3.16	Outcome1	-5.76	5.7	0.0	No		-11.455782312925198				ISITrial	Gain
38.0	2	157.146	0.03	734.22	2.0	2.0	16.1363	3.0	70.0	1.82	Certain	-3.23	8.7	0.0	No	4.0	-11.9297052154195	1.342	158.488		GetAnswer	Gain
38.0	2	158.5	0.012	735.574	2.0	2.0	16.1363	4.0	70.0	1.82	Certain	-3.23	8.7	0.0	No		-11.9297052154195				ShowChoice	Gain
38.0	2	162.512	0.012	739.586	2.0	2.0	16.1363	1.0	70.0	1.82	Certain	-3.23	8.7	0.0	No		-11.9297052154195				ShowResult	Gain
38.0	2	163.531	0.019	740.605	2.0	2.0	16.1363	4.787	70.0	1.82	Certain	-3.23	8.7	0.0	No		-11.9297052154195				ISITrial	Gain
39.0	2	168.346	0.028	745.42	-12.1	-6.0	14.6238	3.0	70.0	2.0	Outcome2	0.3	-12.1	2864.25	Yes	2.0	-12.4036281179138	1.326	169.672		GetAnswer	Mixed
39.0	2	169.7	0.028	746.774	-12.1	-6.0	14.6238	4.0	70.0	2.0	Outcome2	0.3	-12.1	2864.25	Yes		-12.4036281179138				ShowChoice	Mixed
39.0	2	173.712	0.012	750.786	-12.1	-6.0	14.6238	1.0	70.0	2.0	Outcome2	0.3	-12.1	2864.25	Yes		-12.4036281179138				ShowResult	Mixed
39.0	2	174.732	0.02	751.806	-12.1	-6.0	14.6238	2.348	70.0	2.0	Outcome2	0.3	-12.1	2864.25	Yes		-12.4036281179138				ISITrial	Mixed
39.0	2	179.997	0.028	757.071	-12.1	-6.0	14.6238	2.716	70.0	2.0	Outcome2	0.3	-12.1	2864.25	Yes		-12.4036281179138			364.0	TrialHappiness	Mixed
39.0	2	184.009	4.012	761.083	-12.1	-6.0	14.6238	3.457	70.0	2.0	Outcome2	0.3	-12.1	2864.25	Yes		-12.4036281179138				ISIRate	Mixed
40.0	2	187.486	0.02	764.56	1.18	0.0	14.7713	3.0	70.0	1.82	Outcome1	1.18	-0.5	0.0	No	2.0	1.67517006802721	1.038	188.524		GetAnswer	Gain
40.0	2	188.539	0.015	765.613	1.18	0.0	14.7713	4.0	70.0	1.82	Outcome1	1.18	-0.5	0.0	No		1.67517006802721				ShowChoice	Gain
40.0	2	192.552	0.013	769.626	1.18	0.0	14.7713	1.0	70.0	1.82	Outcome1	1.18	-0.5	0.0	No		1.67517006802721				ShowResult	Gain
40.0	2	193.571	0.019	770.645	1.18	0.0	14.7713	3.158	70.0	1.82	Outcome1	1.18	-0.5	0.0	No		1.67517006802721				ISITrial	Gain
41.0	2	196.747	0.018	773.821	1.0	1.0	14.8963	3.0	70.0	5.0	Certain	6.3	-4.8	4000.0	Yes	4.0	-11.102040816326499	1.24	197.987		GetAnswer	Gain
41.0	2	198.001	0.014	775.075	1.0	1.0	14.8963	4.0	70.0	5.0	Certain	6.3	-4.8	4000.0	Yes		-11.102040816326499				ShowChoice	Gain
41.0	2	202.013	0.012	779.087	1.0	1.0	14.8963	1.0	70.0	5.0	Certain	6.3	-4.8	4000.0	Yes		-11.102040816326499				ShowResult	Gain
41.0	2	203.033	0.02	780.107	1.0	1.0	14.8963	4.506	70.0	5.0	Certain	6.3	-4.8	4000.0	Yes		-11.102040816326499				ISITrial	Gain
41.0	2	211.592	0.029	788.666	1.0	1.0	14.8963	2.228	70.0	5.0	Certain	6.3	-4.8	4000.0	Yes		-11.102040816326499			560.0	TrialHappiness	Gain
41.0	2	215.604	4.012	792.678	1.0	1.0	14.8963	8.0	70.0	5.0	Certain	6.3	-4.8	4000.0	Yes		-11.102040816326499				ISIRate	Gain
42.0	2	223.628	0.024	800.702	1.0	1.0	15.0213	3.0	70.0	2.22	Certain	9.1	-5.67	0.0	No	4.0	-14.7687074829932	1.024	224.652		GetAnswer	Gain
42.0	2	224.664	0.012	801.738	1.0	1.0	15.0213	4.0	70.0	2.22	Certain	9.1	-5.67	0.0	No		-14.7687074829932				ShowChoice	Gain
42.0	2	228.676	0.012	805.75	1.0	1.0	15.0213	1.0	70.0	2.22	Certain	9.1	-5.67	0.0	No		-14.7687074829932				ShowResult	Gain
42.0	2	229.696	0.02	806.77	1.0	1.0	15.0213	6.248	70.0	2.22	Certain	9.1	-5.67	0.0	No		-14.7687074829932				ISITrial	Gain
43.0	2	235.965	0.021	813.039	0.0	0.0	15.0213	3.0	70.0	3.16	Certain	-7.62	7.7	2775.75	Yes	4.0	-15.324263038548802	1.158	237.123		GetAnswer	Gain
43.0	2	237.135	0.011	814.209	0.0	0.0	15.0213	4.0	70.0	3.16	Certain	-7.62	7.7	2775.75	Yes		-15.324263038548802				ShowChoice	Gain
43.0	2	241.147	0.012	818.221	0.0	0.0	15.0213	1.0	70.0	3.16	Certain	-7.62	7.7	2775.75	Yes		-15.324263038548802				ShowResult	Gain
43.0	2	242.167	0.02	819.241	0.0	0.0	15.0213	4.596	70.0	3.16	Certain	-7.62	7.7	2775.75	Yes		-15.324263038548802				ISITrial	Gain
43.0	2	249.572	0.016	826.646	0.0	0.0	15.0213	1.057	70.0	3.16	Certain	-7.62	7.7	2775.75	Yes		-15.324263038548802			552.0	TrialHappiness	Gain
43.0	2	253.584	4.012	830.658	0.0	0.0	15.0213	3.103	70.0	3.16	Certain	-7.62	7.7	2775.75	Yes		-15.324263038548802				ISIRate	Gain
44.0	2	256.71	0.023	833.784	-5.64	2.0	14.3163	3.0	70.0	4.2	Outcome2	10.1	-5.64	0.0	No	2.0	-15.743764172335599	0.989	257.699		GetAnswer	Gain
44.0	2	257.713	0.014	834.787	-5.64	2.0	14.3163	4.0	70.0	4.2	Outcome2	10.1	-5.64	0.0	No		-15.743764172335599				ShowChoice	Gain
44.0	2	261.725	0.012	838.799	-5.64	2.0	14.3163	1.0	70.0	4.2	Outcome2	10.1	-5.64	0.0	No		-15.743764172335599				ShowResult	Gain
44.0	2	262.745	0.02	839.819	-5.64	2.0	14.3163	2.42	70.0	4.2	Outcome2	10.1	-5.64	0.0	No		-15.743764172335599				ISITrial	Gain
45.0	2	265.185	0.02	842.259	-3.39	-1.7	13.8925	3.0	70.0	2.0	Outcome2	12.9	-3.39	0.0	No	2.0	-16.2902494331066	1.316	266.501		GetAnswer	Loss
45.0	2	266.523	0.022	843.597	-3.39	-1.7	13.8925	4.0	70.0	2.0	Outcome2	12.9	-3.39	0.0	No		-16.2902494331066				ShowChoice	Loss
45.0	2	270.535	0.012	847.609	-3.39	-1.7	13.8925	1.0	70.0	2.0	Outcome2	12.9	-3.39	0.0	No		-16.2902494331066				ShowResult	Loss
45.0	2	271.554	0.019	848.628	-3.39	-1.7	13.8925	3.144	70.0	2.0	Outcome2	12.9	-3.39	0.0	No		-16.2902494331066				ISITrial	Loss
46.0	2	274.714	0.016	851.788	2.0	2.0	14.1425	3.0	70.0	5.0	Certain	-6.54	10.3	3841.25	Yes	4.0	-16.8367346938775	1.122	275.836		GetAnswer	Gain
46.0	2	275.851	0.015	852.925	2.0	2.0	14.1425	4.0	70.0	5.0	Certain	-6.54	10.3	3841.25	Yes		-16.8367346938775				ShowChoice	Gain
46.0	2	279.863	0.012	856.937	2.0	2.0	14.1425	1.0	70.0	5.0	Certain	-6.54	10.3	3841.25	Yes		-16.8367346938775				ShowResult	Gain
46.0	2	280.882	0.019	857.956	2.0	2.0	14.1425	2.246	70.0	5.0	Certain	-6.54	10.3	3841.25	Yes		-16.8367346938775				ISITrial	Gain
46.0	2	287.001	0.021	864.075	2.0	2.0	14.1425	0.66	70.0	5.0	Certain	-6.54	10.3	3841.25	Yes		-16.8367346938775			504.0	TrialHappiness	Gain
46.0	2	291.029	4.028	868.103	2.0	2.0	14.1425	7.365	70.0	5.0	Certain	-6.54	10.3	3841.25	Yes		-16.8367346938775				ISIRate	Gain
47.0	2	298.418	0.024	875.492	-3.87	-1.94	13.6587	3.0	70.0	1.82	Outcome2	12.7	-3.87	0.0	No	2.0	-16.5668934240363	1.26	299.678		GetAnswer	Loss
47.0	2	299.705	0.027	876.779	-3.87	-1.94	13.6587	4.0	70.0	1.82	Outcome2	12.7	-3.87	0.0	No		-16.5668934240363				ShowChoice	Loss
47.0	2	303.717	0.012	880.791	-3.87	-1.94	13.6587	1.0	70.0	1.82	Outcome2	12.7	-3.87	0.0	No		-16.5668934240363				ShowResult	Loss
47.0	2	304.737	0.02	881.811	-3.87	-1.94	13.6587	2.0	70.0	1.82	Outcome2	12.7	-3.87	0.0	No		-16.5668934240363				ISITrial	Loss
48.0	2	306.76	0.023	883.834	1.0	1.0	13.7837	3.0	70.0	2.8	Certain	-0.19	2.38	2831.75	Yes	4.0	2.56972789115646	1.351	308.111		GetAnswer	Gain
48.0	2	308.13	0.019	885.204	1.0	1.0	13.7837	4.0	70.0	2.8	Certain	-0.19	2.38	2831.75	Yes		2.56972789115646				ShowChoice	Gain
48.0	2	312.142	0.012	889.216	1.0	1.0	13.7837	1.0	70.0	2.8	Certain	-0.19	2.38	2831.75	Yes		2.56972789115646				ShowResult	Gain
48.0	2	313.162	0.02	890.236	1.0	1.0	13.7837	3.692	70.0	2.8	Certain	-0.19	2.38	2831.75	Yes		2.56972789115646				ISITrial	Gain
48.0	2	319.732	0.027	896.806	1.0	1.0	13.7837	0.542	70.0	2.8	Certain	-0.19	2.38	2831.75	Yes		2.56972789115646			492.0	TrialHappiness	Gain
48.0	2	323.744	4.012	900.818	1.0	1.0	13.7837	3.327	70.0	2.8	Certain	-0.19	2.38	2831.75	Yes		2.56972789115646				ISIRate	Gain
49.0	2	327.087	0.016	904.161	-2.0	-2.0	13.5337	3.0	70.0	4.2	Certain	-11.25	6.1	0.0	No	4.0	-17.3469387755102	1.889	328.976		GetAnswer	Gain
49.0	2	328.993	0.017	906.067	-2.0	-2.0	13.5337	4.0	70.0	4.2	Certain	-11.25	6.1	0.0	No		-17.3469387755102				ShowChoice	Gain
49.0	2	333.005	0.012	910.079	-2.0	-2.0	13.5337	1.0	70.0	4.2	Certain	-11.25	6.1	0.0	No		-17.3469387755102				ShowResult	Gain
49.0	2	334.024	0.019	911.098	-2.0	-2.0	13.5337	8.0	70.0	4.2	Certain	-11.25	6.1	0.0	No		-17.3469387755102				ISITrial	Gain
50.0	2	342.048	0.024	919.122	0.78	0.0	13.6312	3.0	70.0	0.52	Outcome2	-1.82	0.78	3547.25	Yes	2.0	2.6018518518518503	1.138	343.186		GetAnswer	Mixed
50.0	2	343.202	0.016	920.276	0.78	0.0	13.6312	4.0	70.0	0.52	Outcome2	-1.82	0.78	3547.25	Yes		2.6018518518518503				ShowChoice	Mixed
50.0	2	347.214	0.012	924.288	0.78	0.0	13.6312	1.0	70.0	0.52	Outcome2	-1.82	0.78	3547.25	Yes		2.6018518518518503				ShowResult	Mixed
50.0	2	348.234	0.02	925.308	0.78	0.0	13.6312	7.537	70.0	0.52	Outcome2	-1.82	0.78	3547.25	Yes		2.6018518518518503				ISITrial	Mixed
50.0	2	359.367	0.03	936.441	0.78	0.0	13.6312	0.726	70.0	0.52	Outcome2	-1.82	0.78	3547.25	Yes		2.6018518518518503			544.0	TrialHappiness	Mixed
50.0	2	363.379	4.012	940.453	0.78	0.0	13.6312	6.189	70.0	0.52	Outcome2	-1.82	0.78	3547.25	Yes		2.6018518518518503				ISIRate	Mixed
51.0	2	369.598	0.03	946.672	3.48	2.0	14.0662	3.0	70.0	3.6	Outcome1	3.48	0.63	0.0	No	2.0	2.8529856386999204	1.257	370.855		GetAnswer	Loss
51.0	2	370.885	0.03	947.959	3.48	2.0	14.0662	4.0	70.0	3.6	Outcome1	3.48	0.63	0.0	No		2.8529856386999204				ShowChoice	Loss
51.0	2	374.897	0.012	951.971	3.48	2.0	14.0662	1.0	70.0	3.6	Outcome1	3.48	0.63	0.0	No		2.8529856386999204				ShowResult	Loss
51.0	2	375.916	0.019	952.99	3.48	2.0	14.0662	5.508	70.0	3.6	Outcome1	3.48	0.63	0.0	No		2.8529856386999204				ISITrial	Loss
52.0	2	381.45	0.026	958.524	1.78	0.0	14.2887	3.0	70.0	2.22	Outcome2	-1.12	1.78	0.0	No	2.0	2.89777021919879	1.342	382.792		GetAnswer	Gain
52.0	2	382.82	0.028	959.894	1.78	0.0	14.2887	4.0	70.0	2.22	Outcome2	-1.12	1.78	0.0	No		2.89777021919879				ShowChoice	Gain
52.0	2	386.832	0.012	963.906	1.78	0.0	14.2887	1.0	70.0	2.22	Outcome2	-1.12	1.78	0.0	No		2.89777021919879				ShowResult	Gain
52.0	2	387.852	0.02	964.926	1.78	0.0	14.2887	5.913	70.0	2.22	Outcome2	-1.12	1.78	0.0	No		2.89777021919879				ISITrial	Gain
53.0	2	393.786	0.021	970.86	-8.96	1.0	13.1687	3.0	70.0	2.48	Outcome1	-8.96	11.3	2996.75	Yes	2.0	-20.263038548752803	1.301	395.087		GetAnswer	Loss
53.0	2	395.107	0.02	972.181	-8.96	1.0	13.1687	4.0	70.0	2.48	Outcome1	-8.96	11.3	2996.75	Yes		-20.263038548752803				ShowChoice	Loss
53.0	2	399.119	0.012	976.193	-8.96	1.0	13.1687	1.0	70.0	2.48	Outcome1	-8.96	11.3	2996.75	Yes		-20.263038548752803				ShowResult	Loss
53.0	2	400.139	0.02	977.213	-8.96	1.0	13.1687	3.66	70.0	2.48	Outcome1	-8.96	11.3	2996.75	Yes		-20.263038548752803				ISITrial	Loss
53.0	2	406.842	0.029	983.916	-8.96	1.0	13.1687	1.305	70.0	2.48	Outcome1	-8.96	11.3	2996.75	Yes	{-4}4{-4}4{-4}	-20.263038548752803	1.305	408.147	452.0	TrialHappiness	Loss
53.0	2	410.854	4.012	987.928	-8.96	1.0	13.1687	3.987	70.0	2.48	Outcome1	-8.96	11.3	2996.75	Yes		-20.263038548752803				ISIRate	Loss
54.0	2	414.866	0.025	991.94	2.62	1.0	13.4962	3.0	70.0	1.68	Outcome2	0.01	2.62	0.0	No	2.0	2.61356764928193	1.041	415.907		GetAnswer	Loss
54.0	2	415.919	0.012	992.993	2.62	1.0	13.4962	4.0	70.0	1.68	Outcome2	0.01	2.62	0.0	No		2.61356764928193				ShowChoice	Loss
54.0	2	419.931	0.012	997.005	2.62	1.0	13.4962	1.0	70.0	1.68	Outcome2	0.01	2.62	0.0	No		2.61356764928193				ShowResult	Loss
54.0	2	420.951	0.02	998.025	2.62	1.0	13.4962	8.0	70.0	1.68	Outcome2	0.01	2.62	0.0	No		2.61356764928193				ISITrial	Loss
	2	428.975	0.024	1006.049				-0.001								{SPACE}		59.973	488.948		Rest	
	2	488.971	0.023	1066.045				4.0													BlockHappyPreview	
	2	492.983	0.012	1070.057				0.609												496.0	BlockStartHappiness	
	2	503.581	0.01	1080.655				-0.001								5.0		1.074	504.655		ScanWait	
	3	0.013	0.013	1081.742				10.0													GetReady	
55.0	3	10.026	0.013	1091.755	13.5	2.85	15.1837	3.0	955.0	2.8	Outcome1	13.5	5.7	2533.25	Yes	2.0	7.7972819932049795	0.872	10.898		GetAnswer	Loss
55.0	3	10.912	0.014	1092.641	13.5	2.85	15.1837	4.0	955.0	2.8	Outcome1	13.5	5.7	2533.25	Yes		7.7972819932049795				ShowChoice	Loss
55.0	3	14.924	0.012	1096.653	13.5	2.85	15.1837	1.0	955.0	2.8	Outcome1	13.5	5.7	2533.25	Yes		7.7972819932049795				ShowResult	Loss
55.0	3	15.944	0.02	1097.673	13.5	2.85	15.1837	7.709	955.0	2.8	Outcome1	13.5	5.7	2533.25	Yes		7.7972819932049795				ISITrial	Loss
55.0	3	26.225	0.025	1107.954	13.5	2.85	15.1837	2.615	955.0	2.8	Outcome1	13.5	5.7	2533.25	Yes		7.7972819932049795			648.0	TrialHappiness	Loss
55.0	3	30.237	4.012	1111.966	13.5	2.85	15.1837	2.133	955.0	2.8	Outcome1	13.5	5.7	2533.25	Yes		7.7972819932049795				ISIRate	Loss
56.0	3	32.393	0.023	1114.122	11.81	5.9	16.6599	3.0	955.0	2.22	Outcome1	11.81	13.1	0.0	No	2.0	-1.28916572291431	0.729	33.122		GetAnswer	Loss
56.0	3	33.145	0.023	1114.874	11.81	5.9	16.6599	4.0	955.0	2.22	Outcome1	11.81	13.1	0.0	No		-1.28916572291431				ShowChoice	Loss
56.0	3	37.157	0.012	1118.886	11.81	5.9	16.6599	1.0	955.0	2.22	Outcome1	11.81	13.1	0.0	No		-1.28916572291431				ShowResult	Loss
56.0	3	38.177	0.02	1119.906	11.81	5.9	16.6599	4.697	955.0	2.22	Outcome1	11.81	13.1	0.0	No		-1.28916572291431				ISITrial	Loss
57.0	3	42.891	0.017	1124.62	7.3	0.61	17.5724	3.0	955.0	2.48	Outcome1	7.3	1.22	0.0	No	2.0	6.0826727066817705	0.667	43.558		GetAnswer	Gain
57.0	3	43.577	0.019	1125.306	7.3	0.61	17.5724	4.0	955.0	2.48	Outcome1	7.3	1.22	0.0	No		6.0826727066817705				ShowChoice	Gain
57.0	3	47.589	0.012	1129.318	7.3	0.61	17.5724	1.0	955.0	2.48	Outcome1	7.3	1.22	0.0	No		6.0826727066817705				ShowResult	Gain
57.0	3	48.608	0.019	1130.337	7.3	0.61	17.5724	4.291	955.0	2.48	Outcome1	7.3	1.22	0.0	No		6.0826727066817705				ISITrial	Gain
58.0	3	52.921	0.022	1134.65	12.5	3.04	19.1349	3.0	955.0	1.68	Outcome2	6.07	12.5	3045.75	Yes	2.0	6.430351075877691	0.811	53.732		GetAnswer	Loss
58.0	3	53.757	0.025	1135.486	12.5	3.04	19.1349	4.0	955.0	1.68	Outcome2	6.07	12.5	3045.75	Yes		6.430351075877691				ShowChoice	Loss
58.0	3	57.769	0.012	1139.498	12.5	3.04	19.1349	1.0	955.0	1.68	Outcome2	6.07	12.5	3045.75	Yes		6.430351075877691				ShowResult	Loss
58.0	3	58.789	0.02	1140.518	12.5	3.04	19.1349	2.037	955.0	1.68	Outcome2	6.07	12.5	3045.75	Yes		6.430351075877691				ISITrial	Loss
58.0	3	63.921	0.03	1145.65	12.5	3.04	19.1349	2.543	955.0	1.68	Outcome2	6.07	12.5	3045.75	Yes		6.430351075877691			744.0	TrialHappiness	Loss
58.0	3	67.933	4.012	1149.662	12.5	3.04	19.1349	4.183	955.0	1.68	Outcome2	6.07	12.5	3045.75	Yes		6.430351075877691				ISIRate	Loss
59.0	3	72.145	0.029	1153.874	11.31	5.66	20.5487	3.0	955.0	5.0	Outcome1	11.31	12.3	0.0	No	2.0	-0.986504341260853	0.564	72.709		GetAnswer	Loss
59.0	3	72.73	0.021	1154.459	11.31	5.66	20.5487	4.0	955.0	5.0	Outcome1	11.31	12.3	0.0	No		-0.986504341260853				ShowChoice	Loss
59.0	3	76.742	0.012	1158.471	11.31	5.66	20.5487	1.0	955.0	5.0	Outcome1	11.31	12.3	0.0	No		-0.986504341260853				ShowResult	Loss
59.0	3	77.762	0.02	1159.491	11.31	5.66	20.5487	5.064	955.0	5.0	Outcome1	11.31	12.3	0.0	No		-0.986504341260853				ISITrial	Loss
60.0	3	82.844	0.018	1164.573	4.29	2.14	21.0849	3.0	955.0	2.48	Outcome2	5.3	4.29	3562.5	Yes	2.0	-1.00641751604379	0.584	83.428		GetAnswer	Gain
60.0	3	83.446	0.018	1165.175	4.29	2.14	21.0849	4.0	955.0	2.48	Outcome2	5.3	4.29	3562.5	Yes		-1.00641751604379				ShowChoice	Gain
60.0	3	87.458	0.012	1169.187	4.29	2.14	21.0849	1.0	955.0	2.48	Outcome2	5.3	4.29	3562.5	Yes		-1.00641751604379				ShowResult	Gain
60.0	3	88.478	0.02	1170.207	4.29	2.14	21.0849	8.0	955.0	2.48	Outcome2	5.3	4.29	3562.5	Yes		-1.00641751604379				ISITrial	Gain
60.0	3	100.079	0.015	1181.808	4.29	2.14	21.0849	1.584	955.0	2.48	Outcome2	5.3	4.29	3562.5	Yes		-1.00641751604379			716.0	TrialHappiness	Gain
60.0	3	104.091	4.012	1185.82	4.29	2.14	21.0849	6.25	955.0	2.48	Outcome2	5.3	4.29	3562.5	Yes		-1.00641751604379				ISIRate	Gain
61.0	3	110.36	0.019	1192.089	-2.0	-2.0	20.8349	3.0	955.0	0.2	Certain	0.5	-5.6	0.0	No	4.0	6.10079275198188	1.018	111.378		GetAnswer	Mixed
61.0	3	111.396	0.018	1193.125	-2.0	-2.0	20.8349	4.0	955.0	0.2	Certain	0.5	-5.6	0.0	No		6.10079275198188				ShowChoice	Mixed
61.0	3	115.408	0.012	1197.137	-2.0	-2.0	20.8349	1.0	955.0	0.2	Certain	0.5	-5.6	0.0	No		6.10079275198188				ShowResult	Mixed
61.0	3	116.428	0.02	1198.157	-2.0	-2.0	20.8349	4.586	955.0	0.2	Certain	0.5	-5.6	0.0	No		6.10079275198188				ISITrial	Mixed
62.0	3	121.042	0.028	1202.771	-2.66	-2.0	20.5024	3.0	955.0	0.2	Outcome1	-2.66	-1.5	3748.75	Yes	2.0	-1.16251415628539	1.345	122.387		GetAnswer	Mixed
62.0	3	122.412	0.025	1204.141	-2.66	-2.0	20.5024	4.0	955.0	0.2	Outcome1	-2.66	-1.5	3748.75	Yes		-1.16251415628539				ShowChoice	Mixed
62.0	3	126.424	0.012	1208.153	-2.66	-2.0	20.5024	1.0	955.0	0.2	Outcome1	-2.66	-1.5	3748.75	Yes		-1.16251415628539				ShowResult	Mixed
62.0	3	127.444	0.02	1209.173	-2.66	-2.0	20.5024	5.212	955.0	0.2	Outcome1	-2.66	-1.5	3748.75	Yes		-1.16251415628539				ISITrial	Mixed
62.0	3	136.454	0.029	1218.183	-2.66	-2.0	20.5024	1.358	955.0	0.2	Outcome1	-2.66	-1.5	3748.75	Yes		-1.16251415628539			436.0	TrialHappiness	Mixed
62.0	3	140.466	4.012	1222.195	-2.66	-2.0	20.5024	6.995	955.0	0.2	Outcome1	-2.66	-1.5	3748.75	Yes		-1.16251415628539				ISIRate	Mixed
63.0	3	147.487	0.026	1229.216	1.78	0.89	20.7249	3.0	955.0	1.5	Outcome1	1.78	4.1	0.0	No	2.0	-2.3213476783692	0.773	148.26		GetAnswer	Mixed
63.0	3	148.273	0.013	1230.002	1.78	0.89	20.7249	4.0	955.0	1.5	Outcome1	1.78	4.1	0.0	No		-2.3213476783692				ShowChoice	Mixed
63.0	3	152.285	0.012	1234.014	1.78	0.89	20.7249	1.0	955.0	1.5	Outcome1	1.78	4.1	0.0	No		-2.3213476783692				ShowResult	Mixed
63.0	3	153.305	0.02	1235.034	1.78	0.89	20.7249	5.595	955.0	1.5	Outcome1	1.78	4.1	0.0	No		-2.3213476783692				ISITrial	Mixed
64.0	3	158.921	0.021	1240.65	-6.0	-6.0	19.9749	3.0	955.0	1.5	Certain	0.1	-11.89	0.0	No	4.0	11.9864099660249	1.047	159.968		GetAnswer	Mixed
64.0	3	159.991	0.023	1241.72	-6.0	-6.0	19.9749	4.0	955.0	1.5	Certain	0.1	-11.89	0.0	No		11.9864099660249				ShowChoice	Mixed
64.0	3	164.003	0.012	1245.732	-6.0	-6.0	19.9749	1.0	955.0	1.5	Certain	0.1	-11.89	0.0	No		11.9864099660249				ShowResult	Mixed
64.0	3	165.023	0.02	1246.752	-6.0	-6.0	19.9749	5.47	955.0	1.5	Certain	0.1	-11.89	0.0	No		11.9864099660249				ISITrial	Mixed
65.0	3	170.523	0.03	1252.252	13.3	0.36	21.6374	3.0	955.0	2.48	Outcome1	13.3	0.73	2996.75	Yes	2.0	12.574178935447302	0.813	171.336		GetAnswer	Loss
65.0	3	171.359	0.023	1253.088	13.3	0.36	21.6374	4.0	955.0	2.48	Outcome1	13.3	0.73	2996.75	Yes		12.574178935447302				ShowChoice	Loss
65.0	3	175.371	0.012	1257.1	13.3	0.36	21.6374	1.0	955.0	2.48	Outcome1	13.3	0.73	2996.75	Yes		12.574178935447302				ShowResult	Loss
65.0	3	176.39	0.019	1258.119	13.3	0.36	21.6374	3.344	955.0	2.48	Outcome1	13.3	0.73	2996.75	Yes		12.574178935447302				ISITrial	Loss
65.0	3	182.776	0.029	1264.505	13.3	0.36	21.6374	1.227	955.0	2.48	Outcome1	13.3	0.73	2996.75	Yes	2{-2}2{-2}	12.574178935447302	1.227	184.003	744.0	TrialHappiness	Loss
65.0	3	186.788	4.012	1268.517	13.3	0.36	21.6374	3.987	955.0	2.48	Outcome1	13.3	0.73	2996.75	Yes		12.574178935447302				ISIRate	Loss
66.0	3	190.8	0.025	1272.529	-2.0	-2.0	21.3874	3.0	955.0	0.82	Certain	-6.43	1.5	0.0	No	4.0	7.92978482446206	0.836	191.636		GetAnswer	Mixed
66.0	3	191.653	0.017	1273.382	-2.0	-2.0	21.3874	4.0	955.0	0.82	Certain	-6.43	1.5	0.0	No		7.92978482446206				ShowChoice	Mixed
66.0	3	195.665	0.012	1277.394	-2.0	-2.0	21.3874	1.0	955.0	0.82	Certain	-6.43	1.5	0.0	No		7.92978482446206				ShowResult	Mixed
66.0	3	196.684	0.019	1278.413	-2.0	-2.0	21.3874	3.959	955.0	0.82	Certain	-6.43	1.5	0.0	No		7.92978482446206				ISITrial	Mixed
67.0	3	200.663	0.02	1282.392	9.7	0.76	22.5999	3.0	955.0	3.16	Outcome2	1.53	9.7	2918.5	Yes	2.0	8.1687429218573	0.737	201.4		GetAnswer	Gain
67.0	3	201.415	0.015	1283.144	9.7	0.76	22.5999	4.0	955.0	3.16	Outcome2	1.53	9.7	2918.5	Yes		8.1687429218573				ShowChoice	Gain
67.0	3	205.444	0.029	1287.173	9.7	0.76	22.5999	1.0	955.0	3.16	Outcome2	1.53	9.7	2918.5	Yes		8.1687429218573				ShowResult	Gain
67.0	3	206.464	0.02	1288.193	9.7	0.76	22.5999	4.199	955.0	3.16	Outcome2	1.53	9.7	2918.5	Yes		8.1687429218573				ISITrial	Gain
67.0	3	213.635	0.024	1295.364	9.7	0.76	22.5999	2.366	955.0	3.16	Outcome2	1.53	9.7	2918.5	Yes		8.1687429218573			588.0	TrialHappiness	Gain
67.0	3	217.664	4.029	1299.393	9.7	0.76	22.5999	3.674	955.0	3.16	Outcome2	1.53	9.7	2918.5	Yes		8.1687429218573				ISIRate	Gain
68.0	3	221.358	0.02	1303.087	-3.0	-3.0	22.2249	3.0	955.0	1.2	Certain	-9.16	1.9	0.0	No	4.0	11.0577576443941	0.889	222.247		GetAnswer	Mixed
68.0	3	222.261	0.014	1303.99	-3.0	-3.0	22.2249	4.0	955.0	1.2	Certain	-9.16	1.9	0.0	No		11.0577576443941				ShowChoice	Mixed
68.0	3	226.29	0.029	1308.019	-3.0	-3.0	22.2249	1.0	955.0	1.2	Certain	-9.16	1.9	0.0	No		11.0577576443941				ShowResult	Mixed
68.0	3	227.309	0.019	1309.038	-3.0	-3.0	22.2249	2.185	955.0	1.2	Certain	-9.16	1.9	0.0	No		11.0577576443941				ISITrial	Mixed
69.0	3	229.516	0.022	1311.245	9.17	4.58	23.3711	3.0	955.0	2.22	Outcome1	9.17	11.1	0.0	No	2.0	-1.9259154397886002	0.76	230.276		GetAnswer	Loss
69.0	3	230.302	0.026	1312.031	9.17	4.58	23.3711	4.0	955.0	2.22	Outcome1	9.17	11.1	0.0	No		-1.9259154397886002				ShowChoice	Loss
69.0	3	234.33	0.028	1316.059	9.17	4.58	23.3711	1.0	955.0	2.22	Outcome1	9.17	11.1	0.0	No		-1.9259154397886002				ShowResult	Loss
69.0	3	235.35	0.02	1317.079	9.17	4.58	23.3711	2.0	955.0	2.22	Outcome1	9.17	11.1	0.0	No		-1.9259154397886002				ISITrial	Loss
70.0	3	237.373	0.023	1319.102	-2.0	-2.0	23.1211	3.0	955.0	0.82	Certain	-8.39	3.5	3651.25	Yes	4.0	11.8890147225368	1.151	238.524		GetAnswer	Mixed
70.0	3	238.543	0.019	1320.272	-2.0	-2.0	23.1211	4.0	955.0	0.82	Certain	-8.39	3.5	3651.25	Yes		11.8890147225368				ShowChoice	Mixed
70.0	3	242.555	0.012	1324.284	-2.0	-2.0	23.1211	1.0	955.0	0.82	Certain	-8.39	3.5	3651.25	Yes		11.8890147225368				ShowResult	Mixed
70.0	3	243.575	0.02	1325.304	-2.0	-2.0	23.1211	2.623	955.0	0.82	Certain	-8.39	3.5	3651.25	Yes		11.8890147225368				ISITrial	Mixed
70.0	3	249.893	0.026	1331.622	-2.0	-2.0	23.1211	0.547	955.0	0.82	Certain	-8.39	3.5	3651.25	Yes		11.8890147225368			492.0	TrialHappiness	Mixed
70.0	3	253.922	4.029	1335.651	-2.0	-2.0	23.1211	6.605	955.0	0.82	Certain	-8.39	3.5	3651.25	Yes		11.8890147225368				ISIRate	Mixed
71.0	3	260.559	0.032	1342.288	4.52	2.26	23.6861	3.0	955.0	2.0	Outcome2	6.9	4.52	0.0	No	2.0	-2.38476783691959	0.783	261.342		GetAnswer	Gain
71.0	3	261.361	0.019	1343.09	4.52	2.26	23.6861	4.0	955.0	2.0	Outcome2	6.9	4.52	0.0	No		-2.38476783691959				ShowChoice	Gain
71.0	3	265.373	0.012	1347.102	4.52	2.26	23.6861	1.0	955.0	2.0	Outcome2	6.9	4.52	0.0	No		-2.38476783691959				ShowResult	Gain
71.0	3	266.393	0.02	1348.122	4.52	2.26	23.6861	5.499	955.0	2.0	Outcome2	6.9	4.52	0.0	No		-2.38476783691959				ISITrial	Gain
72.0	3	271.926	0.034	1353.655	1.27	2.0	23.8449	3.0	955.0	1.0	Outcome2	3.7	1.27	3080.5	Yes	2.0	-2.42846357115893	0.841	272.767		GetAnswer	Mixed
72.0	3	272.795	0.028	1354.524	1.27	2.0	23.8449	4.0	955.0	1.0	Outcome2	3.7	1.27	3080.5	Yes		-2.42846357115893				ShowChoice	Mixed
72.0	3	276.807	0.012	1358.536	1.27	2.0	23.8449	1.0	955.0	1.0	Outcome2	3.7	1.27	3080.5	Yes		-2.42846357115893				ShowResult	Mixed
72.0	3	277.827	0.02	1359.556	1.27	2.0	23.8449	5.672	955.0	1.0	Outcome2	3.7	1.27	3080.5	Yes		-2.42846357115893				ISITrial	Mixed
72.0	3	286.637	0.03	1368.366	1.27	2.0	23.8449	1.671	955.0	1.0	Outcome2	3.7	1.27	3080.5	Yes		-2.42846357115893			580.0	TrialHappiness	Mixed
72.0	3	290.665	4.028	1372.394	1.27	2.0	23.8449	4.322	955.0	1.0	Outcome2	3.7	1.27	3080.5	Yes		-2.42846357115893				ISIRate	Mixed
73.0	3	295.012	0.025	1376.741	13.7	0.1	25.5574	3.0	955.0	3.16	Outcome2	0.21	13.7	0.0	No	2.0	13.489241223103098	0.771	295.783		GetAnswer	Loss
73.0	3	295.797	0.014	1377.526	13.7	0.1	25.5574	4.0	955.0	3.16	Outcome2	0.21	13.7	0.0	No		13.489241223103098				ShowChoice	Loss
73.0	3	299.826	0.029	1381.555	13.7	0.1	25.5574	1.0	955.0	3.16	Outcome2	0.21	13.7	0.0	No		13.489241223103098				ShowResult	Loss
73.0	3	300.846	0.02	1382.575	13.7	0.1	25.5574	4.616	955.0	3.16	Outcome2	0.21	13.7	0.0	No		13.489241223103098				ISITrial	Loss
74.0	3	305.493	0.031	1387.222	-6.0	-6.0	24.8074	3.0	955.0	0.3	Certain	-13.21	0.7	3056.25	Yes	4.0	13.9139297848245	0.853	306.346		GetAnswer	Mixed
74.0	3	306.362	0.016	1388.091	-6.0	-6.0	24.8074	4.0	955.0	0.3	Certain	-13.21	0.7	3056.25	Yes		13.9139297848245				ShowChoice	Mixed
74.0	3	310.391	0.029	1392.12	-6.0	-6.0	24.8074	1.0	955.0	0.3	Certain	-13.21	0.7	3056.25	Yes		13.9139297848245				ShowResult	Mixed
74.0	3	311.411	0.02	1393.14	-6.0	-6.0	24.8074	3.909	955.0	0.3	Certain	-13.21	0.7	3056.25	Yes		13.9139297848245				ISITrial	Mixed
74.0	3	318.415	0.02	1400.144	-6.0	-6.0	24.8074	0.605	955.0	0.3	Certain	-13.21	0.7	3056.25	Yes		13.9139297848245			492.0	TrialHappiness	Mixed
74.0	3	322.444	4.029	1404.173	-6.0	-6.0	24.8074	4.225	955.0	0.3	Certain	-13.21	0.7	3056.25	Yes		13.9139297848245				ISIRate	Mixed
75.0	3	326.69	0.021	1408.419	-3.0	-3.0	24.4324	3.0	955.0	1.68	Certain	-11.33	4.5	0.0	No	4.0	15.8335220838052	0.971	327.661		GetAnswer	Gain
75.0	3	327.676	0.015	1409.405	-3.0	-3.0	24.4324	4.0	955.0	1.68	Certain	-11.33	4.5	0.0	No		15.8335220838052				ShowChoice	Gain
75.0	3	331.705	0.029	1413.434	-3.0	-3.0	24.4324	1.0	955.0	1.68	Certain	-11.33	4.5	0.0	No		15.8335220838052				ShowResult	Gain
75.0	3	332.724	0.019	1414.453	-3.0	-3.0	24.4324	4.979	955.0	1.68	Certain	-11.33	4.5	0.0	No		15.8335220838052				ISITrial	Gain
76.0	3	337.723	0.02	1419.452	-6.0	-6.0	23.6824	3.0	955.0	1.5	Certain	2.1	-14.26	0.0	No	4.0	16.357870894677202	1.35	339.073		GetAnswer	Mixed
76.0	3	339.094	0.021	1420.823	-6.0	-6.0	23.6824	4.0	955.0	1.5	Certain	2.1	-14.26	0.0	No		16.357870894677202				ShowChoice	Mixed
76.0	3	343.122	0.028	1424.851	-6.0	-6.0	23.6824	1.0	955.0	1.5	Certain	2.1	-14.26	0.0	No		16.357870894677202				ShowResult	Mixed
76.0	3	344.142	0.02	1425.871	-6.0	-6.0	23.6824	3.931	955.0	1.5	Certain	2.1	-14.26	0.0	No		16.357870894677202				ISITrial	Mixed
77.0	3	348.104	0.031	1429.833	-7.0	-7.0	22.8074	3.0	955.0	0.52	Certain	1.1	-15.78	4000.0	Yes	4.0	16.8822197055493	1.093	349.197		GetAnswer	Mixed
77.0	3	349.224	0.027	1430.953	-7.0	-7.0	22.8074	4.0	955.0	0.52	Certain	1.1	-15.78	4000.0	Yes		16.8822197055493				ShowChoice	Mixed
77.0	3	353.253	0.029	1434.982	-7.0	-7.0	22.8074	1.0	955.0	0.52	Certain	1.1	-15.78	4000.0	Yes		16.8822197055493				ShowResult	Mixed
77.0	3	354.272	0.019	1436.001	-7.0	-7.0	22.8074	7.022	955.0	0.52	Certain	1.1	-15.78	4000.0	Yes		16.8822197055493				ISITrial	Mixed
77.0	3	365.339	0.029	1447.068	-7.0	-7.0	22.8074	2.713	955.0	0.52	Certain	1.1	-15.78	4000.0	Yes		16.8822197055493			272.0	TrialHappiness	Mixed
77.0	3	369.367	4.028	1451.096	-7.0	-7.0	22.8074	8.0	955.0	0.52	Certain	1.1	-15.78	4000.0	Yes		16.8822197055493				ISIRate	Mixed
78.0	3	377.391	0.024	1459.12	5.73	2.86	23.5237	3.0	955.0	2.48	Outcome1	5.73	9.3	0.0	No	2.0	-3.56681766704417	0.739	378.13		GetAnswer	Gain
78.0	3	378.16	0.03	1459.889	5.73	2.86	23.5237	4.0	955.0	2.48	Outcome1	5.73	9.3	0.0	No		-3.56681766704417				ShowChoice	Gain
78.0	3	382.189	0.029	1463.918	5.73	2.86	23.5237	1.0	955.0	2.48	Outcome1	5.73	9.3	0.0	No		-3.56681766704417				ShowResult	Gain
78.0	3	383.209	0.02	1464.938	5.73	2.86	23.5237	2.078	955.0	2.48	Outcome1	5.73	9.3	0.0	No		-3.56681766704417				ISITrial	Gain
79.0	3	385.315	0.028	1467.044	-7.0	-7.0	22.6487	3.0	955.0	0.66	Certain	-18.62	3.3	2729.5	Yes	4.0	21.9173272933182	1.009	386.324		GetAnswer	Mixed
79.0	3	386.351	0.027	1468.08	-7.0	-7.0	22.6487	4.0	955.0	0.66	Certain	-18.62	3.3	2729.5	Yes		21.9173272933182				ShowChoice	Mixed
79.0	3	390.363	0.012	1472.092	-7.0	-7.0	22.6487	1.0	955.0	0.66	Certain	-18.62	3.3	2729.5	Yes		21.9173272933182				ShowResult	Mixed
79.0	3	391.383	0.02	1473.112	-7.0	-7.0	22.6487	3.829	955.0	0.66	Certain	-18.62	3.3	2729.5	Yes		21.9173272933182				ISITrial	Mixed
79.0	3	397.986	0.028	1479.715	-7.0	-7.0	22.6487	2.732	955.0	0.66	Certain	-18.62	3.3	2729.5	Yes		21.9173272933182			392.0	TrialHappiness	Mixed
79.0	3	402.015	4.029	1483.744	-7.0	-7.0	22.6487	2.918	955.0	0.66	Certain	-18.62	3.3	2729.5	Yes		21.9173272933182				ISIRate	Mixed
80.0	3	404.957	0.024	1486.686	10.7	0.0	23.9862	3.0	955.0	1.82	Outcome2	-9.95	10.7	0.0	No	2.0	20.652321630804103	1.161	406.118		GetAnswer	Loss
80.0	3	406.144	0.026	1487.873	10.7	0.0	23.9862	4.0	955.0	1.82	Outcome2	-9.95	10.7	0.0	No		20.652321630804103				ShowChoice	Loss
80.0	3	410.173	0.029	1491.902	10.7	0.0	23.9862	1.0	955.0	1.82	Outcome2	-9.95	10.7	0.0	No		20.652321630804103				ShowResult	Loss
80.0	3	411.192	0.019	1492.921	10.7	0.0	23.9862	3.336	955.0	1.82	Outcome2	-9.95	10.7	0.0	No		20.652321630804103				ISITrial	Loss
81.0	3	414.552	0.024	1496.281	1.0	1.0	24.1112	3.0	955.0	4.2	Certain	-9.19	12.1	3923.75	Yes	4.0	21.2899207248018	1.037	415.589		GetAnswer	Loss
81.0	3	415.606	0.017	1497.335	1.0	1.0	24.1112	4.0	955.0	4.2	Certain	-9.19	12.1	3923.75	Yes		21.2899207248018				ShowChoice	Loss
81.0	3	419.634	0.028	1501.363	1.0	1.0	24.1112	1.0	955.0	4.2	Certain	-9.19	12.1	3923.75	Yes		21.2899207248018				ShowResult	Loss
81.0	3	420.654	0.02	1502.383	1.0	1.0	24.1112	3.919	955.0	4.2	Certain	-9.19	12.1	3923.75	Yes		21.2899207248018				ISITrial	Loss
81.0	3	428.544	0.021	1510.273	1.0	1.0	24.1112	2.341	955.0	4.2	Certain	-9.19	12.1	3923.75	Yes		21.2899207248018			632.0	TrialHappiness	Loss
81.0	3	432.573	4.029	1514.302	1.0	1.0	24.1112	7.695	955.0	4.2	Certain	-9.19	12.1	3923.75	Yes		21.2899207248018				ISIRate	Loss
	3	440.296	0.028	1522.025				3.0													CurrentEarnings	
	3	443.322	0.026	1525.051				-0.001								{SPACE}		6.528	449.85		Goodbye	
