trial_number	block	onset	onset_delay	onset_unadjusted	amount_change	certain_amount	current_amount	duration	mood_target	multiplier	outcome	outcome1_amount	outcome2_amount	question_duration	rating	response	rpe	rt	rt_time	slider_response	trial_phase	trial_type
	0	-49.313	0.039	27.394				-0.001								{SPACE}		7.097	-42.216		Welcome	
	0	-42.183	0.032	34.524				5.0													LifeHappyPreview	
	0	-37.151	0.032	39.556				4.622												392.0	LifeHappiness	
	0	-18.074	0.03	58.633				4.0													BlockHappyPreview	
	0	-14.059	0.015	62.648				2.97												952.0	BlockStartHappiness	
	0	-6.012	0.028	70.695				-0.001								5.0					ScanWait	
	1	0.019	0.019	76.726				10.0													GetReady	
1.0	1	10.049	0.03	86.756	6.9	3.42	10.8625	3.0	955.0	2.0	Outcome2	6.85	6.9	0.0	No		0.0509626274065685				GetAnswer	Gain
1.0	1	13.065	0.016	89.772	6.9	3.42	10.8625	4.0	955.0	2.0	Outcome2	6.85	6.9	0.0	No		0.0509626274065685				ShowChoice	Gain
1.0	1	17.08	0.015	93.787	6.9	3.42	10.8625	1.0	955.0	2.0	Outcome2	6.85	6.9	0.0	No		0.0509626274065685				ShowResult	Gain
1.0	1	18.096	0.016	94.803	6.9	3.42	10.8625	2.431	955.0	2.0	Outcome2	6.85	6.9	0.0	No		0.0509626274065685				ISITrial	Gain
2.0	1	20.545	0.018	97.252	6.3	3.12	11.65	3.0	955.0	5.0	Outcome1	6.3	6.25	0.0	No		0.0543601359003398				GetAnswer	Gain
2.0	1	23.561	0.016	100.268	6.3	3.12	11.65	4.0	955.0	5.0	Outcome1	6.3	6.25	0.0	No		0.0543601359003398				ShowChoice	Gain
2.0	1	27.576	0.015	104.283	6.3	3.12	11.65	1.0	955.0	5.0	Outcome1	6.3	6.25	0.0	No		0.0543601359003398				ShowResult	Gain
2.0	1	28.593	0.017	105.3	6.3	3.12	11.65	4.568	955.0	5.0	Outcome1	6.3	6.25	0.0	No		0.0543601359003398				ISITrial	Gain
3.0	1	33.191	0.03	109.898	5.3	2.62	12.3125	3.0	955.0	2.48	Outcome2	5.24	5.3	2868.0	Yes	2.0	0.05775764439411099	1.264	34.455		GetAnswer	Gain
3.0	1	34.474	0.019	111.181	5.3	2.62	12.3125	4.0	955.0	2.48	Outcome2	5.24	5.3	2868.0	Yes		0.05775764439411099				ShowChoice	Gain
3.0	1	38.489	0.015	115.196	5.3	2.62	12.3125	1.0	955.0	2.48	Outcome2	5.24	5.3	2868.0	Yes		0.05775764439411099				ShowResult	Gain
3.0	1	39.506	0.017	116.213	5.3	2.62	12.3125	3.243	955.0	2.48	Outcome2	5.24	5.3	2868.0	Yes		0.05775764439411099				ISITrial	Gain
3.0	1	45.67	0.031	122.377	5.3	2.62	12.3125	2.839	955.0	2.48	Outcome2	5.24	5.3	2868.0	Yes		0.05775764439411099			952.0	TrialHappiness	Gain
3.0	1	49.685	4.015	126.392	5.3	2.62	12.3125	3.472	955.0	2.48	Outcome2	5.24	5.3	2868.0	Yes		0.05775764439411099				ISIRate	Gain
4.0	1	53.184	0.027	129.891	5.49	2.74	12.9987	3.0	955.0	2.8	Outcome2	5.5	5.49	0.0	No	2.0	-0.0130237825594564	1.069	54.253		GetAnswer	Gain
4.0	1	54.267	0.014	130.974	5.49	2.74	12.9987	4.0	955.0	2.8	Outcome2	5.5	5.49	0.0	No		-0.0130237825594564				ShowChoice	Gain
4.0	1	58.282	0.015	134.989	5.49	2.74	12.9987	1.0	955.0	2.8	Outcome2	5.5	5.49	0.0	No		-0.0130237825594564				ShowResult	Gain
4.0	1	59.299	0.017	136.006	5.49	2.74	12.9987	2.011	955.0	2.8	Outcome2	5.5	5.49	0.0	No		-0.0130237825594564				ISITrial	Gain
5.0	1	61.331	0.021	138.038	3.69	1.84	13.46	3.0	955.0	1.0	Outcome1	3.69	3.7	2582.5	Yes	2.0	-0.0133069082672707	0.716	62.047		GetAnswer	Mixed
5.0	1	62.064	0.017	138.771	3.69	1.84	13.46	4.0	955.0	1.0	Outcome1	3.69	3.7	2582.5	Yes		-0.0133069082672707				ShowChoice	Mixed
5.0	1	66.08	0.016	142.787	3.69	1.84	13.46	1.0	955.0	1.0	Outcome1	3.69	3.7	2582.5	Yes		-0.0133069082672707				ShowResult	Mixed
5.0	1	67.096	0.016	143.803	3.69	1.84	13.46	5.129	955.0	1.0	Outcome1	3.69	3.7	2582.5	Yes		-0.0133069082672707				ISITrial	Mixed
5.0	1	74.843	0.017	151.55	3.69	1.84	13.46	3.371	955.0	1.0	Outcome1	3.69	3.7	2582.5	Yes		-0.0133069082672707			780.0	TrialHappiness	Mixed
5.0	1	78.858	4.015	155.565	3.69	1.84	13.46	2.33	955.0	1.0	Outcome1	3.69	3.7	2582.5	Yes		-0.0133069082672707				ISIRate	Mixed
6.0	1	81.208	0.02	157.915	9.99	5.0	14.7088	3.0	955.0	1.82	Outcome1	9.99	10.7	0.0	No	2.0	-0.711589278973197	0.735	81.943		GetAnswer	Loss
6.0	1	81.957	0.014	158.664	9.99	5.0	14.7088	4.0	955.0	1.82	Outcome1	9.99	10.7	0.0	No		-0.711589278973197				ShowChoice	Loss
6.0	1	85.973	0.016	162.68	9.99	5.0	14.7088	1.0	955.0	1.82	Outcome1	9.99	10.7	0.0	No		-0.711589278973197				ShowResult	Loss
6.0	1	86.989	0.016	163.696	9.99	5.0	14.7088	6.232	955.0	1.82	Outcome1	9.99	10.7	0.0	No		-0.711589278973197				ISITrial	Loss
7.0	1	93.237	0.016	169.944	9.5	3.16	15.8963	3.0	955.0	2.8	Outcome2	6.31	9.5	0.0	No		3.18799546998868				GetAnswer	Gain
7.0	1	96.252	0.015	172.959	9.5	3.16	15.8963	4.0	955.0	2.8	Outcome2	6.31	9.5	0.0	No		3.18799546998868				ShowChoice	Gain
7.0	1	100.268	0.016	176.975	9.5	3.16	15.8963	1.0	955.0	2.8	Outcome2	6.31	9.5	0.0	No		3.18799546998868				ShowResult	Gain
7.0	1	101.284	0.016	177.991	9.5	3.16	15.8963	2.305	955.0	2.8	Outcome2	6.31	9.5	0.0	No		3.18799546998868				ISITrial	Gain
8.0	1	103.617	0.028	180.324	6.76	3.38	16.7413	3.0	955.0	2.8	Outcome2	7.5	6.76	3112.5	Yes		-0.744620611551529				GetAnswer	Gain
8.0	1	106.632	0.015	183.339	6.76	3.38	16.7413	4.0	955.0	2.8	Outcome2	7.5	6.76	3112.5	Yes		-0.744620611551529				ShowChoice	Gain
8.0	1	110.647	0.015	187.354	6.76	3.38	16.7413	1.0	955.0	2.8	Outcome2	7.5	6.76	3112.5	Yes		-0.744620611551529				ShowResult	Gain
8.0	1	111.664	0.017	188.371	6.76	3.38	16.7413	3.506	955.0	2.8	Outcome2	7.5	6.76	3112.5	Yes		-0.744620611551529				ISITrial	Gain
8.0	1	118.328	0.02	195.035	6.76	3.38	16.7413	3.439	955.0	2.8	Outcome2	7.5	6.76	3112.5	Yes	2{-2}2{-2}2{-2}2{-2}2{-2}2{-2}2{-2}2{-2}2{-2}	-0.744620611551529	3.439	121.767	808.0	TrialHappiness	Gain
8.0	1	122.343	4.015	199.05	6.76	3.38	16.7413	4.45	955.0	2.8	Outcome2	7.5	6.76	3112.5	Yes		-0.744620611551529				ISIRate	Gain
9.0	1	126.808	0.015	203.515	10.1	3.5	18.0038	3.0	955.0	4.2	Outcome1	10.1	6.99	0.0	No	2.0	3.10872027180068	1.378	128.186		GetAnswer	Gain
9.0	1	128.208	0.022	204.915	10.1	3.5	18.0038	4.0	955.0	4.2	Outcome1	10.1	6.99	0.0	No		3.10872027180068				ShowChoice	Gain
9.0	1	132.223	0.015	208.93	10.1	3.5	18.0038	1.0	955.0	4.2	Outcome1	10.1	6.99	0.0	No		3.10872027180068				ShowResult	Gain
9.0	1	133.24	0.017	209.947	10.1	3.5	18.0038	2.0	955.0	4.2	Outcome1	10.1	6.99	0.0	No		3.10872027180068				ISITrial	Gain
10.0	1	135.255	0.015	211.962	11.5	4.11	19.4413	3.0	955.0	2.8	Outcome2	8.22	11.5	4000.0	Yes		3.2751981879954704				GetAnswer	Loss
10.0	1	138.271	0.016	214.978	11.5	4.11	19.4413	4.0	955.0	2.8	Outcome2	8.22	11.5	4000.0	Yes		3.2751981879954704				ShowChoice	Loss
10.0	1	142.286	0.015	218.993	11.5	4.11	19.4413	1.0	955.0	2.8	Outcome2	8.22	11.5	4000.0	Yes		3.2751981879954704				ShowResult	Loss
10.0	1	143.303	0.017	220.01	11.5	4.11	19.4413	2.0	955.0	2.8	Outcome2	8.22	11.5	4000.0	Yes		3.2751981879954704				ISITrial	Loss
10.0	1	149.334	0.015	226.041	11.5	4.11	19.4413	2.289	955.0	2.8	Outcome2	8.22	11.5	4000.0	Yes		3.2751981879954704			952.0	TrialHappiness	Loss
10.0	1	153.349	4.015	230.056	11.5	4.11	19.4413	8.0	955.0	2.8	Outcome2	8.22	11.5	4000.0	Yes		3.2751981879954704				ISIRate	Loss
11.0	1	161.38	0.031	238.087	5.55	5.55	20.1351	3.0	955.0	4.2	Certain	11.1	12.1	0.0	No	4.0	0.995469988674972	1.508	162.888		GetAnswer	Loss
11.0	1	162.912	0.024	239.619	5.55	5.55	20.1351	4.0	955.0	4.2	Certain	11.1	12.1	0.0	No		0.995469988674972				ShowChoice	Loss
11.0	1	166.928	0.016	243.635	5.55	5.55	20.1351	1.0	955.0	4.2	Certain	11.1	12.1	0.0	No		0.995469988674972				ShowResult	Loss
11.0	1	167.944	0.016	244.651	5.55	5.55	20.1351	3.324	955.0	4.2	Certain	11.1	12.1	0.0	No		0.995469988674972				ISITrial	Loss
12.0	1	171.293	0.025	248.0	13.1	6.05	21.7726	3.0	955.0	2.22	Outcome2	12.1	13.1	2618.75	Yes	2.0	0.9988674971687429	0.776	172.069		GetAnswer	Loss
12.0	1	172.093	0.024	248.8	13.1	6.05	21.7726	4.0	955.0	2.22	Outcome2	12.1	13.1	2618.75	Yes		0.9988674971687429				ShowChoice	Loss
12.0	1	176.108	0.015	252.815	13.1	6.05	21.7726	1.0	955.0	2.22	Outcome2	12.1	13.1	2618.75	Yes		0.9988674971687429				ShowResult	Loss
12.0	1	177.124	0.016	253.831	13.1	6.05	21.7726	6.642	955.0	2.22	Outcome2	12.1	13.1	2618.75	Yes		0.9988674971687429				ISITrial	Loss
12.0	1	186.438	0.03	263.145	13.1	6.05	21.7726	1.754	955.0	2.22	Outcome2	12.1	13.1	2618.75	Yes		0.9988674971687429			952.0	TrialHappiness	Loss
12.0	1	190.453	4.015	267.16	13.1	6.05	21.7726	2.475	955.0	2.22	Outcome2	12.1	13.1	2618.75	Yes		0.9988674971687429				ISIRate	Loss
13.0	1	192.952	0.024	269.659	-1.1	-1.0	21.6351	3.0	955.0	0.4	Outcome2	-2.1	-1.1	0.0	No	2.0	1.00226500566251	1.932	194.884		GetAnswer	Mixed
13.0	1	194.901	0.017	271.608	-1.1	-1.0	21.6351	4.0	955.0	0.4	Outcome2	-2.1	-1.1	0.0	No		1.00226500566251				ShowChoice	Mixed
13.0	1	198.917	0.016	275.624	-1.1	-1.0	21.6351	1.0	955.0	0.4	Outcome2	-2.1	-1.1	0.0	No		1.00226500566251				ShowResult	Mixed
13.0	1	199.933	0.016	276.64	-1.1	-1.0	21.6351	3.48	955.0	0.4	Outcome2	-2.1	-1.1	0.0	No		1.00226500566251				ISITrial	Mixed
14.0	1	203.432	0.019	280.139	11.7	5.34	23.0976	3.0	955.0	3.16	Outcome1	11.7	10.69	0.0	No		1.00566251415629				GetAnswer	Loss
14.0	1	206.447	0.015	283.154	11.7	5.34	23.0976	4.0	955.0	3.16	Outcome1	11.7	10.69	0.0	No		1.00566251415629				ShowChoice	Loss
14.0	1	210.463	0.016	287.17	11.7	5.34	23.0976	1.0	955.0	3.16	Outcome1	11.7	10.69	0.0	No		1.00566251415629				ShowResult	Loss
14.0	1	211.479	0.016	288.186	11.7	5.34	23.0976	5.019	955.0	3.16	Outcome1	11.7	10.69	0.0	No		1.00566251415629				ISITrial	Loss
15.0	1	216.527	0.029	293.234	1.7	1.0	23.3101	3.0	955.0	1.0	Outcome1	1.7	0.69	3348.5	Yes	2.0	1.0090600226500601	0.279	216.806		GetAnswer	Mixed
15.0	1	216.827	0.021	293.534	1.7	1.0	23.3101	4.0	955.0	1.0	Outcome1	1.7	0.69	3348.5	Yes		1.0090600226500601				ShowChoice	Mixed
15.0	1	220.842	0.015	297.549	1.7	1.0	23.3101	1.0	955.0	1.0	Outcome1	1.7	0.69	3348.5	Yes		1.0090600226500601				ShowResult	Mixed
15.0	1	221.859	0.017	298.566	1.7	1.0	23.3101	7.614	955.0	1.0	Outcome1	1.7	0.69	3348.5	Yes		1.0090600226500601				ISITrial	Mixed
15.0	1	232.855	0.018	309.562	1.7	1.0	23.3101	2.739	955.0	1.0	Outcome1	1.7	0.69	3348.5	Yes		1.0090600226500601			952.0	TrialHappiness	Mixed
15.0	1	236.87	4.015	313.577	1.7	1.0	23.3101	5.394	955.0	1.0	Outcome1	1.7	0.69	3348.5	Yes		1.0090600226500601				ISIRate	Mixed
16.0	1	242.285	0.021	318.992	3.9	1.44	23.7976	3.0	955.0	1.2	Outcome2	2.89	3.9	0.0	No		1.01245753114383				GetAnswer	Mixed
16.0	1	245.3	0.015	322.007	3.9	1.44	23.7976	4.0	955.0	1.2	Outcome2	2.89	3.9	0.0	No		1.01245753114383				ShowChoice	Mixed
16.0	1	249.316	0.016	326.023	3.9	1.44	23.7976	1.0	955.0	1.2	Outcome2	2.89	3.9	0.0	No		1.01245753114383				ShowResult	Mixed
16.0	1	250.332	0.016	327.039	3.9	1.44	23.7976	3.008	955.0	1.2	Outcome2	2.89	3.9	0.0	No		1.01245753114383				ISITrial	Mixed
17.0	1	253.364	0.024	330.071	10.3	4.64	25.0851	3.0	955.0	5.0	Outcome2	9.28	10.3	3041.5	Yes		1.0158550396376				GetAnswer	Gain
17.0	1	256.38	0.016	333.087	10.3	4.64	25.0851	4.0	955.0	5.0	Outcome2	9.28	10.3	3041.5	Yes		1.0158550396376				ShowChoice	Gain
17.0	1	260.395	0.015	337.102	10.3	4.64	25.0851	1.0	955.0	5.0	Outcome2	9.28	10.3	3041.5	Yes		1.0158550396376				ShowResult	Gain
17.0	1	261.411	0.016	338.118	10.3	4.64	25.0851	3.566	955.0	5.0	Outcome2	9.28	10.3	3041.5	Yes		1.0158550396376				ISITrial	Gain
17.0	1	268.059	0.023	344.766	10.3	4.64	25.0851	1.805	955.0	5.0	Outcome2	9.28	10.3	3041.5	Yes		1.0158550396376			952.0	TrialHappiness	Gain
17.0	1	272.074	4.015	348.781	10.3	4.64	25.0851	4.166	955.0	5.0	Outcome2	9.28	10.3	3041.5	Yes		1.0158550396376				ISIRate	Gain
18.0	1	276.273	0.033	352.98	10.81	5.4	26.4363	3.0	955.0	2.0	Outcome1	10.81	10.9	0.0	No		-0.0928652321630804				GetAnswer	Loss
18.0	1	279.289	0.016	355.996	10.81	5.4	26.4363	4.0	955.0	2.0	Outcome1	10.81	10.9	0.0	No		-0.0928652321630804				ShowChoice	Loss
18.0	1	283.304	0.015	360.011	10.81	5.4	26.4363	1.0	955.0	2.0	Outcome1	10.81	10.9	0.0	No		-0.0928652321630804				ShowResult	Loss
18.0	1	284.32	0.016	361.027	10.81	5.4	26.4363	6.787	955.0	2.0	Outcome1	10.81	10.9	0.0	No		-0.0928652321630804				ISITrial	Loss
19.0	1	291.134	0.027	367.841	13.7	6.34	28.1488	3.0	955.0	3.16	Outcome2	12.68	13.7	0.0	No		1.02265005662514				GetAnswer	Loss
19.0	1	294.15	0.016	370.857	13.7	6.34	28.1488	4.0	955.0	3.16	Outcome2	12.68	13.7	0.0	No		1.02265005662514				ShowChoice	Loss
19.0	1	298.165	0.015	374.872	13.7	6.34	28.1488	1.0	955.0	3.16	Outcome2	12.68	13.7	0.0	No		1.02265005662514				ShowResult	Loss
19.0	1	299.182	0.017	375.889	13.7	6.34	28.1488	2.0	955.0	3.16	Outcome2	12.68	13.7	0.0	No		1.02265005662514				ISITrial	Loss
20.0	1	301.214	0.032	377.921	11.01	5.5	29.525	3.0	955.0	2.22	Outcome2	11.1	11.01	2921.25	Yes		-0.0934314835787089				GetAnswer	Loss
20.0	1	304.23	0.016	380.937	11.01	5.5	29.525	4.0	955.0	2.22	Outcome2	11.1	11.01	2921.25	Yes		-0.0934314835787089				ShowChoice	Loss
20.0	1	308.245	0.015	384.952	11.01	5.5	29.525	1.0	955.0	2.22	Outcome2	11.1	11.01	2921.25	Yes		-0.0934314835787089				ShowResult	Loss
20.0	1	309.261	0.016	385.968	11.01	5.5	29.525	8.0	955.0	2.22	Outcome2	11.1	11.01	2921.25	Yes		-0.0934314835787089				ISITrial	Loss
20.0	1	320.224	0.028	396.931	11.01	5.5	29.525	1.656	955.0	2.22	Outcome2	11.1	11.01	2921.25	Yes		-0.0934314835787089			952.0	TrialHappiness	Loss
20.0	1	324.24	4.016	400.947	11.01	5.5	29.525	3.685	955.0	2.22	Outcome2	11.1	11.01	2921.25	Yes		-0.0934314835787089				ISIRate	Loss
21.0	1	327.955	0.03	404.662	5.9	2.44	30.2625	3.0	955.0	3.6	Outcome2	4.87	5.9	0.0	No		1.02944507361268				GetAnswer	Gain
21.0	1	330.971	0.016	407.678	5.9	2.44	30.2625	4.0	955.0	3.6	Outcome2	4.87	5.9	0.0	No		1.02944507361268				ShowChoice	Gain
21.0	1	334.986	0.015	411.693	5.9	2.44	30.2625	1.0	955.0	3.6	Outcome2	4.87	5.9	0.0	No		1.02944507361268				ShowResult	Gain
21.0	1	336.002	0.016	412.709	5.9	2.44	30.2625	3.555	955.0	3.6	Outcome2	4.87	5.9	0.0	No		1.02944507361268				ISITrial	Gain
22.0	1	339.584	0.027	416.291	9.9	4.43	31.5	3.0	955.0	3.6	Outcome1	9.9	8.87	3219.5	Yes		1.03284258210645				GetAnswer	Gain
22.0	1	342.6	0.016	419.307	9.9	4.43	31.5	4.0	955.0	3.6	Outcome1	9.9	8.87	3219.5	Yes		1.03284258210645				ShowChoice	Gain
22.0	1	346.615	0.015	423.322	9.9	4.43	31.5	1.0	955.0	3.6	Outcome1	9.9	8.87	3219.5	Yes		1.03284258210645				ShowResult	Gain
22.0	1	347.631	0.016	424.338	9.9	4.43	31.5	6.793	955.0	3.6	Outcome1	9.9	8.87	3219.5	Yes		1.03284258210645				ISITrial	Gain
22.0	1	357.695	0.029	434.402	9.9	4.43	31.5	1.705	955.0	3.6	Outcome1	9.9	8.87	3219.5	Yes		1.03284258210645			952.0	TrialHappiness	Gain
22.0	1	361.71	4.015	438.417	9.9	4.43	31.5	4.878	955.0	3.6	Outcome1	9.9	8.87	3219.5	Yes		1.03284258210645				ISIRate	Gain
23.0	1	366.608	0.02	443.315	-0.5	-1.0	31.4375	3.0	955.0	0.82	Outcome1	-0.5	-1.54	0.0	No		1.03624009060023				GetAnswer	Mixed
23.0	1	369.624	0.016	446.331	-0.5	-1.0	31.4375	4.0	955.0	0.82	Outcome1	-0.5	-1.54	0.0	No		1.03624009060023				ShowChoice	Mixed
23.0	1	373.639	0.015	450.346	-0.5	-1.0	31.4375	1.0	955.0	0.82	Outcome1	-0.5	-1.54	0.0	No		1.03624009060023				ShowResult	Mixed
23.0	1	374.655	0.016	451.362	-0.5	-1.0	31.4375	8.0	955.0	0.82	Outcome1	-0.5	-1.54	0.0	No		1.03624009060023				ISITrial	Mixed
24.0	1	382.686	0.031	459.393	3.1	2.0	31.825	3.0	955.0	0.52	Outcome1	3.1	2.06	3255.0	Yes		1.039637599094				GetAnswer	Mixed
24.0	1	385.701	0.015	462.408	3.1	2.0	31.825	4.0	955.0	0.52	Outcome1	3.1	2.06	3255.0	Yes		1.039637599094				ShowChoice	Mixed
24.0	1	389.717	0.016	466.424	3.1	2.0	31.825	1.0	955.0	0.52	Outcome1	3.1	2.06	3255.0	Yes		1.039637599094				ShowResult	Mixed
24.0	1	390.733	0.016	467.44	3.1	2.0	31.825	2.0	955.0	0.52	Outcome1	3.1	2.06	3255.0	Yes		1.039637599094				ISITrial	Mixed
24.0	1	396.031	0.027	472.738	3.1	2.0	31.825	1.622	955.0	0.52	Outcome1	3.1	2.06	3255.0	Yes	2{-2}	1.039637599094	1.622	397.653	952.0	TrialHappiness	Mixed
24.0	1	400.046	4.015	476.753	3.1	2.0	31.825	5.02	955.0	0.52	Outcome1	3.1	2.06	3255.0	Yes		1.039637599094				ISIRate	Mixed
25.0	1	405.095	0.029	481.802	-0.9	-1.0	31.7125	3.0	955.0	0.52	Outcome2	-1.94	-0.9	0.0	No		1.0430351075877702				GetAnswer	Mixed
25.0	1	408.11	0.015	484.817	-0.9	-1.0	31.7125	4.0	955.0	0.52	Outcome2	-1.94	-0.9	0.0	No		1.0430351075877702				ShowChoice	Mixed
25.0	1	412.126	0.016	488.833	-0.9	-1.0	31.7125	1.0	955.0	0.52	Outcome2	-1.94	-0.9	0.0	No		1.0430351075877702				ShowResult	Mixed
25.0	1	413.142	0.016	489.849	-0.9	-1.0	31.7125	3.749	955.0	0.52	Outcome2	-1.94	-0.9	0.0	No		1.0430351075877702				ISITrial	Mixed
26.0	1	416.907	0.016	493.614	8.6	4.3	32.7875	3.0	955.0	1.82	Outcome2	8.7	8.6	0.0	No		-0.0951302378255945				GetAnswer	Gain
26.0	1	419.923	0.016	496.63	8.6	4.3	32.7875	4.0	955.0	1.82	Outcome2	8.7	8.6	0.0	No		-0.0951302378255945				ShowChoice	Gain
26.0	1	423.938	0.015	500.645	8.6	4.3	32.7875	1.0	955.0	1.82	Outcome2	8.7	8.6	0.0	No		-0.0951302378255945				ShowResult	Gain
26.0	1	424.954	0.016	501.661	8.6	4.3	32.7875	7.834	955.0	1.82	Outcome2	8.7	8.6	0.0	No		-0.0951302378255945				ISITrial	Gain
27.0	1	432.818	0.03	509.525	4.8	2.4	33.3875	3.0	955.0	2.0	Outcome2	4.9	4.8	2549.75	Yes		-0.0954133635334088				GetAnswer	Gain
27.0	1	435.834	0.016	512.541	4.8	2.4	33.3875	4.0	955.0	2.0	Outcome2	4.9	4.8	2549.75	Yes		-0.0954133635334088				ShowChoice	Gain
27.0	1	439.849	0.015	516.556	4.8	2.4	33.3875	1.0	955.0	2.0	Outcome2	4.9	4.8	2549.75	Yes		-0.0954133635334088				ShowResult	Gain
27.0	1	440.866	0.017	517.573	4.8	2.4	33.3875	4.225	955.0	2.0	Outcome2	4.9	4.8	2549.75	Yes		-0.0954133635334088				ISITrial	Gain
27.0	1	447.68	0.016	524.387	4.8	2.4	33.3875	3.822	955.0	2.0	Outcome2	4.9	4.8	2549.75	Yes		-0.0954133635334088			952.0	TrialHappiness	Gain
27.0	1	451.695	4.015	528.402	4.8	2.4	33.3875	2.199	955.0	2.0	Outcome2	4.9	4.8	2549.75	Yes		-0.0954133635334088				ISIRate	Gain
	1	453.911	0.017	530.618				-0.001								4		119.574	573.485		Rest	
	1	573.503	0.018	650.21				4.0													BlockHappyPreview	
	1	577.518	0.015	654.225				1.939												952.0	BlockStartHappiness	
	1	583.482	0.014	660.189				-0.001								5.0		7.781	591.263		ScanWait	
	2	0.017	0.017	667.987				10.0													GetReady	
28.0	2	10.047	0.03	678.017	-1.0	-1.0	33.2625	3.0	70.0	4.2	Certain	-8.9	6.1	0.0	No	4.0	-15.0	2.038	12.085		GetAnswer	Gain
28.0	2	12.096	0.011	680.066	-1.0	-1.0	33.2625	4.0	70.0	4.2	Certain	-8.9	6.1	0.0	No		-15.0				ShowChoice	Gain
28.0	2	16.111	0.015	684.081	-1.0	-1.0	33.2625	1.0	70.0	4.2	Certain	-8.9	6.1	0.0	No		-15.0				ShowResult	Gain
28.0	2	17.127	0.016	685.097	-1.0	-1.0	33.2625	3.575	70.0	4.2	Certain	-8.9	6.1	0.0	No		-15.0				ISITrial	Gain
29.0	2	20.726	0.024	688.696	-12.7	-4.0	31.675	3.0	70.0	0.66	Outcome2	3.3	-12.7	3529.0	Yes	2.0	-16.0	2.379	23.105		GetAnswer	Mixed
29.0	2	23.125	0.02	691.095	-12.7	-4.0	31.675	4.0	70.0	0.66	Outcome2	3.3	-12.7	3529.0	Yes		-16.0				ShowChoice	Mixed
29.0	2	27.141	0.016	695.111	-12.7	-4.0	31.675	1.0	70.0	0.66	Outcome2	3.3	-12.7	3529.0	Yes		-16.0				ShowResult	Mixed
29.0	2	28.157	0.016	696.127	-12.7	-4.0	31.675	3.955	70.0	0.66	Outcome2	3.3	-12.7	3529.0	Yes		-16.0				ISITrial	Mixed
29.0	2	35.688	0.02	703.658	-12.7	-4.0	31.675	1.023	70.0	0.66	Outcome2	3.3	-12.7	3529.0	Yes		-16.0			616.0	TrialHappiness	Mixed
29.0	2	39.703	4.015	707.673	-12.7	-4.0	31.675	6.116	70.0	0.66	Outcome2	3.3	-12.7	3529.0	Yes		-16.0				ISIRate	Mixed
30.0	2	45.851	0.032	713.821	1.21	0.6	31.8262	3.0	70.0	1.68	Outcome2	12.5	1.21	0.0	No	2.0	-11.285714285714299	2.021	47.872		GetAnswer	Loss
30.0	2	47.883	0.011	715.853	1.21	0.6	31.8262	4.0	70.0	1.68	Outcome2	12.5	1.21	0.0	No		-11.285714285714299				ShowChoice	Loss
30.0	2	51.899	0.016	719.869	1.21	0.6	31.8262	1.0	70.0	1.68	Outcome2	12.5	1.21	0.0	No		-11.285714285714299				ShowResult	Loss
30.0	2	52.915	0.016	720.885	1.21	0.6	31.8262	4.453	70.0	1.68	Outcome2	12.5	1.21	0.0	No		-11.285714285714299				ISITrial	Loss
31.0	2	57.397	0.029	725.367	-3.0	-3.0	31.4512	3.0	70.0	0.2	Certain	2.5	-9.4	2503.25	Yes	4.0	-11.904761904761902	2.232	59.629		GetAnswer	Mixed
31.0	2	59.646	0.017	727.616	-3.0	-3.0	31.4512	4.0	70.0	0.2	Certain	2.5	-9.4	2503.25	Yes		-11.904761904761902				ShowChoice	Mixed
31.0	2	63.661	0.015	731.631	-3.0	-3.0	31.4512	1.0	70.0	0.2	Certain	2.5	-9.4	2503.25	Yes		-11.904761904761902				ShowResult	Mixed
31.0	2	64.677	0.016	732.647	-3.0	-3.0	31.4512	4.786	70.0	0.2	Certain	2.5	-9.4	2503.25	Yes		-11.904761904761902				ISITrial	Mixed
31.0	2	72.008	0.029	739.978	-3.0	-3.0	31.4512	1.457	70.0	0.2	Certain	2.5	-9.4	2503.25	Yes		-11.904761904761902			616.0	TrialHappiness	Mixed
31.0	2	76.024	4.016	743.994	-3.0	-3.0	31.4512	2.013	70.0	0.2	Certain	2.5	-9.4	2503.25	Yes		-11.904761904761902				ISIRate	Mixed
32.0	2	78.056	0.019	746.026	-11.22	-5.0	30.0487	3.0	70.0	0.66	Outcome1	-11.22	1.3	0.0	No	2.0	-12.523809523809499	2.87	80.926		GetAnswer	Mixed
32.0	2	80.938	0.012	748.908	-11.22	-5.0	30.0487	4.0	70.0	0.66	Outcome1	-11.22	1.3	0.0	No		-12.523809523809499				ShowChoice	Mixed
32.0	2	84.954	0.016	752.924	-11.22	-5.0	30.0487	1.0	70.0	0.66	Outcome1	-11.22	1.3	0.0	No		-12.523809523809499				ShowResult	Mixed
32.0	2	85.97	0.016	753.94	-11.22	-5.0	30.0487	2.0	70.0	0.66	Outcome1	-11.22	1.3	0.0	No		-12.523809523809499				ISITrial	Mixed
33.0	2	87.986	0.016	755.956	-9.64	-3.0	28.8437	3.0	70.0	0.82	Outcome1	-9.64	3.5	0.0	No	2.0	-13.142857142857098	1.581	89.567		GetAnswer	Mixed
33.0	2	89.585	0.018	757.555	-9.64	-3.0	28.8437	4.0	70.0	0.82	Outcome1	-9.64	3.5	0.0	No		-13.142857142857098				ShowChoice	Mixed
33.0	2	93.601	0.016	761.571	-9.64	-3.0	28.8437	1.0	70.0	0.82	Outcome1	-9.64	3.5	0.0	No		-13.142857142857098				ShowResult	Mixed
33.0	2	94.617	0.016	762.587	-9.64	-3.0	28.8437	5.099	70.0	0.82	Outcome1	-9.64	3.5	0.0	No		-13.142857142857098				ISITrial	Mixed
34.0	2	99.749	0.033	767.719	-2.0	-2.0	28.5937	3.0	70.0	2.22	Certain	-8.66	5.1	3231.5	Yes	4.0	-13.7619047619048	1.275	101.024		GetAnswer	Gain
34.0	2	101.048	0.024	769.018	-2.0	-2.0	28.5937	4.0	70.0	2.22	Certain	-8.66	5.1	3231.5	Yes		-13.7619047619048				ShowChoice	Gain
34.0	2	105.063	0.015	773.033	-2.0	-2.0	28.5937	1.0	70.0	2.22	Certain	-8.66	5.1	3231.5	Yes		-13.7619047619048				ShowResult	Gain
34.0	2	106.08	0.017	774.05	-2.0	-2.0	28.5937	4.784	70.0	2.22	Certain	-8.66	5.1	3231.5	Yes		-13.7619047619048				ISITrial	Gain
34.0	2	114.127	0.017	782.097	-2.0	-2.0	28.5937	3.356	70.0	2.22	Certain	-8.66	5.1	3231.5	Yes		-13.7619047619048			680.0	TrialHappiness	Gain
34.0	2	118.142	4.015	786.112	-2.0	-2.0	28.5937	4.926	70.0	2.22	Certain	-8.66	5.1	3231.5	Yes		-13.7619047619048				ISIRate	Gain
35.0	2	123.09	0.022	791.06	1.82	0.0	28.8212	3.0	70.0	2.48	Outcome2	-1.08	1.82	0.0	No	2.0	2.90287226001512	1.392	124.482		GetAnswer	Gain
35.0	2	124.507	0.025	792.477	1.82	0.0	28.8212	4.0	70.0	2.48	Outcome2	-1.08	1.82	0.0	No		2.90287226001512				ShowChoice	Gain
35.0	2	128.522	0.015	796.492	1.82	0.0	28.8212	1.0	70.0	2.48	Outcome2	-1.08	1.82	0.0	No		2.90287226001512				ShowResult	Gain
35.0	2	129.538	0.016	797.508	1.82	0.0	28.8212	2.098	70.0	2.48	Outcome2	-1.08	1.82	0.0	No		2.90287226001512				ISITrial	Gain
36.0	2	131.654	0.018	799.624	-13.26	-5.0	27.1637	3.0	70.0	0.4	Outcome1	-13.26	2.9	3335.75	Yes	2.0	-16.1609977324263	2.552	134.206		GetAnswer	Mixed
36.0	2	134.22	0.014	802.19	-13.26	-5.0	27.1637	4.0	70.0	0.4	Outcome1	-13.26	2.9	3335.75	Yes		-16.1609977324263				ShowChoice	Mixed
36.0	2	138.235	0.015	806.205	-13.26	-5.0	27.1637	1.0	70.0	0.4	Outcome1	-13.26	2.9	3335.75	Yes		-16.1609977324263				ShowResult	Mixed
36.0	2	139.251	0.016	807.221	-13.26	-5.0	27.1637	5.156	70.0	0.4	Outcome1	-13.26	2.9	3335.75	Yes		-16.1609977324263				ISITrial	Mixed
36.0	2	147.798	0.029	815.768	-13.26	-5.0	27.1637	1.024	70.0	0.4	Outcome1	-13.26	2.9	3335.75	Yes		-16.1609977324263			592.0	TrialHappiness	Mixed
36.0	2	151.814	4.016	819.784	-13.26	-5.0	27.1637	5.343	70.0	0.4	Outcome1	-13.26	2.9	3335.75	Yes		-16.1609977324263				ISIRate	Mixed
37.0	2	157.179	0.022	825.149	0.68	0.0	27.2487	3.0	70.0	0.3	Outcome2	-1.98	0.68	0.0	No	2.0	2.6606198034769504	2.73	159.909		GetAnswer	Mixed
37.0	2	159.928	0.019	827.898	0.68	0.0	27.2487	4.0	70.0	0.3	Outcome2	-1.98	0.68	0.0	No		2.6606198034769504				ShowChoice	Mixed
37.0	2	163.943	0.015	831.913	0.68	0.0	27.2487	1.0	70.0	0.3	Outcome2	-1.98	0.68	0.0	No		2.6606198034769504				ShowResult	Mixed
37.0	2	164.959	0.016	832.929	0.68	0.0	27.2487	3.598	70.0	0.3	Outcome2	-1.98	0.68	0.0	No		2.6606198034769504				ISITrial	Mixed
38.0	2	168.575	0.018	836.545	-15.85	-8.0	25.2675	3.0	70.0	1.5	Outcome2	0.1	-15.85	0.0	No	2.0	-15.947845804988699	2.558	171.133		GetAnswer	Mixed
38.0	2	171.157	0.023	839.127	-15.85	-8.0	25.2675	4.0	70.0	1.5	Outcome2	0.1	-15.85	0.0	No		-15.947845804988699				ShowChoice	Mixed
38.0	2	175.172	0.015	843.142	-15.85	-8.0	25.2675	1.0	70.0	1.5	Outcome2	0.1	-15.85	0.0	No		-15.947845804988699				ShowResult	Mixed
38.0	2	176.189	0.017	844.159	-15.85	-8.0	25.2675	4.787	70.0	1.5	Outcome2	0.1	-15.85	0.0	No		-15.947845804988699				ISITrial	Mixed
39.0	2	181.004	0.028	848.974	0.0	0.0	25.2675	3.0	70.0	1.68	Certain	8.5	-8.04	2864.25	Yes	4.0	-16.5396825396825	1.616	182.62		GetAnswer	Gain
39.0	2	182.636	0.016	850.606	0.0	0.0	25.2675	4.0	70.0	1.68	Certain	8.5	-8.04	2864.25	Yes		-16.5396825396825				ShowChoice	Gain
39.0	2	186.652	0.016	854.622	0.0	0.0	25.2675	1.0	70.0	1.68	Certain	8.5	-8.04	2864.25	Yes		-16.5396825396825				ShowResult	Gain
39.0	2	187.668	0.016	855.638	0.0	0.0	25.2675	2.348	70.0	1.68	Certain	8.5	-8.04	2864.25	Yes		-16.5396825396825				ISITrial	Gain
39.0	2	192.916	0.018	860.886	0.0	0.0	25.2675	3.072	70.0	1.68	Certain	8.5	-8.04	2864.25	Yes		-16.5396825396825			584.0	TrialHappiness	Gain
39.0	2	196.931	4.015	864.901	0.0	0.0	25.2675	3.457	70.0	1.68	Certain	8.5	-8.04	2864.25	Yes		-16.5396825396825				ISIRate	Gain
40.0	2	200.413	0.025	868.383	-11.3	-3.0	23.855	3.0	70.0	3.16	Outcome2	5.7	-11.3	0.0	No	2.0	-16.9954648526077	2.585	202.998		GetAnswer	Gain
40.0	2	203.013	0.015	870.983	-11.3	-3.0	23.855	4.0	70.0	3.16	Outcome2	5.7	-11.3	0.0	No		-16.9954648526077				ShowChoice	Gain
40.0	2	207.028	0.015	874.998	-11.3	-3.0	23.855	1.0	70.0	3.16	Outcome2	5.7	-11.3	0.0	No		-16.9954648526077				ShowResult	Gain
40.0	2	208.044	0.016	876.014	-11.3	-3.0	23.855	3.158	70.0	3.16	Outcome2	5.7	-11.3	0.0	No		-16.9954648526077				ISITrial	Gain
41.0	2	211.226	0.024	879.196	-15.68	-7.0	21.895	3.0	70.0	1.2	Outcome2	1.9	-15.68	4000.0	Yes		-17.578231292517				GetAnswer	Mixed
41.0	2	214.242	0.016	882.212	-15.68	-7.0	21.895	4.0	70.0	1.2	Outcome2	1.9	-15.68	4000.0	Yes		-17.578231292517				ShowChoice	Mixed
41.0	2	218.257	0.015	886.227	-15.68	-7.0	21.895	1.0	70.0	1.2	Outcome2	1.9	-15.68	4000.0	Yes		-17.578231292517				ShowResult	Mixed
41.0	2	219.274	0.017	887.244	-15.68	-7.0	21.895	4.506	70.0	1.2	Outcome2	1.9	-15.68	4000.0	Yes		-17.578231292517				ISITrial	Mixed
41.0	2	227.821	0.016	895.791	-15.68	-7.0	21.895	2.956	70.0	1.2	Outcome2	1.9	-15.68	4000.0	Yes		-17.578231292517			480.0	TrialHappiness	Mixed
41.0	2	231.836	4.015	899.806	-15.68	-7.0	21.895	8.0	70.0	1.2	Outcome2	1.9	-15.68	4000.0	Yes		-17.578231292517				ISIRate	Mixed
42.0	2	239.866	0.03	907.836	-1.74	-1.74	21.6775	3.0	70.0	2.0	Certain	-3.49	12.9	0.0	No	4.0	-16.3922902494331	2.062	241.928		GetAnswer	Loss
42.0	2	241.949	0.021	909.919	-1.74	-1.74	21.6775	4.0	70.0	2.0	Certain	-3.49	12.9	0.0	No		-16.3922902494331				ShowChoice	Loss
42.0	2	245.964	0.015	913.934	-1.74	-1.74	21.6775	1.0	70.0	2.0	Certain	-3.49	12.9	0.0	No		-16.3922902494331				ShowResult	Loss
42.0	2	246.981	0.017	914.951	-1.74	-1.74	21.6775	6.248	70.0	2.0	Certain	-3.49	12.9	0.0	No		-16.3922902494331				ISITrial	Loss
43.0	2	253.245	0.016	921.215	0.38	-1.0	21.725	3.0	70.0	0.82	Outcome1	0.38	-2.11	2775.75	Yes		2.48941798941799				GetAnswer	Mixed
43.0	2	256.261	0.016	924.231	0.38	-1.0	21.725	4.0	70.0	0.82	Outcome1	0.38	-2.11	2775.75	Yes		2.48941798941799				ShowChoice	Mixed
43.0	2	260.276	0.015	928.246	0.38	-1.0	21.725	1.0	70.0	0.82	Outcome1	0.38	-2.11	2775.75	Yes		2.48941798941799				ShowResult	Mixed
43.0	2	261.292	0.016	929.262	0.38	-1.0	21.725	4.596	70.0	0.82	Outcome1	0.38	-2.11	2775.75	Yes		2.48941798941799				ISITrial	Mixed
43.0	2	268.706	0.023	936.676	0.38	-1.0	21.725	0.89	70.0	0.82	Outcome1	0.38	-2.11	2775.75	Yes		2.48941798941799			632.0	TrialHappiness	Mixed
43.0	2	272.722	4.016	940.692	0.38	-1.0	21.725	3.103	70.0	0.82	Outcome1	0.38	-2.11	2775.75	Yes		2.48941798941799				ISIRate	Mixed
44.0	2	275.854	0.029	943.824	-11.81	-2.0	20.2488	3.0	70.0	4.2	Outcome2	8.1	-11.81	0.0	No		-19.907029478458103				GetAnswer	Gain
44.0	2	278.869	0.015	946.839	-11.81	-2.0	20.2488	4.0	70.0	4.2	Outcome2	8.1	-11.81	0.0	No		-19.907029478458103				ShowChoice	Gain
44.0	2	282.885	0.016	950.855	-11.81	-2.0	20.2488	1.0	70.0	4.2	Outcome2	8.1	-11.81	0.0	No		-19.907029478458103				ShowResult	Gain
44.0	2	283.901	0.016	951.871	-11.81	-2.0	20.2488	2.42	70.0	4.2	Outcome2	8.1	-11.81	0.0	No		-19.907029478458103				ISITrial	Gain
45.0	2	286.35	0.029	954.32	-20.64	-10.0	17.6688	3.0	70.0	1.2	Outcome1	-20.64	-0.1	0.0	No		-20.544217687074802				GetAnswer	Mixed
45.0	2	289.366	0.016	957.336	-20.64	-10.0	17.6688	4.0	70.0	1.2	Outcome1	-20.64	-0.1	0.0	No		-20.544217687074802				ShowChoice	Mixed
45.0	2	293.381	0.015	961.351	-20.64	-10.0	17.6688	1.0	70.0	1.2	Outcome1	-20.64	-0.1	0.0	No		-20.544217687074802				ShowResult	Mixed
45.0	2	294.397	0.016	962.367	-20.64	-10.0	17.6688	3.144	70.0	1.2	Outcome1	-20.64	-0.1	0.0	No		-20.544217687074802				ISITrial	Mixed
46.0	2	297.563	0.022	965.533	-16.88	-6.0	15.5588	3.0	70.0	2.0	Outcome1	-16.88	4.3	3841.25	Yes	2.0	-21.1814058956916	2.083	299.646		GetAnswer	Mixed
46.0	2	299.662	0.016	967.632	-16.88	-6.0	15.5588	4.0	70.0	2.0	Outcome1	-16.88	4.3	3841.25	Yes		-21.1814058956916				ShowChoice	Mixed
46.0	2	303.677	0.015	971.647	-16.88	-6.0	15.5588	1.0	70.0	2.0	Outcome1	-16.88	4.3	3841.25	Yes		-21.1814058956916				ShowResult	Mixed
46.0	2	304.694	0.017	972.664	-16.88	-6.0	15.5588	2.246	70.0	2.0	Outcome1	-16.88	4.3	3841.25	Yes		-21.1814058956916				ISITrial	Mixed
46.0	2	310.825	0.024	978.795	-16.88	-6.0	15.5588	3.638	70.0	2.0	Outcome1	-16.88	4.3	3841.25	Yes		-21.1814058956916			240.0	TrialHappiness	Mixed
46.0	2	314.84	4.015	982.81	-16.88	-6.0	15.5588	7.365	70.0	2.0	Outcome1	-16.88	4.3	3841.25	Yes		-21.1814058956916				ISIRate	Mixed
47.0	2	322.221	0.016	990.191	1.0	1.0	15.6838	3.0	70.0	2.0	Certain	8.9	-6.25	0.0	No	4.0	-15.1519274376417	1.262	323.483		GetAnswer	Gain
47.0	2	323.504	0.02	991.474	1.0	1.0	15.6838	4.0	70.0	2.0	Certain	8.9	-6.25	0.0	No		-15.1519274376417				ShowChoice	Gain
47.0	2	327.519	0.015	995.489	1.0	1.0	15.6838	1.0	70.0	2.0	Certain	8.9	-6.25	0.0	No		-15.1519274376417				ShowResult	Gain
47.0	2	328.535	0.016	996.505	1.0	1.0	15.6838	2.0	70.0	2.0	Certain	8.9	-6.25	0.0	No		-15.1519274376417				ISITrial	Gain
48.0	2	330.551	0.016	998.521	-3.04	-1.52	15.3038	3.0	70.0	5.0	Outcome1	-3.04	12.3	2831.75	Yes		-15.344671201814101				GetAnswer	Loss
48.0	2	333.567	0.016	1001.537	-3.04	-1.52	15.3038	4.0	70.0	5.0	Outcome1	-3.04	12.3	2831.75	Yes		-15.344671201814101				ShowChoice	Loss
48.0	2	337.582	0.015	1005.552	-3.04	-1.52	15.3038	1.0	70.0	5.0	Outcome1	-3.04	12.3	2831.75	Yes		-15.344671201814101				ShowResult	Loss
48.0	2	338.599	0.017	1006.569	-3.04	-1.52	15.3038	3.692	70.0	5.0	Outcome1	-3.04	12.3	2831.75	Yes		-15.344671201814101				ISITrial	Loss
48.0	2	345.163	0.017	1013.133	-3.04	-1.52	15.3038	0.807	70.0	5.0	Outcome1	-3.04	12.3	2831.75	Yes		-15.344671201814101			568.0	TrialHappiness	Loss
48.0	2	349.178	4.015	1017.148	-3.04	-1.52	15.3038	3.327	70.0	5.0	Outcome1	-3.04	12.3	2831.75	Yes		-15.344671201814101				ISIRate	Loss
49.0	2	352.527	0.022	1020.497	-7.62	-3.81	14.3513	3.0	70.0	2.8	Outcome1	-7.62	13.5	0.0	No	2.0	-21.1156462585034	2.457	354.984		GetAnswer	Loss
49.0	2	355.01	0.026	1022.98	-7.62	-3.81	14.3513	4.0	70.0	2.8	Outcome1	-7.62	13.5	0.0	No		-21.1156462585034				ShowChoice	Loss
49.0	2	359.025	0.015	1026.995	-7.62	-3.81	14.3513	1.0	70.0	2.8	Outcome1	-7.62	13.5	0.0	No		-21.1156462585034				ShowResult	Loss
49.0	2	360.041	0.016	1028.011	-7.62	-3.81	14.3513	8.0	70.0	2.8	Outcome1	-7.62	13.5	0.0	No		-21.1156462585034				ISITrial	Loss
50.0	2	368.072	0.031	1036.042	-1.0	-1.0	14.2263	3.0	70.0	0.66	Certain	-0.18	-3.3	3547.25	Yes	4.0	3.12414965986395	2.256	370.328		GetAnswer	Mixed
50.0	2	370.354	0.026	1038.324	-1.0	-1.0	14.2263	4.0	70.0	0.66	Certain	-0.18	-3.3	3547.25	Yes		3.12414965986395				ShowChoice	Mixed
50.0	2	374.369	0.015	1042.339	-1.0	-1.0	14.2263	1.0	70.0	0.66	Certain	-0.18	-3.3	3547.25	Yes		3.12414965986395				ShowResult	Mixed
50.0	2	375.386	0.017	1043.356	-1.0	-1.0	14.2263	7.537	70.0	0.66	Certain	-0.18	-3.3	3547.25	Yes		3.12414965986395				ISITrial	Mixed
50.0	2	386.499	0.019	1054.469	-1.0	-1.0	14.2263	3.937	70.0	0.66	Certain	-0.18	-3.3	3547.25	Yes		3.12414965986395			496.0	TrialHappiness	Mixed
50.0	2	390.514	4.015	1058.484	-1.0	-1.0	14.2263	6.189	70.0	0.66	Certain	-0.18	-3.3	3547.25	Yes		3.12414965986395				ISIRate	Mixed
51.0	2	396.728	0.025	1064.698	-9.0	-9.0	13.1013	3.0	70.0	0.52	Certain	-19.92	1.1	0.0	No	4.0	-21.0204081632653	2.895	399.623		GetAnswer	Mixed
51.0	2	399.644	0.021	1067.614	-9.0	-9.0	13.1013	4.0	70.0	0.52	Certain	-19.92	1.1	0.0	No		-21.0204081632653				ShowChoice	Mixed
51.0	2	403.659	0.015	1071.629	-9.0	-9.0	13.1013	1.0	70.0	0.52	Certain	-19.92	1.1	0.0	No		-21.0204081632653				ShowResult	Mixed
51.0	2	404.676	0.017	1072.646	-9.0	-9.0	13.1013	5.508	70.0	0.52	Certain	-19.92	1.1	0.0	No		-21.0204081632653				ISITrial	Mixed
52.0	2	410.207	0.023	1078.177	-12.4	-1.0	11.5513	3.0	70.0	2.22	Outcome1	-12.4	9.1	0.0	No		-21.5034013605442				GetAnswer	Gain
52.0	2	413.223	0.016	1081.193	-12.4	-1.0	11.5513	4.0	70.0	2.22	Outcome1	-12.4	9.1	0.0	No		-21.5034013605442				ShowChoice	Gain
52.0	2	417.238	0.015	1085.208	-12.4	-1.0	11.5513	1.0	70.0	2.22	Outcome1	-12.4	9.1	0.0	No		-21.5034013605442				ShowResult	Gain
52.0	2	418.254	0.016	1086.224	-12.4	-1.0	11.5513	5.913	70.0	2.22	Outcome1	-12.4	9.1	0.0	No		-21.5034013605442				ISITrial	Gain
53.0	2	424.185	0.018	1092.155	-9.0	-9.0	10.4263	3.0	70.0	1.5	Certain	-19.89	2.1	2996.75	Yes	4.0	-21.9863945578231	2.465	426.65		GetAnswer	Mixed
53.0	2	426.668	0.018	1094.638	-9.0	-9.0	10.4263	4.0	70.0	1.5	Certain	-19.89	2.1	2996.75	Yes		-21.9863945578231				ShowChoice	Mixed
53.0	2	430.683	0.015	1098.653	-9.0	-9.0	10.4263	1.0	70.0	1.5	Certain	-19.89	2.1	2996.75	Yes		-21.9863945578231				ShowResult	Mixed
53.0	2	431.699	0.016	1099.669	-9.0	-9.0	10.4263	3.66	70.0	1.5	Certain	-19.89	2.1	2996.75	Yes		-21.9863945578231				ISITrial	Mixed
53.0	2	438.397	0.019	1106.367	-9.0	-9.0	10.4263	1.19	70.0	1.5	Certain	-19.89	2.1	2996.75	Yes	4{-4}4{-4}	-21.9863945578231	1.19	439.587	392.0	TrialHappiness	Mixed
53.0	2	442.412	4.015	1110.382	-9.0	-9.0	10.4263	3.987	70.0	1.5	Certain	-19.89	2.1	2996.75	Yes		-21.9863945578231				ISIRate	Mixed
54.0	2	446.428	0.029	1114.398	-9.0	-9.0	9.3013	3.0	70.0	0.3	Certain	0.7	-20.0	0.0	No	4.0	-20.7006802721088	2.12	448.548		GetAnswer	Mixed
54.0	2	448.56	0.012	1116.53	-9.0	-9.0	9.3013	4.0	70.0	0.3	Certain	0.7	-20.0	0.0	No		-20.7006802721088				ShowChoice	Mixed
54.0	2	452.575	0.015	1120.545	-9.0	-9.0	9.3013	1.0	70.0	0.3	Certain	0.7	-20.0	0.0	No		-20.7006802721088				ShowResult	Mixed
54.0	2	453.592	0.017	1121.562	-9.0	-9.0	9.3013	8.0	70.0	0.3	Certain	0.7	-20.0	0.0	No		-20.7006802721088				ISITrial	Mixed
	2	461.622	0.03	1129.592				-0.001								{SPACE}		39.181	500.803		Rest	
	2	500.825	0.022	1168.795				4.0													BlockHappyPreview	
	2	504.841	0.016	1172.811				3.522												496.0	BlockStartHappiness	
	2	516.736	0.013	1184.706				-0.001								5.0		2.332	519.068		ScanWait	
	3	0.018	0.018	1187.056				10.0													GetReady	
55.0	3	10.031	0.013	1197.069	2.75	2.75	9.6451	3.0	955.0	2.48	Certain	13.3	5.5	2533.25	Yes	4.0	7.7972819932049795	0.845	10.876		GetAnswer	Loss
55.0	3	10.897	0.021	1197.935	2.75	2.75	9.6451	4.0	955.0	2.48	Certain	13.3	5.5	2533.25	Yes		7.7972819932049795				ShowChoice	Loss
55.0	3	14.912	0.015	1201.95	2.75	2.75	9.6451	1.0	955.0	2.48	Certain	13.3	5.5	2533.25	Yes		7.7972819932049795				ShowResult	Loss
55.0	3	15.929	0.017	1202.967	2.75	2.75	9.6451	7.709	955.0	2.48	Certain	13.3	5.5	2533.25	Yes		7.7972819932049795				ISITrial	Loss
55.0	3	26.208	0.016	1213.246	2.75	2.75	9.6451	1.874	955.0	2.48	Certain	13.3	5.5	2533.25	Yes	2{-2}2{-2}2{-2}	7.7972819932049795	1.874	28.082	680.0	TrialHappiness	Loss
55.0	3	30.224	4.016	1217.262	2.75	2.75	9.6451	2.133	955.0	2.48	Certain	13.3	5.5	2533.25	Yes		7.7972819932049795				ISIRate	Loss
56.0	3	32.373	0.016	1219.411	3.34	1.67	10.0626	3.0	955.0	1.68	Outcome1	3.34	4.5	0.0	No	2.0	-1.1593053982635	2.257	34.63		GetAnswer	Gain
56.0	3	34.656	0.026	1221.694	3.34	1.67	10.0626	4.0	955.0	1.68	Outcome1	3.34	4.5	0.0	No		-1.1593053982635				ShowChoice	Gain
56.0	3	38.671	0.015	1225.709	3.34	1.67	10.0626	1.0	955.0	1.68	Outcome1	3.34	4.5	0.0	No		-1.1593053982635				ShowResult	Gain
56.0	3	39.687	0.016	1226.725	3.34	1.67	10.0626	4.697	955.0	1.68	Outcome1	3.34	4.5	0.0	No		-1.1593053982635				ISITrial	Gain
57.0	3	44.402	0.018	1231.44	-2.0	-2.0	9.8126	3.0	955.0	0.4	Certain	-4.6	0.9	0.0	No	4.0	5.50283125707814	2.594	46.996		GetAnswer	Mixed
57.0	3	47.018	0.022	1234.056	-2.0	-2.0	9.8126	4.0	955.0	0.4	Certain	-4.6	0.9	0.0	No		5.50283125707814				ShowChoice	Mixed
57.0	3	51.033	0.015	1238.071	-2.0	-2.0	9.8126	1.0	955.0	0.4	Certain	-4.6	0.9	0.0	No		5.50283125707814				ShowResult	Mixed
57.0	3	52.049	0.016	1239.087	-2.0	-2.0	9.8126	4.291	955.0	0.4	Certain	-4.6	0.9	0.0	No		5.50283125707814				ISITrial	Mixed
58.0	3	56.365	0.025	1243.403	11.9	3.04	11.3001	3.0	955.0	3.6	Outcome2	6.09	11.9	3045.75	Yes	2.0	5.81426953567384	1.719	58.084		GetAnswer	Loss
58.0	3	58.114	0.03	1245.152	11.9	3.04	11.3001	4.0	955.0	3.6	Outcome2	6.09	11.9	3045.75	Yes		5.81426953567384				ShowChoice	Loss
58.0	3	62.129	0.015	1249.167	11.9	3.04	11.3001	1.0	955.0	3.6	Outcome2	6.09	11.9	3045.75	Yes		5.81426953567384				ShowResult	Loss
58.0	3	63.146	0.017	1250.184	11.9	3.04	11.3001	2.037	955.0	3.6	Outcome2	6.09	11.9	3045.75	Yes		5.81426953567384				ISITrial	Loss
58.0	3	68.26	0.019	1255.298	11.9	3.04	11.3001	3.973	955.0	3.6	Outcome2	6.09	11.9	3045.75	Yes		5.81426953567384			952.0	TrialHappiness	Loss
58.0	3	72.276	4.016	1259.314	11.9	3.04	11.3001	4.183	955.0	3.6	Outcome2	6.09	11.9	3045.75	Yes		5.81426953567384				ISIRate	Loss
59.0	3	76.491	0.032	1263.529	4.1	1.3	11.8126	3.0	955.0	1.5	Outcome1	4.1	2.59	0.0	No	2.0	1.50509626274066	1.857	78.348		GetAnswer	Mixed
59.0	3	78.374	0.026	1265.412	4.1	1.3	11.8126	4.0	955.0	1.5	Outcome1	4.1	2.59	0.0	No		1.50509626274066				ShowChoice	Mixed
59.0	3	82.389	0.015	1269.427	4.1	1.3	11.8126	1.0	955.0	1.5	Outcome1	4.1	2.59	0.0	No		1.50509626274066				ShowResult	Mixed
59.0	3	83.405	0.016	1270.443	4.1	1.3	11.8126	5.064	955.0	1.5	Outcome1	4.1	2.59	0.0	No		1.50509626274066				ISITrial	Mixed
60.0	3	88.487	0.018	1275.525	0.0	0.0	11.8126	3.0	955.0	2.0	Certain	-1.21	0.3	3562.5	Yes	4.0	1.5084937712344302	2.423	90.91		GetAnswer	Mixed
60.0	3	90.936	0.026	1277.974	0.0	0.0	11.8126	4.0	955.0	2.0	Certain	-1.21	0.3	3562.5	Yes		1.5084937712344302				ShowChoice	Mixed
60.0	3	94.951	0.015	1281.989	0.0	0.0	11.8126	1.0	955.0	2.0	Certain	-1.21	0.3	3562.5	Yes		1.5084937712344302				ShowResult	Mixed
60.0	3	95.967	0.016	1283.005	0.0	0.0	11.8126	8.0	955.0	2.0	Certain	-1.21	0.3	3562.5	Yes		1.5084937712344302				ISITrial	Mixed
60.0	3	107.563	0.02	1294.601	0.0	0.0	11.8126	3.706	955.0	2.0	Certain	-1.21	0.3	3562.5	Yes		1.5084937712344302			776.0	TrialHappiness	Mixed
60.0	3	111.579	4.016	1298.617	0.0	0.0	11.8126	6.25	955.0	2.0	Certain	-1.21	0.3	3562.5	Yes		1.5084937712344302				ISIRate	Mixed
61.0	3	117.86	0.031	1304.898	2.0	2.0	12.0626	3.0	955.0	2.0	Certain	2.3	1.45	0.0	No	4.0	-0.848150245375613	2.602	120.462		GetAnswer	Mixed
61.0	3	120.476	0.014	1307.514	2.0	2.0	12.0626	4.0	955.0	2.0	Certain	2.3	1.45	0.0	No		-0.848150245375613				ShowChoice	Mixed
61.0	3	124.491	0.015	1311.529	2.0	2.0	12.0626	1.0	955.0	2.0	Certain	2.3	1.45	0.0	No		-0.848150245375613				ShowResult	Mixed
61.0	3	125.507	0.016	1312.545	2.0	2.0	12.0626	4.586	955.0	2.0	Certain	2.3	1.45	0.0	No		-0.848150245375613				ISITrial	Mixed
62.0	3	130.122	0.029	1317.16	11.3	3.3	13.4751	3.0	955.0	2.48	Outcome1	11.3	6.6	3748.75	Yes	2.0	4.704416761041901	1.783	131.905		GetAnswer	Loss
62.0	3	131.922	0.017	1318.96	11.3	3.3	13.4751	4.0	955.0	2.48	Outcome1	11.3	6.6	3748.75	Yes		4.704416761041901				ShowChoice	Loss
62.0	3	135.937	0.015	1322.975	11.3	3.3	13.4751	1.0	955.0	2.48	Outcome1	11.3	6.6	3748.75	Yes		4.704416761041901				ShowResult	Loss
62.0	3	136.953	0.016	1323.991	11.3	3.3	13.4751	5.212	955.0	2.48	Outcome1	11.3	6.6	3748.75	Yes		4.704416761041901				ISITrial	Loss
62.0	3	145.95	0.016	1332.988	11.3	3.3	13.4751	1.072	955.0	2.48	Outcome1	11.3	6.6	3748.75	Yes		4.704416761041901			776.0	TrialHappiness	Loss
62.0	3	149.965	4.015	1337.003	11.3	3.3	13.4751	6.995	955.0	2.48	Outcome1	11.3	6.6	3748.75	Yes		4.704416761041901				ISIRate	Loss
63.0	3	156.98	0.02	1344.018	13.9	4.5	15.2126	3.0	955.0	3.6	Outcome2	8.99	13.9	0.0	No	2.0	4.90713476783692	1.808	158.788		GetAnswer	Loss
63.0	3	158.812	0.024	1345.85	13.9	4.5	15.2126	4.0	955.0	3.6	Outcome2	8.99	13.9	0.0	No		4.90713476783692				ShowChoice	Loss
63.0	3	162.827	0.015	1349.865	13.9	4.5	15.2126	1.0	955.0	3.6	Outcome2	8.99	13.9	0.0	No		4.90713476783692				ShowResult	Loss
63.0	3	163.844	0.017	1350.882	13.9	4.5	15.2126	5.595	955.0	3.6	Outcome2	8.99	13.9	0.0	No		4.90713476783692				ISITrial	Loss
64.0	3	169.459	0.02	1356.497	8.8	4.4	16.3126	3.0	955.0	3.16	Outcome1	8.8	9.7	0.0	No	2.0	-0.8988297470743678	2.1	171.559		GetAnswer	Gain
64.0	3	171.574	0.015	1358.612	8.8	4.4	16.3126	4.0	955.0	3.16	Outcome1	8.8	9.7	0.0	No		-0.8988297470743678				ShowChoice	Gain
64.0	3	175.59	0.016	1362.628	8.8	4.4	16.3126	1.0	955.0	3.16	Outcome1	8.8	9.7	0.0	No		-0.8988297470743678				ShowResult	Gain
64.0	3	176.606	0.016	1363.644	8.8	4.4	16.3126	5.47	955.0	3.16	Outcome1	8.8	9.7	0.0	No		-0.8988297470743678				ISITrial	Gain
65.0	3	182.104	0.028	1369.142	6.7	0.7	17.1501	3.0	955.0	1.82	Outcome2	1.39	6.7	2996.75	Yes	2.0	5.31257078142695	1.974	184.078		GetAnswer	Gain
65.0	3	184.103	0.025	1371.141	6.7	0.7	17.1501	4.0	955.0	1.82	Outcome2	1.39	6.7	2996.75	Yes		5.31257078142695				ShowChoice	Gain
65.0	3	188.119	0.016	1375.157	6.7	0.7	17.1501	1.0	955.0	1.82	Outcome2	1.39	6.7	2996.75	Yes		5.31257078142695				ShowResult	Gain
65.0	3	189.135	0.016	1376.173	6.7	0.7	17.1501	3.344	955.0	1.82	Outcome2	1.39	6.7	2996.75	Yes		5.31257078142695				ISITrial	Gain
65.0	3	195.516	0.019	1382.554	6.7	0.7	17.1501	1.207	955.0	1.82	Outcome2	1.39	6.7	2996.75	Yes		5.31257078142695			616.0	TrialHappiness	Gain
65.0	3	199.531	4.015	1386.569	6.7	0.7	17.1501	3.987	955.0	1.82	Outcome2	1.39	6.7	2996.75	Yes		5.31257078142695				ISIRate	Gain
66.0	3	203.547	0.029	1390.585	2.0	2.0	17.4001	3.0	955.0	1.68	Certain	6.5	-1.73	0.0	No	4.0	8.233295583238961	2.206	205.753		GetAnswer	Gain
66.0	3	205.779	0.025	1392.817	2.0	2.0	17.4001	4.0	955.0	1.68	Certain	6.5	-1.73	0.0	No		8.233295583238961				ShowChoice	Gain
66.0	3	209.794	0.015	1396.832	2.0	2.0	17.4001	1.0	955.0	1.68	Certain	6.5	-1.73	0.0	No		8.233295583238961				ShowResult	Gain
66.0	3	210.811	0.017	1397.849	2.0	2.0	17.4001	3.959	955.0	1.68	Certain	6.5	-1.73	0.0	No		8.233295583238961				ISITrial	Gain
67.0	3	214.793	0.023	1401.831	12.7	2.04	18.9876	3.0	955.0	1.82	Outcome1	12.7	4.08	2918.5	Yes	2.0	8.61721404303511	1.719	216.512		GetAnswer	Loss
67.0	3	216.525	0.013	1403.563	12.7	2.04	18.9876	4.0	955.0	1.82	Outcome1	12.7	4.08	2918.5	Yes		8.61721404303511				ShowChoice	Loss
67.0	3	220.541	0.016	1407.579	12.7	2.04	18.9876	1.0	955.0	1.82	Outcome1	12.7	4.08	2918.5	Yes		8.61721404303511				ShowResult	Loss
67.0	3	221.557	0.016	1408.595	12.7	2.04	18.9876	4.199	955.0	1.82	Outcome1	12.7	4.08	2918.5	Yes		8.61721404303511				ISITrial	Loss
67.0	3	228.705	0.015	1415.743	12.7	2.04	18.9876	1.971	955.0	1.82	Outcome1	12.7	4.08	2918.5	Yes	2{-2}	8.61721404303511	1.971	230.676	952.0	TrialHappiness	Loss
67.0	3	232.72	4.015	1419.758	12.7	2.04	18.9876	3.674	955.0	1.82	Outcome1	12.7	4.08	2918.5	Yes		8.61721404303511				ISIRate	Loss
68.0	3	236.418	0.024	1423.456	7.9	2.31	19.9751	3.0	955.0	3.6	Outcome2	4.61	7.9	0.0	No	2.0	3.29331823329558	1.913	238.331		GetAnswer	Gain
68.0	3	238.351	0.02	1425.389	7.9	2.31	19.9751	4.0	955.0	3.6	Outcome2	4.61	7.9	0.0	No		3.29331823329558				ShowChoice	Gain
68.0	3	242.366	0.015	1429.404	7.9	2.31	19.9751	1.0	955.0	3.6	Outcome2	4.61	7.9	0.0	No		3.29331823329558				ShowResult	Gain
68.0	3	243.383	0.017	1430.421	7.9	2.31	19.9751	2.185	955.0	3.6	Outcome2	4.61	7.9	0.0	No		3.29331823329558				ISITrial	Gain
69.0	3	245.599	0.031	1432.637	9.3	3.0	21.1376	3.0	955.0	2.48	Outcome1	9.3	6.0	0.0	No	2.0	3.29671574178935	1.62	247.219		GetAnswer	Gain
69.0	3	247.231	0.012	1434.269	9.3	3.0	21.1376	4.0	955.0	2.48	Outcome1	9.3	6.0	0.0	No		3.29671574178935				ShowChoice	Gain
69.0	3	251.247	0.016	1438.285	9.3	3.0	21.1376	1.0	955.0	2.48	Outcome1	9.3	6.0	0.0	No		3.29671574178935				ShowResult	Gain
69.0	3	252.263	0.016	1439.301	9.3	3.0	21.1376	2.0	955.0	2.48	Outcome1	9.3	6.0	0.0	No		3.29671574178935				ISITrial	Gain
70.0	3	254.279	0.016	1441.317	7.7	2.2	22.1001	3.0	955.0	3.16	Outcome1	7.7	4.4	3651.25	Yes	2.0	3.30011325028313	1.769	256.048		GetAnswer	Gain
70.0	3	256.062	0.013	1443.1	7.7	2.2	22.1001	4.0	955.0	3.16	Outcome1	7.7	4.4	3651.25	Yes		3.30011325028313				ShowChoice	Gain
70.0	3	260.077	0.015	1447.115	7.7	2.2	22.1001	1.0	955.0	3.16	Outcome1	7.7	4.4	3651.25	Yes		3.30011325028313				ShowResult	Gain
70.0	3	261.093	0.016	1448.131	7.7	2.2	22.1001	2.623	955.0	3.16	Outcome1	7.7	4.4	3651.25	Yes		3.30011325028313				ISITrial	Gain
70.0	3	267.408	0.015	1454.446	7.7	2.2	22.1001	2.021	955.0	3.16	Outcome1	7.7	4.4	3651.25	Yes		3.30011325028313			952.0	TrialHappiness	Gain
70.0	3	271.423	4.015	1458.461	7.7	2.2	22.1001	6.605	955.0	3.16	Outcome1	7.7	4.4	3651.25	Yes		3.30011325028313				ISIRate	Gain
71.0	3	278.054	0.026	1465.092	-2.0	-2.0	21.8501	3.0	955.0	1.0	Certain	-0.3	-3.6	0.0	No	4.0	3.3035107587769	2.111	280.165		GetAnswer	Mixed
71.0	3	280.187	0.022	1467.225	-2.0	-2.0	21.8501	4.0	955.0	1.0	Certain	-0.3	-3.6	0.0	No		3.3035107587769				ShowChoice	Mixed
71.0	3	284.202	0.015	1471.24	-2.0	-2.0	21.8501	1.0	955.0	1.0	Certain	-0.3	-3.6	0.0	No		3.3035107587769				ShowResult	Mixed
71.0	3	285.218	0.016	1472.256	-2.0	-2.0	21.8501	5.499	955.0	1.0	Certain	-0.3	-3.6	0.0	No		3.3035107587769				ISITrial	Mixed
72.0	3	290.733	0.016	1477.771	8.3	2.5	22.8876	3.0	955.0	5.0	Outcome1	8.3	4.99	3080.5	Yes	2.0	3.30690826727067	2.413	293.146		GetAnswer	Gain
72.0	3	293.165	0.019	1480.203	8.3	2.5	22.8876	4.0	955.0	5.0	Outcome1	8.3	4.99	3080.5	Yes		3.30690826727067				ShowChoice	Gain
72.0	3	297.181	0.016	1484.219	8.3	2.5	22.8876	1.0	955.0	5.0	Outcome1	8.3	4.99	3080.5	Yes		3.30690826727067				ShowResult	Gain
72.0	3	298.197	0.016	1485.235	8.3	2.5	22.8876	5.672	955.0	5.0	Outcome1	8.3	4.99	3080.5	Yes		3.30690826727067				ISITrial	Gain
72.0	3	306.994	0.019	1494.032	8.3	2.5	22.8876	1.338	955.0	5.0	Outcome1	8.3	4.99	3080.5	Yes		3.30690826727067			800.0	TrialHappiness	Gain
72.0	3	311.009	4.015	1498.047	8.3	2.5	22.8876	4.322	955.0	5.0	Outcome1	8.3	4.99	3080.5	Yes		3.30690826727067				ISIRate	Gain
73.0	3	315.358	0.027	1502.396	-4.0	-4.0	22.3876	3.0	955.0	0.2	Certain	-1.5	-7.39	0.0	No	4.0	5.89241223103058	2.438	317.796		GetAnswer	Mixed
73.0	3	317.823	0.027	1504.861	-4.0	-4.0	22.3876	4.0	955.0	0.2	Certain	-1.5	-7.39	0.0	No		5.89241223103058				ShowChoice	Mixed
73.0	3	321.839	0.016	1508.877	-4.0	-4.0	22.3876	1.0	955.0	0.2	Certain	-1.5	-7.39	0.0	No		5.89241223103058				ShowResult	Mixed
73.0	3	322.855	0.016	1509.893	-4.0	-4.0	22.3876	4.616	955.0	0.2	Certain	-1.5	-7.39	0.0	No		5.89241223103058				ISITrial	Mixed
74.0	3	327.503	0.032	1514.541	10.5	2.22	23.7001	3.0	955.0	1.68	Outcome1	10.5	4.43	3056.25	Yes	2.0	6.06795016987542	2.399	329.902		GetAnswer	Loss
74.0	3	329.919	0.017	1516.957	10.5	2.22	23.7001	4.0	955.0	1.68	Outcome1	10.5	4.43	3056.25	Yes		6.06795016987542				ShowChoice	Loss
74.0	3	333.934	0.015	1520.972	10.5	2.22	23.7001	1.0	955.0	1.68	Outcome1	10.5	4.43	3056.25	Yes		6.06795016987542				ShowResult	Loss
74.0	3	334.951	0.017	1521.989	10.5	2.22	23.7001	3.909	955.0	1.68	Outcome1	10.5	4.43	3056.25	Yes		6.06795016987542				ISITrial	Loss
74.0	3	341.965	0.026	1529.003	10.5	2.22	23.7001	3.138	955.0	1.68	Outcome1	10.5	4.43	3056.25	Yes		6.06795016987542			704.0	TrialHappiness	Loss
74.0	3	345.98	4.015	1533.018	10.5	2.22	23.7001	4.225	955.0	1.68	Outcome1	10.5	4.43	3056.25	Yes		6.06795016987542				ISIRate	Loss
75.0	3	350.229	0.024	1537.267	1.0	1.0	23.8251	3.0	955.0	1.82	Certain	4.7	-3.17	0.0	No	4.0	7.87429218573046	1.915	352.144		GetAnswer	Gain
75.0	3	352.161	0.017	1539.199	1.0	1.0	23.8251	4.0	955.0	1.82	Certain	4.7	-3.17	0.0	No		7.87429218573046				ShowChoice	Gain
75.0	3	356.177	0.016	1543.215	1.0	1.0	23.8251	1.0	955.0	1.82	Certain	4.7	-3.17	0.0	No		7.87429218573046				ShowResult	Gain
75.0	3	357.193	0.016	1544.231	1.0	1.0	23.8251	4.979	955.0	1.82	Certain	4.7	-3.17	0.0	No		7.87429218573046				ISITrial	Gain
76.0	3	362.191	0.019	1549.229	0.0	0.0	23.8251	3.0	955.0	0.2	Certain	0.5	-0.84	0.0	No	4.0	-1.3431483578708898	2.151	364.342		GetAnswer	Mixed
76.0	3	364.357	0.015	1551.395	0.0	0.0	23.8251	4.0	955.0	0.2	Certain	0.5	-0.84	0.0	No		-1.3431483578708898				ShowChoice	Mixed
76.0	3	368.372	0.015	1555.41	0.0	0.0	23.8251	1.0	955.0	0.2	Certain	0.5	-0.84	0.0	No		-1.3431483578708898				ShowResult	Mixed
76.0	3	369.389	0.017	1556.427	0.0	0.0	23.8251	3.931	955.0	0.2	Certain	0.5	-0.84	0.0	No		-1.3431483578708898				ISITrial	Mixed
77.0	3	373.337	0.017	1560.375	-0.67	-0.67	23.7413	3.0	955.0	2.22	Certain	-1.34	7.1	4000.0	Yes	4.0	8.442808607021519	2.688	376.025		GetAnswer	Gain
77.0	3	376.053	0.028	1563.091	-0.67	-0.67	23.7413	4.0	955.0	2.22	Certain	-1.34	7.1	4000.0	Yes		8.442808607021519				ShowChoice	Gain
77.0	3	380.068	0.015	1567.106	-0.67	-0.67	23.7413	1.0	955.0	2.22	Certain	-1.34	7.1	4000.0	Yes		8.442808607021519				ShowResult	Gain
77.0	3	381.085	0.017	1568.123	-0.67	-0.67	23.7413	7.022	955.0	2.22	Certain	-1.34	7.1	4000.0	Yes		8.442808607021519				ISITrial	Gain
77.0	3	392.147	0.015	1579.185	-0.67	-0.67	23.7413	1.872	955.0	2.22	Certain	-1.34	7.1	4000.0	Yes		8.442808607021519			952.0	TrialHappiness	Gain
77.0	3	396.163	4.016	1583.201	-0.67	-0.67	23.7413	8.0	955.0	2.22	Certain	-1.34	7.1	4000.0	Yes		8.442808607021519				ISIRate	Gain
78.0	3	404.193	0.03	1591.231	-1.0	-1.0	23.6163	3.0	955.0	0.3	Certain	-1.3	-1.68	0.0	No	4.0	-0.38410721026802597	1.716	405.909		GetAnswer	Mixed
78.0	3	405.926	0.017	1592.964	-1.0	-1.0	23.6163	4.0	955.0	0.3	Certain	-1.3	-1.68	0.0	No		-0.38410721026802597				ShowChoice	Mixed
78.0	3	409.941	0.015	1596.979	-1.0	-1.0	23.6163	1.0	955.0	0.3	Certain	-1.3	-1.68	0.0	No		-0.38410721026802597				ShowResult	Mixed
78.0	3	410.958	0.017	1597.996	-1.0	-1.0	23.6163	2.078	955.0	0.3	Certain	-1.3	-1.68	0.0	No		-0.38410721026802597				ISITrial	Mixed
79.0	3	413.057	0.021	1600.095	11.5	3.49	25.0538	3.0	955.0	2.8	Outcome2	6.98	11.5	2729.5	Yes	2.0	4.51755379388448	2.093	415.15		GetAnswer	Loss
79.0	3	415.173	0.023	1602.211	11.5	3.49	25.0538	4.0	955.0	2.8	Outcome2	6.98	11.5	2729.5	Yes		4.51755379388448				ShowChoice	Loss
79.0	3	419.188	0.015	1606.226	11.5	3.49	25.0538	1.0	955.0	2.8	Outcome2	6.98	11.5	2729.5	Yes		4.51755379388448				ShowResult	Loss
79.0	3	420.204	0.016	1607.242	11.5	3.49	25.0538	3.829	955.0	2.8	Outcome2	6.98	11.5	2729.5	Yes		4.51755379388448				ISITrial	Loss
79.0	3	426.802	0.019	1613.84	11.5	3.49	25.0538	3.556	955.0	2.8	Outcome2	6.98	11.5	2729.5	Yes		4.51755379388448			952.0	TrialHappiness	Loss
79.0	3	430.817	4.015	1617.855	11.5	3.49	25.0538	2.918	955.0	2.8	Outcome2	6.98	11.5	2729.5	Yes		4.51755379388448				ISIRate	Loss
80.0	3	433.766	0.031	1620.804	9.3	2.39	26.2163	3.0	955.0	2.48	Outcome2	4.78	9.3	0.0	No	2.0	4.5209513023782595	1.717	435.483		GetAnswer	Gain
80.0	3	435.499	0.016	1622.537	9.3	2.39	26.2163	4.0	955.0	2.48	Outcome2	4.78	9.3	0.0	No		4.5209513023782595				ShowChoice	Gain
80.0	3	439.514	0.015	1626.552	9.3	2.39	26.2163	1.0	955.0	2.48	Outcome2	4.78	9.3	0.0	No		4.5209513023782595				ShowResult	Gain
80.0	3	440.531	0.017	1627.569	9.3	2.39	26.2163	3.336	955.0	2.48	Outcome2	4.78	9.3	0.0	No		4.5209513023782595				ISITrial	Gain
81.0	3	443.896	0.029	1630.934	2.0	2.0	26.4663	3.0	955.0	2.0	Certain	1.92	2.3	3923.75	Yes	4.0	-0.384956587391468	2.373	446.269		GetAnswer	Mixed
81.0	3	446.295	0.026	1633.333	2.0	2.0	26.4663	4.0	955.0	2.0	Certain	1.92	2.3	3923.75	Yes		-0.384956587391468				ShowChoice	Mixed
81.0	3	450.311	0.016	1637.349	2.0	2.0	26.4663	1.0	955.0	2.0	Certain	1.92	2.3	3923.75	Yes		-0.384956587391468				ShowResult	Mixed
81.0	3	451.327	0.016	1638.365	2.0	2.0	26.4663	3.919	955.0	2.0	Certain	1.92	2.3	3923.75	Yes		-0.384956587391468				ISITrial	Mixed
81.0	3	459.207	0.024	1646.245	2.0	2.0	26.4663	1.856	955.0	2.0	Certain	1.92	2.3	3923.75	Yes		-0.384956587391468			952.0	TrialHappiness	Mixed
81.0	3	463.223	4.016	1650.261	2.0	2.0	26.4663	7.695	955.0	2.0	Certain	1.92	2.3	3923.75	Yes		-0.384956587391468				ISIRate	Mixed
	3	470.937	0.019	1657.975				3.0													CurrentEarnings	
	3	473.952	0.015	1660.99				-0.001								2.0		3.944	477.896		Goodbye	
