trial_number	block	onset	onset_delay	onset_unadjusted	amount_change	certain_amount	current_amount	duration	mood_target	multiplier	outcome	outcome1_amount	outcome2_amount	question_duration	rating	response	rpe	rt	rt_time	slider_response	trial_phase	trial_type
	0	-49.21	0.005	19.083				-0.001								{SPACE}		4.208	-45.002		Welcome	
	0	-44.981	0.021	23.312				5.0													LifeHappyPreview	
	0	-39.949	0.032	28.344				2.047												776.0	LifeHappiness	
	0	-16.914	0.025	51.379				4.0													BlockHappyPreview	
	0	-12.902	0.012	55.391				2.815												672.0	BlockStartHappiness	
	0	-2.822	0.022	65.471				-0.001								5.0					ScanWait	
	1	0.02	0.02	68.313				10.0													GetReady	
1.0	1	10.033	0.013	78.326	1.75	2.0	10.2188	3.0	955.0	0.4	Outcome2	2.9	1.75	0.0	No	2.0	-1.1484522461306201	1.193	11.226		GetAnswer	Mixed
1.0	1	11.254	0.028	79.547	1.75	2.0	10.2188	4.0	955.0	0.4	Outcome2	2.9	1.75	0.0	No		-1.1484522461306201				ShowChoice	Mixed
1.0	1	15.266	0.012	83.559	1.75	2.0	10.2188	1.0	955.0	0.4	Outcome2	2.9	1.75	0.0	No		-1.1484522461306201				ShowResult	Mixed
1.0	1	16.285	0.019	84.578	1.75	2.0	10.2188	2.431	955.0	0.4	Outcome2	2.9	1.75	0.0	No		-1.1484522461306201				ISITrial	Mixed
2.0	1	18.743	0.027	87.036	5.9	0.38	10.9563	3.0	955.0	3.6	Outcome2	0.77	5.9	0.0	No	2.0	5.127972819932049	0.985	19.728		GetAnswer	Gain
2.0	1	19.746	0.018	88.039	5.9	0.38	10.9563	4.0	955.0	3.6	Outcome2	0.77	5.9	0.0	No		5.127972819932049				ShowChoice	Gain
2.0	1	23.758	0.012	92.051	5.9	0.38	10.9563	1.0	955.0	3.6	Outcome2	0.77	5.9	0.0	No		5.127972819932049				ShowResult	Gain
2.0	1	24.777	0.019	93.07	5.9	0.38	10.9563	4.568	955.0	3.6	Outcome2	0.77	5.9	0.0	No		5.127972819932049				ISITrial	Gain
3.0	1	29.374	0.029	97.667	1.9	2.0	11.1938	3.0	955.0	0.52	Outcome1	1.9	3.1	2868.0	Yes	2.0	-1.2018686296715702	1.088	30.462		GetAnswer	Mixed
3.0	1	30.478	0.016	98.771	1.9	2.0	11.1938	4.0	955.0	0.52	Outcome1	1.9	3.1	2868.0	Yes		-1.2018686296715702				ShowChoice	Mixed
3.0	1	34.49	0.012	102.783	1.9	2.0	11.1938	1.0	955.0	0.52	Outcome1	1.9	3.1	2868.0	Yes		-1.2018686296715702				ShowResult	Mixed
3.0	1	35.509	0.019	103.802	1.9	2.0	11.1938	3.243	955.0	0.52	Outcome1	1.9	3.1	2868.0	Yes		-1.2018686296715702				ISITrial	Mixed
3.0	1	41.661	0.024	109.954	1.9	2.0	11.1938	1.411	955.0	0.52	Outcome1	1.9	3.1	2868.0	Yes		-1.2018686296715702			632.0	TrialHappiness	Mixed
3.0	1	45.673	4.012	113.966	1.9	2.0	11.1938	3.472	955.0	0.52	Outcome1	1.9	3.1	2868.0	Yes		-1.2018686296715702				ISIRate	Mixed
4.0	1	49.167	0.022	117.46	3.51	1.76	11.6326	3.0	955.0	2.0	Outcome1	3.51	4.9	0.0	No	2.0	-1.39090222725557	0.819	49.986		GetAnswer	Gain
4.0	1	50.003	0.017	118.296	3.51	1.76	11.6326	4.0	955.0	2.0	Outcome1	3.51	4.9	0.0	No		-1.39090222725557				ShowChoice	Gain
4.0	1	54.015	0.012	122.308	3.51	1.76	11.6326	1.0	955.0	2.0	Outcome1	3.51	4.9	0.0	No		-1.39090222725557				ShowResult	Gain
4.0	1	55.034	0.019	123.327	3.51	1.76	11.6326	2.011	955.0	2.0	Outcome1	3.51	4.9	0.0	No		-1.39090222725557				ISITrial	Gain
5.0	1	57.074	0.029	125.367	0.0	0.0	11.6326	3.0	955.0	1.5	Certain	-1.32	0.1	2582.5	Yes	4.0	-1.42138542846357	1.537	58.611		GetAnswer	Mixed
5.0	1	58.628	0.017	126.921	0.0	0.0	11.6326	4.0	955.0	1.5	Certain	-1.32	0.1	2582.5	Yes		-1.42138542846357				ShowChoice	Mixed
5.0	1	62.64	0.012	130.933	0.0	0.0	11.6326	1.0	955.0	1.5	Certain	-1.32	0.1	2582.5	Yes		-1.42138542846357				ShowResult	Mixed
5.0	1	63.66	0.02	131.953	0.0	0.0	11.6326	5.129	955.0	1.5	Certain	-1.32	0.1	2582.5	Yes		-1.42138542846357				ISITrial	Mixed
5.0	1	71.417	0.026	139.71	0.0	0.0	11.6326	1.864	955.0	1.5	Certain	-1.32	0.1	2582.5	Yes		-1.42138542846357			640.0	TrialHappiness	Mixed
5.0	1	75.429	4.012	143.722	0.0	0.0	11.6326	2.33	955.0	1.5	Certain	-1.32	0.1	2582.5	Yes		-1.42138542846357				ISIRate	Mixed
6.0	1	77.786	0.027	146.079	10.5	1.73	12.9451	3.0	955.0	1.68	Outcome2	3.46	10.5	0.0	No	2.0	7.04416761041903	0.984	78.77		GetAnswer	Loss
6.0	1	78.789	0.019	147.082	10.5	1.73	12.9451	4.0	955.0	1.68	Outcome2	3.46	10.5	0.0	No		7.04416761041903				ShowChoice	Loss
6.0	1	82.801	0.012	151.094	10.5	1.73	12.9451	1.0	955.0	1.68	Outcome2	3.46	10.5	0.0	No		7.04416761041903				ShowResult	Loss
6.0	1	83.82	0.019	152.113	10.5	1.73	12.9451	6.232	955.0	1.68	Outcome2	3.46	10.5	0.0	No		7.04416761041903				ISITrial	Loss
7.0	1	90.072	0.02	158.365	0.0	0.0	12.9451	3.0	955.0	2.0	Certain	4.3	-3.1	0.0	No	4.0	7.4009060022650095	1.335	91.407		GetAnswer	Mixed
7.0	1	91.426	0.019	159.719	0.0	0.0	12.9451	4.0	955.0	2.0	Certain	4.3	-3.1	0.0	No		7.4009060022650095				ShowChoice	Mixed
7.0	1	95.438	0.012	163.731	0.0	0.0	12.9451	1.0	955.0	2.0	Certain	4.3	-3.1	0.0	No		7.4009060022650095				ShowResult	Mixed
7.0	1	96.458	0.02	164.751	0.0	0.0	12.9451	2.305	955.0	2.0	Certain	4.3	-3.1	0.0	No		7.4009060022650095				ISITrial	Mixed
8.0	1	98.782	0.019	167.075	0.9	-3.0	13.0576	3.0	955.0	0.4	Outcome1	0.9	-6.86	3112.5	Yes	2.0	7.75764439411098	1.933	100.715		GetAnswer	Mixed
8.0	1	100.737	0.022	169.03	0.9	-3.0	13.0576	4.0	955.0	0.4	Outcome1	0.9	-6.86	3112.5	Yes		7.75764439411098				ShowChoice	Mixed
8.0	1	104.749	0.012	173.042	0.9	-3.0	13.0576	1.0	955.0	0.4	Outcome1	0.9	-6.86	3112.5	Yes		7.75764439411098				ShowResult	Mixed
8.0	1	105.769	0.02	174.062	0.9	-3.0	13.0576	3.506	955.0	0.4	Outcome1	0.9	-6.86	3112.5	Yes		7.75764439411098				ISITrial	Mixed
8.0	1	112.422	0.014	180.715	0.9	-3.0	13.0576	1.345	955.0	0.4	Outcome1	0.9	-6.86	3112.5	Yes		7.75764439411098			728.0	TrialHappiness	Mixed
8.0	1	116.434	4.012	184.727	0.9	-3.0	13.0576	4.45	955.0	0.4	Outcome1	0.9	-6.86	3112.5	Yes		7.75764439411098				ISIRate	Mixed
9.0	1	120.914	0.03	189.207	0.0	0.0	13.0576	3.0	955.0	1.2	Certain	-0.1	-1.25	0.0	No	4.0	-1.1514722536806299	1.308	122.222		GetAnswer	Mixed
9.0	1	122.235	0.013	190.528	0.0	0.0	13.0576	4.0	955.0	1.2	Certain	-0.1	-1.25	0.0	No		-1.1514722536806299				ShowChoice	Mixed
9.0	1	126.247	0.012	194.54	0.0	0.0	13.0576	1.0	955.0	1.2	Certain	-0.1	-1.25	0.0	No		-1.1514722536806299				ShowResult	Mixed
9.0	1	127.267	0.02	195.56	0.0	0.0	13.0576	2.0	955.0	1.2	Certain	-0.1	-1.25	0.0	No		-1.1514722536806299				ISITrial	Mixed
10.0	1	129.289	0.022	197.582	12.1	2.61	14.5701	3.0	955.0	4.2	Outcome1	12.1	5.22	4000.0	Yes	2.0	6.876557191392981	1.03	130.319		GetAnswer	Loss
10.0	1	130.343	0.024	198.636	12.1	2.61	14.5701	4.0	955.0	4.2	Outcome1	12.1	5.22	4000.0	Yes		6.876557191392981				ShowChoice	Loss
10.0	1	134.355	0.012	202.648	12.1	2.61	14.5701	1.0	955.0	4.2	Outcome1	12.1	5.22	4000.0	Yes		6.876557191392981				ShowResult	Loss
10.0	1	135.374	0.019	203.667	12.1	2.61	14.5701	2.0	955.0	4.2	Outcome1	12.1	5.22	4000.0	Yes		6.876557191392981				ISITrial	Loss
10.0	1	141.426	0.029	209.719	12.1	2.61	14.5701	1.963	955.0	4.2	Outcome1	12.1	5.22	4000.0	Yes		6.876557191392981			768.0	TrialHappiness	Loss
10.0	1	145.438	4.012	213.731	12.1	2.61	14.5701	8.0	955.0	4.2	Outcome1	12.1	5.22	4000.0	Yes		6.876557191392981				ISIRate	Loss
11.0	1	153.462	0.024	221.755	-0.5	-3.0	14.5076	3.0	955.0	0.82	Outcome2	-6.95	-0.5	0.0	No	2.0	6.45413363533409	2.047	155.509		GetAnswer	Mixed
11.0	1	155.534	0.025	223.827	-0.5	-3.0	14.5076	4.0	955.0	0.82	Outcome2	-6.95	-0.5	0.0	No		6.45413363533409				ShowChoice	Mixed
11.0	1	159.546	0.012	227.839	-0.5	-3.0	14.5076	1.0	955.0	0.82	Outcome2	-6.95	-0.5	0.0	No		6.45413363533409				ShowResult	Mixed
11.0	1	160.566	0.02	228.859	-0.5	-3.0	14.5076	3.324	955.0	0.82	Outcome2	-6.95	-0.5	0.0	No		6.45413363533409				ISITrial	Mixed
12.0	1	163.909	0.019	232.202	12.65	6.32	16.0888	3.0	955.0	3.16	Outcome1	12.65	13.7	2618.75	Yes	2.0	-1.0496413741034398	1.097	165.006		GetAnswer	Loss
12.0	1	165.029	0.023	233.322	12.65	6.32	16.0888	4.0	955.0	3.16	Outcome1	12.65	13.7	2618.75	Yes		-1.0496413741034398				ShowChoice	Loss
12.0	1	169.041	0.012	237.334	12.65	6.32	16.0888	1.0	955.0	3.16	Outcome1	12.65	13.7	2618.75	Yes		-1.0496413741034398				ShowResult	Loss
12.0	1	170.061	0.02	238.354	12.65	6.32	16.0888	6.642	955.0	3.16	Outcome1	12.65	13.7	2618.75	Yes		-1.0496413741034398				ISITrial	Loss
12.0	1	179.356	0.023	247.649	12.65	6.32	16.0888	1.762	955.0	3.16	Outcome1	12.65	13.7	2618.75	Yes		-1.0496413741034398			768.0	TrialHappiness	Loss
12.0	1	183.368	4.012	251.661	12.65	6.32	16.0888	2.475	955.0	3.16	Outcome1	12.65	13.7	2618.75	Yes		-1.0496413741034398				ISIRate	Loss
13.0	1	185.875	0.032	254.168	0.23	1.0	16.1176	3.0	955.0	0.66	Outcome2	1.3	0.23	0.0	No	2.0	-1.06728954322386	1.153	187.028		GetAnswer	Mixed
13.0	1	187.045	0.017	255.338	0.23	1.0	16.1176	4.0	955.0	0.66	Outcome2	1.3	0.23	0.0	No		-1.06728954322386				ShowChoice	Mixed
13.0	1	191.057	0.012	259.35	0.23	1.0	16.1176	1.0	955.0	0.66	Outcome2	1.3	0.23	0.0	No		-1.06728954322386				ShowResult	Mixed
13.0	1	192.077	0.02	260.37	0.23	1.0	16.1176	3.48	955.0	0.66	Outcome2	1.3	0.23	0.0	No		-1.06728954322386				ISITrial	Mixed
14.0	1	195.587	0.03	263.88	6.5	-0.3	16.9301	3.0	955.0	1.68	Outcome1	6.5	-0.59	0.0	No	2.0	7.089467723669309	1.234	196.821		GetAnswer	Gain
14.0	1	196.841	0.02	265.134	6.5	-0.3	16.9301	4.0	955.0	1.68	Outcome1	6.5	-0.59	0.0	No		7.089467723669309				ShowChoice	Gain
14.0	1	200.853	0.012	269.146	6.5	-0.3	16.9301	1.0	955.0	1.68	Outcome1	6.5	-0.59	0.0	No		7.089467723669309				ShowResult	Gain
14.0	1	201.873	0.02	270.166	6.5	-0.3	16.9301	5.019	955.0	1.68	Outcome1	6.5	-0.59	0.0	No		7.089467723669309				ISITrial	Gain
15.0	1	206.921	0.029	275.214	2.0	2.0	17.1801	3.0	955.0	2.8	Certain	-1.8	5.5	3348.5	Yes	4.0	7.3012457531143795	1.292	208.213		GetAnswer	Gain
15.0	1	208.225	0.012	276.518	2.0	2.0	17.1801	4.0	955.0	2.8	Certain	-1.8	5.5	3348.5	Yes		7.3012457531143795				ShowChoice	Gain
15.0	1	212.237	0.012	280.53	2.0	2.0	17.1801	1.0	955.0	2.8	Certain	-1.8	5.5	3348.5	Yes		7.3012457531143795				ShowResult	Gain
15.0	1	213.257	0.02	281.55	2.0	2.0	17.1801	7.614	955.0	2.8	Certain	-1.8	5.5	3348.5	Yes		7.3012457531143795				ISITrial	Gain
15.0	1	224.273	0.029	292.566	2.0	2.0	17.1801	2.548	955.0	2.8	Certain	-1.8	5.5	3348.5	Yes		7.3012457531143795			784.0	TrialHappiness	Gain
15.0	1	228.285	4.012	296.578	2.0	2.0	17.1801	5.394	955.0	2.8	Certain	-1.8	5.5	3348.5	Yes		7.3012457531143795				ISIRate	Gain
16.0	1	233.701	0.022	301.994	12.5	2.63	18.7426	3.0	955.0	1.68	Outcome2	5.26	12.5	0.0	No	2.0	7.24122310305776	0.971	234.672		GetAnswer	Loss
16.0	1	234.687	0.015	302.98	12.5	2.63	18.7426	4.0	955.0	1.68	Outcome2	5.26	12.5	0.0	No		7.24122310305776				ShowChoice	Loss
16.0	1	238.699	0.012	306.992	12.5	2.63	18.7426	1.0	955.0	1.68	Outcome2	5.26	12.5	0.0	No		7.24122310305776				ShowResult	Loss
16.0	1	239.719	0.02	308.012	12.5	2.63	18.7426	3.008	955.0	1.68	Outcome2	5.26	12.5	0.0	No		7.24122310305776				ISITrial	Loss
17.0	1	242.745	0.018	311.038	0.0	0.0	18.7426	3.0	955.0	1.5	Certain	4.1	-3.33	3041.5	Yes	4.0	7.43488108720272	1.425	244.17		GetAnswer	Mixed
17.0	1	244.183	0.013	312.476	0.0	0.0	18.7426	4.0	955.0	1.5	Certain	4.1	-3.33	3041.5	Yes		7.43488108720272				ShowChoice	Mixed
17.0	1	248.195	0.012	316.488	0.0	0.0	18.7426	1.0	955.0	1.5	Certain	4.1	-3.33	3041.5	Yes		7.43488108720272				ShowResult	Mixed
17.0	1	249.214	0.019	317.507	0.0	0.0	18.7426	3.566	955.0	1.5	Certain	4.1	-3.33	3041.5	Yes		7.43488108720272				ISITrial	Mixed
17.0	1	255.851	0.017	324.144	0.0	0.0	18.7426	2.209	955.0	1.5	Certain	4.1	-3.33	3041.5	Yes		7.43488108720272			764.0	TrialHappiness	Mixed
17.0	1	259.863	4.012	328.156	0.0	0.0	18.7426	4.166	955.0	1.5	Certain	4.1	-3.33	3041.5	Yes		7.43488108720272				ISIRate	Mixed
18.0	1	264.059	0.03	332.352	-0.07	0.0	18.7338	3.0	955.0	0.52	Outcome1	-0.07	1.1	0.0	No	2.0	-1.1687429218573	1.589	265.648		GetAnswer	Mixed
18.0	1	265.663	0.015	333.956	-0.07	0.0	18.7338	4.0	955.0	0.52	Outcome1	-0.07	1.1	0.0	No		-1.1687429218573				ShowChoice	Mixed
18.0	1	269.675	0.012	337.968	-0.07	0.0	18.7338	1.0	955.0	0.52	Outcome1	-0.07	1.1	0.0	No		-1.1687429218573				ShowResult	Mixed
18.0	1	270.695	0.02	338.988	-0.07	0.0	18.7338	6.787	955.0	0.52	Outcome1	-0.07	1.1	0.0	No		-1.1687429218573				ISITrial	Mixed
19.0	1	277.499	0.017	345.792	-0.7	-5.0	18.6463	3.0	955.0	0.66	Outcome2	-8.88	-0.7	0.0	No	2.0	8.1845979614949	1.913	279.412		GetAnswer	Mixed
19.0	1	279.438	0.026	347.731	-0.7	-5.0	18.6463	4.0	955.0	0.66	Outcome2	-8.88	-0.7	0.0	No		8.1845979614949				ShowChoice	Mixed
19.0	1	283.45	0.012	351.743	-0.7	-5.0	18.6463	1.0	955.0	0.66	Outcome2	-8.88	-0.7	0.0	No		8.1845979614949				ShowResult	Mixed
19.0	1	284.47	0.02	352.763	-0.7	-5.0	18.6463	2.0	955.0	0.66	Outcome2	-8.88	-0.7	0.0	No		8.1845979614949				ISITrial	Mixed
20.0	1	286.492	0.022	354.785	2.3	1.15	18.9338	3.0	955.0	0.82	Outcome2	3.5	2.3	2921.25	Yes	2.0	-1.20479426198565	1.108	287.6		GetAnswer	Mixed
20.0	1	287.612	0.012	355.905	2.3	1.15	18.9338	4.0	955.0	0.82	Outcome2	3.5	2.3	2921.25	Yes		-1.20479426198565				ShowChoice	Mixed
20.0	1	291.624	0.012	359.917	2.3	1.15	18.9338	1.0	955.0	0.82	Outcome2	3.5	2.3	2921.25	Yes		-1.20479426198565				ShowResult	Mixed
20.0	1	292.644	0.02	360.937	2.3	1.15	18.9338	8.0	955.0	0.82	Outcome2	3.5	2.3	2921.25	Yes		-1.20479426198565				ISITrial	Mixed
20.0	1	303.61	0.021	371.903	2.3	1.15	18.9338	1.56	955.0	0.82	Outcome2	3.5	2.3	2921.25	Yes		-1.20479426198565			728.0	TrialHappiness	Mixed
20.0	1	307.622	4.012	375.915	2.3	1.15	18.9338	3.685	955.0	0.82	Outcome2	3.5	2.3	2921.25	Yes		-1.20479426198565				ISIRate	Mixed
21.0	1	311.333	0.026	379.626	12.13	6.06	20.4501	3.0	955.0	2.8	Outcome1	12.13	13.5	0.0	No	2.0	-1.3689127972819901	1.026	312.359		GetAnswer	Loss
21.0	1	312.386	0.027	380.679	12.13	6.06	20.4501	4.0	955.0	2.8	Outcome1	12.13	13.5	0.0	No		-1.3689127972819901				ShowChoice	Loss
21.0	1	316.398	0.012	384.691	12.13	6.06	20.4501	1.0	955.0	2.8	Outcome1	12.13	13.5	0.0	No		-1.3689127972819901				ShowResult	Loss
21.0	1	317.418	0.02	385.711	12.13	6.06	20.4501	3.555	955.0	2.8	Outcome1	12.13	13.5	0.0	No		-1.3689127972819901				ISITrial	Loss
22.0	1	320.995	0.022	389.288	-5.0	-5.0	19.8251	3.0	955.0	1.0	Certain	-0.3	-9.79	3219.5	Yes	4.0	9.48584371460928	1.703	322.698		GetAnswer	Mixed
22.0	1	322.717	0.019	391.01	-5.0	-5.0	19.8251	4.0	955.0	1.0	Certain	-0.3	-9.79	3219.5	Yes		9.48584371460928				ShowChoice	Mixed
22.0	1	326.729	0.012	395.022	-5.0	-5.0	19.8251	1.0	955.0	1.0	Certain	-0.3	-9.79	3219.5	Yes		9.48584371460928				ShowResult	Mixed
22.0	1	327.749	0.02	396.042	-5.0	-5.0	19.8251	6.793	955.0	1.0	Certain	-0.3	-9.79	3219.5	Yes		9.48584371460928				ISITrial	Mixed
22.0	1	337.795	0.023	406.088	-5.0	-5.0	19.8251	1.679	955.0	1.0	Certain	-0.3	-9.79	3219.5	Yes		9.48584371460928			744.0	TrialHappiness	Mixed
22.0	1	341.807	4.012	410.1	-5.0	-5.0	19.8251	4.878	955.0	1.0	Certain	-0.3	-9.79	3219.5	Yes		9.48584371460928				ISIRate	Mixed
23.0	1	346.705	0.02	414.998	-6.0	-6.0	19.0751	3.0	955.0	0.4	Certain	-10.57	-1.1	0.0	No	4.0	9.471121177802939	1.676	348.381		GetAnswer	Mixed
23.0	1	348.394	0.013	416.687	-6.0	-6.0	19.0751	4.0	955.0	0.4	Certain	-10.57	-1.1	0.0	No		9.471121177802939				ShowChoice	Mixed
23.0	1	352.406	0.012	420.699	-6.0	-6.0	19.0751	1.0	955.0	0.4	Certain	-10.57	-1.1	0.0	No		9.471121177802939				ShowResult	Mixed
23.0	1	353.425	0.019	421.718	-6.0	-6.0	19.0751	8.0	955.0	0.4	Certain	-10.57	-1.1	0.0	No		9.471121177802939				ISITrial	Mixed
24.0	1	361.449	0.024	429.742	-0.9	-6.0	18.9626	3.0	955.0	0.52	Outcome1	-0.9	-10.61	3255.0	Yes	2.0	9.710079275198188	2.017	363.466		GetAnswer	Mixed
24.0	1	363.489	0.023	431.782	-0.9	-6.0	18.9626	4.0	955.0	0.52	Outcome1	-0.9	-10.61	3255.0	Yes		9.710079275198188				ShowChoice	Mixed
24.0	1	367.501	0.012	435.794	-0.9	-6.0	18.9626	1.0	955.0	0.52	Outcome1	-0.9	-10.61	3255.0	Yes		9.710079275198188				ShowResult	Mixed
24.0	1	368.521	0.02	436.814	-0.9	-6.0	18.9626	2.0	955.0	0.52	Outcome1	-0.9	-10.61	3255.0	Yes		9.710079275198188				ISITrial	Mixed
24.0	1	373.82	0.022	442.113	-0.9	-6.0	18.9626	1.862	955.0	0.52	Outcome1	-0.9	-10.61	3255.0	Yes		9.710079275198188			776.0	TrialHappiness	Mixed
24.0	1	377.848	4.028	446.141	-0.9	-6.0	18.9626	5.02	955.0	0.52	Outcome1	-0.9	-10.61	3255.0	Yes		9.710079275198188				ISIRate	Mixed
25.0	1	382.897	0.029	451.19	3.84	1.92	19.4426	3.0	955.0	2.22	Outcome1	3.84	5.1	0.0	No	2.0	-1.25679501698754	1.103	384.0		GetAnswer	Gain
25.0	1	384.017	0.017	452.31	3.84	1.92	19.4426	4.0	955.0	2.22	Outcome1	3.84	5.1	0.0	No		-1.25679501698754				ShowChoice	Gain
25.0	1	388.046	0.029	456.339	3.84	1.92	19.4426	1.0	955.0	2.22	Outcome1	3.84	5.1	0.0	No		-1.25679501698754				ShowResult	Gain
25.0	1	389.065	0.019	457.358	3.84	1.92	19.4426	3.749	955.0	2.22	Outcome1	3.84	5.1	0.0	No		-1.25679501698754				ISITrial	Gain
26.0	1	392.843	0.029	461.136	7.03	3.52	20.3214	3.0	955.0	5.0	Outcome1	7.03	8.3	0.0	No	2.0	-1.27368818422046	0.937	393.78		GetAnswer	Gain
26.0	1	393.796	0.016	462.089	7.03	3.52	20.3214	4.0	955.0	5.0	Outcome1	7.03	8.3	0.0	No		-1.27368818422046				ShowChoice	Gain
26.0	1	397.808	0.012	466.101	7.03	3.52	20.3214	1.0	955.0	5.0	Outcome1	7.03	8.3	0.0	No		-1.27368818422046				ShowResult	Gain
26.0	1	398.828	0.02	467.121	7.03	3.52	20.3214	7.834	955.0	5.0	Outcome1	7.03	8.3	0.0	No		-1.27368818422046				ISITrial	Gain
27.0	1	406.684	0.022	474.977	11.01	5.5	21.6976	3.0	955.0	5.0	Outcome1	11.01	12.3	2549.75	Yes	2.0	-1.29058135145338	1.173	407.857		GetAnswer	Loss
27.0	1	407.888	0.031	476.181	11.01	5.5	21.6976	4.0	955.0	5.0	Outcome1	11.01	12.3	2549.75	Yes		-1.29058135145338				ShowChoice	Loss
27.0	1	411.917	0.029	480.21	11.01	5.5	21.6976	1.0	955.0	5.0	Outcome1	11.01	12.3	2549.75	Yes		-1.29058135145338				ShowResult	Loss
27.0	1	412.937	0.02	481.23	11.01	5.5	21.6976	4.225	955.0	5.0	Outcome1	11.01	12.3	2549.75	Yes		-1.29058135145338				ISITrial	Loss
27.0	1	419.757	0.024	488.05	11.01	5.5	21.6976	1.714	955.0	5.0	Outcome1	11.01	12.3	2549.75	Yes	2{-2}4{-4}	-1.29058135145338	1.714	421.471	720.0	TrialHappiness	Loss
27.0	1	423.786	4.029	492.079	11.01	5.5	21.6976	2.199	955.0	5.0	Outcome1	11.01	12.3	2549.75	Yes		-1.29058135145338				ISIRate	Loss
	1	426.009	0.024	494.302				-0.001								{SPACE}		79.822	505.831		Rest	
	1	505.847	0.016	574.14				4.0													BlockHappyPreview	
	1	509.859	0.012	578.152				1.41												744.0	BlockStartHappiness	
	1	519.689	0.019	587.982				-0.001								5.0		2.503	522.192		ScanWait	
	2	0.021	0.021	590.506				10.0													GetReady	
28.0	2	10.051	0.03	600.536	0.44	0.22	21.7526	3.0	70.0	3.6	Outcome1	0.44	11.9	0.0	No	2.0	-11.4625850340136	1.07	11.121		GetAnswer	Loss
28.0	2	11.137	0.016	601.622	0.44	0.22	21.7526	4.0	70.0	3.6	Outcome1	0.44	11.9	0.0	No		-11.4625850340136				ShowChoice	Loss
28.0	2	15.166	0.029	605.651	0.44	0.22	21.7526	1.0	70.0	3.6	Outcome1	0.44	11.9	0.0	No		-11.4625850340136				ShowResult	Loss
28.0	2	16.186	0.02	606.671	0.44	0.22	21.7526	3.575	70.0	3.6	Outcome1	0.44	11.9	0.0	No		-11.4625850340136				ISITrial	Loss
29.0	2	19.78	0.019	610.265	-10.13	-4.0	20.4863	3.0	70.0	1.5	Outcome2	2.1	-10.13	3529.0	Yes	2.0	-12.226757369614502	1.318	21.098		GetAnswer	Mixed
29.0	2	21.117	0.019	611.602	-10.13	-4.0	20.4863	4.0	70.0	1.5	Outcome2	2.1	-10.13	3529.0	Yes		-12.226757369614502				ShowChoice	Mixed
29.0	2	25.129	0.012	615.614	-10.13	-4.0	20.4863	1.0	70.0	1.5	Outcome2	2.1	-10.13	3529.0	Yes		-12.226757369614502				ShowResult	Mixed
29.0	2	26.149	0.02	616.634	-10.13	-4.0	20.4863	3.955	70.0	1.5	Outcome2	2.1	-10.13	3529.0	Yes		-12.226757369614502				ISITrial	Mixed
29.0	2	33.688	0.032	624.173	-10.13	-4.0	20.4863	2.13	70.0	1.5	Outcome2	2.1	-10.13	3529.0	Yes		-12.226757369614502			616.0	TrialHappiness	Mixed
29.0	2	37.717	4.029	628.202	-10.13	-4.0	20.4863	6.116	70.0	1.5	Outcome2	2.1	-10.13	3529.0	Yes		-12.226757369614502				ISIRate	Mixed
30.0	2	43.868	0.035	634.353	-2.31	-1.16	20.1975	3.0	70.0	1.68	Outcome2	8.5	-2.31	0.0	No	2.0	-10.8140589569161	1.221	45.089		GetAnswer	Gain
30.0	2	45.106	0.017	635.591	-2.31	-1.16	20.1975	4.0	70.0	1.68	Outcome2	8.5	-2.31	0.0	No		-10.8140589569161				ShowChoice	Gain
30.0	2	49.134	0.028	639.619	-2.31	-1.16	20.1975	1.0	70.0	1.68	Outcome2	8.5	-2.31	0.0	No		-10.8140589569161				ShowResult	Gain
30.0	2	50.154	0.02	640.639	-2.31	-1.16	20.1975	4.453	70.0	1.68	Outcome2	8.5	-2.31	0.0	No		-10.8140589569161				ISITrial	Gain
31.0	2	54.634	0.027	645.119	0.0	0.0	20.1975	3.0	70.0	2.0	Certain	-1.83	0.57	2503.25	Yes	4.0	2.39720332577475	1.469	56.103		GetAnswer	Mixed
31.0	2	56.122	0.019	646.607	0.0	0.0	20.1975	4.0	70.0	2.0	Certain	-1.83	0.57	2503.25	Yes		2.39720332577475				ShowChoice	Mixed
31.0	2	60.15	0.028	650.635	0.0	0.0	20.1975	1.0	70.0	2.0	Certain	-1.83	0.57	2503.25	Yes		2.39720332577475				ShowResult	Mixed
31.0	2	61.17	0.02	651.655	0.0	0.0	20.1975	4.786	70.0	2.0	Certain	-1.83	0.57	2503.25	Yes		2.39720332577475				ISITrial	Mixed
31.0	2	68.509	0.021	658.994	0.0	0.0	20.1975	0.843	70.0	2.0	Certain	-1.83	0.57	2503.25	Yes		2.39720332577475			568.0	TrialHappiness	Mixed
31.0	2	72.537	4.028	663.022	0.0	0.0	20.1975	2.013	70.0	2.0	Certain	-1.83	0.57	2503.25	Yes		2.39720332577475				ISIRate	Mixed
32.0	2	74.577	0.027	665.062	-12.54	-7.0	18.63	3.0	70.0	0.3	Outcome2	-1.3	-12.54	0.0	No	2.0	-11.2358276643991	2.135	76.712		GetAnswer	Mixed
32.0	2	76.733	0.021	667.218	-12.54	-7.0	18.63	4.0	70.0	0.3	Outcome2	-1.3	-12.54	0.0	No		-11.2358276643991				ShowChoice	Mixed
32.0	2	80.745	0.012	671.23	-12.54	-7.0	18.63	1.0	70.0	0.3	Outcome2	-1.3	-12.54	0.0	No		-11.2358276643991				ShowResult	Mixed
32.0	2	81.765	0.02	672.25	-12.54	-7.0	18.63	2.0	70.0	0.3	Outcome2	-1.3	-12.54	0.0	No		-11.2358276643991				ISITrial	Mixed
33.0	2	83.788	0.023	674.273	-1.35	-1.35	18.4612	3.0	70.0	2.22	Certain	9.1	-2.7	0.0	No	4.0	-11.800453514739198	1.292	85.08		GetAnswer	Gain
33.0	2	85.108	0.028	675.593	-1.35	-1.35	18.4612	4.0	70.0	2.22	Certain	9.1	-2.7	0.0	No		-11.800453514739198				ShowChoice	Gain
33.0	2	89.137	0.029	679.622	-1.35	-1.35	18.4612	1.0	70.0	2.22	Certain	9.1	-2.7	0.0	No		-11.800453514739198				ShowResult	Gain
33.0	2	90.157	0.02	680.642	-1.35	-1.35	18.4612	5.099	70.0	2.22	Certain	9.1	-2.7	0.0	No		-11.800453514739198				ISITrial	Gain
34.0	2	95.289	0.033	685.774	-5.27	1.0	17.8024	3.0	70.0	2.22	Outcome1	-5.27	7.1	3231.5	Yes	2.0	-12.365079365079401	1.82	97.109		GetAnswer	Gain
34.0	2	97.128	0.019	687.613	-5.27	1.0	17.8024	4.0	70.0	2.22	Outcome1	-5.27	7.1	3231.5	Yes		-12.365079365079401				ShowChoice	Gain
34.0	2	101.156	0.028	691.641	-5.27	1.0	17.8024	1.0	70.0	2.22	Outcome1	-5.27	7.1	3231.5	Yes		-12.365079365079401				ShowResult	Gain
34.0	2	102.176	0.02	692.661	-5.27	1.0	17.8024	4.784	70.0	2.22	Outcome1	-5.27	7.1	3231.5	Yes		-12.365079365079401				ISITrial	Gain
34.0	2	110.25	0.028	700.735	-5.27	1.0	17.8024	1.043	70.0	2.22	Outcome1	-5.27	7.1	3231.5	Yes		-12.365079365079401			564.0	TrialHappiness	Gain
34.0	2	114.279	4.029	704.764	-5.27	1.0	17.8024	4.926	70.0	2.22	Outcome1	-5.27	7.1	3231.5	Yes		-12.365079365079401				ISIRate	Gain
35.0	2	119.227	0.022	709.712	-1.0	-1.0	17.6774	3.0	70.0	0.2	Certain	-0.38	-2.76	0.0	No	4.0	2.3786848072562403	2.248	121.475		GetAnswer	Mixed
35.0	2	121.5	0.025	711.985	-1.0	-1.0	17.6774	4.0	70.0	0.2	Certain	-0.38	-2.76	0.0	No		2.3786848072562403				ShowChoice	Mixed
35.0	2	125.529	0.029	716.014	-1.0	-1.0	17.6774	1.0	70.0	0.2	Certain	-0.38	-2.76	0.0	No		2.3786848072562403				ShowResult	Mixed
35.0	2	126.549	0.02	717.034	-1.0	-1.0	17.6774	2.098	70.0	0.2	Certain	-0.38	-2.76	0.0	No		2.3786848072562403				ISITrial	Mixed
36.0	2	128.672	0.025	719.157	-5.92	1.0	16.9374	3.0	70.0	2.8	Outcome2	7.5	-5.92	3335.75	Yes	2.0	-13.421768707483	1.91	130.582		GetAnswer	Gain
36.0	2	130.611	0.029	721.096	-5.92	1.0	16.9374	4.0	70.0	2.8	Outcome2	7.5	-5.92	3335.75	Yes		-13.421768707483				ShowChoice	Gain
36.0	2	134.64	0.029	725.125	-5.92	1.0	16.9374	1.0	70.0	2.8	Outcome2	7.5	-5.92	3335.75	Yes		-13.421768707483				ShowResult	Gain
36.0	2	135.659	0.019	726.144	-5.92	1.0	16.9374	5.156	70.0	2.8	Outcome2	7.5	-5.92	3335.75	Yes		-13.421768707483				ISITrial	Gain
36.0	2	144.201	0.024	734.686	-5.92	1.0	16.9374	1.137	70.0	2.8	Outcome2	7.5	-5.92	3335.75	Yes		-13.421768707483			468.0	TrialHappiness	Gain
36.0	2	148.213	4.012	738.698	-5.92	1.0	16.9374	5.343	70.0	2.8	Outcome2	7.5	-5.92	3335.75	Yes		-13.421768707483				ISIRate	Gain
37.0	2	153.579	0.023	744.064	-4.0	-4.0	16.4374	3.0	70.0	1.2	Certain	1.9	-10.45	0.0	No	4.0	-12.3492063492063	2.022	155.601		GetAnswer	Mixed
37.0	2	155.619	0.018	746.104	-4.0	-4.0	16.4374	4.0	70.0	1.2	Certain	1.9	-10.45	0.0	No		-12.3492063492063				ShowChoice	Mixed
37.0	2	159.648	0.029	750.133	-4.0	-4.0	16.4374	1.0	70.0	1.2	Certain	1.9	-10.45	0.0	No		-12.3492063492063				ShowResult	Mixed
37.0	2	160.667	0.019	751.152	-4.0	-4.0	16.4374	3.598	70.0	1.2	Certain	1.9	-10.45	0.0	No		-12.3492063492063				ISITrial	Mixed
38.0	2	164.295	0.03	754.78	0.0	0.0	16.4374	3.0	70.0	1.0	Certain	0.42	-1.7	0.0	No	4.0	2.1196145124716597	1.606	165.901		GetAnswer	Mixed
38.0	2	165.916	0.015	756.401	0.0	0.0	16.4374	4.0	70.0	1.0	Certain	0.42	-1.7	0.0	No		2.1196145124716597				ShowChoice	Mixed
38.0	2	169.945	0.029	760.43	0.0	0.0	16.4374	1.0	70.0	1.0	Certain	0.42	-1.7	0.0	No		2.1196145124716597				ShowResult	Mixed
38.0	2	170.965	0.02	761.45	0.0	0.0	16.4374	4.787	70.0	1.0	Certain	0.42	-1.7	0.0	No		2.1196145124716597				ISITrial	Mixed
39.0	2	175.779	0.027	766.264	-6.0	-6.0	15.6874	3.0	70.0	2.0	Certain	-12.95	0.3	2864.25	Yes	4.0	-13.2517006802721	2.813	178.592		GetAnswer	Mixed
39.0	2	178.621	0.029	769.106	-6.0	-6.0	15.6874	4.0	70.0	2.0	Certain	-12.95	0.3	2864.25	Yes		-13.2517006802721				ShowChoice	Mixed
39.0	2	182.65	0.029	773.135	-6.0	-6.0	15.6874	1.0	70.0	2.0	Certain	-12.95	0.3	2864.25	Yes		-13.2517006802721				ShowResult	Mixed
39.0	2	183.669	0.019	774.154	-6.0	-6.0	15.6874	2.348	70.0	2.0	Certain	-12.95	0.3	2864.25	Yes		-13.2517006802721				ISITrial	Mixed
39.0	2	188.935	0.028	779.42	-6.0	-6.0	15.6874	0.676	70.0	2.0	Certain	-12.95	0.3	2864.25	Yes		-13.2517006802721			552.0	TrialHappiness	Mixed
39.0	2	192.964	4.029	783.449	-6.0	-6.0	15.6874	3.457	70.0	2.0	Certain	-12.95	0.3	2864.25	Yes		-13.2517006802721				ISIRate	Mixed
40.0	2	196.441	0.02	786.926	1.0	1.0	15.8124	3.0	70.0	2.0	Certain	-6.23	8.9	0.0	No	4.0	-15.1315192743764	1.38	197.821		GetAnswer	Gain
40.0	2	197.845	0.024	788.33	1.0	1.0	15.8124	4.0	70.0	2.0	Certain	-6.23	8.9	0.0	No		-15.1315192743764				ShowChoice	Gain
40.0	2	201.874	0.029	792.359	1.0	1.0	15.8124	1.0	70.0	2.0	Certain	-6.23	8.9	0.0	No		-15.1315192743764				ShowResult	Gain
40.0	2	202.893	0.019	793.378	1.0	1.0	15.8124	3.158	70.0	2.0	Certain	-6.23	8.9	0.0	No		-15.1315192743764				ISITrial	Gain
41.0	2	206.07	0.019	796.555	-4.18	-2.09	15.2899	3.0	70.0	2.8	Outcome2	11.5	-4.18	4000.0	Yes	2.0	-15.6780045351474	1.388	207.458		GetAnswer	Loss
41.0	2	207.474	0.016	797.959	-4.18	-2.09	15.2899	4.0	70.0	2.8	Outcome2	11.5	-4.18	4000.0	Yes		-15.6780045351474				ShowChoice	Loss
41.0	2	211.486	0.012	801.971	-4.18	-2.09	15.2899	1.0	70.0	2.8	Outcome2	11.5	-4.18	4000.0	Yes		-15.6780045351474				ShowResult	Loss
41.0	2	212.505	0.019	802.99	-4.18	-2.09	15.2899	4.506	70.0	2.8	Outcome2	11.5	-4.18	4000.0	Yes		-15.6780045351474				ISITrial	Loss
41.0	2	221.064	0.028	811.549	-4.18	-2.09	15.2899	0.726	70.0	2.8	Outcome2	11.5	-4.18	4000.0	Yes		-15.6780045351474			488.0	TrialHappiness	Loss
41.0	2	225.093	4.029	815.578	-4.18	-2.09	15.2899	8.0	70.0	2.8	Outcome2	11.5	-4.18	4000.0	Yes		-15.6780045351474				ISIRate	Loss
42.0	2	233.117	0.024	823.602	-7.0	-7.0	14.4149	3.0	70.0	0.2	Certain	-14.64	0.5	0.0	No	4.0	-15.136054421768698	2.122	235.239		GetAnswer	Mixed
42.0	2	235.257	0.018	825.742	-7.0	-7.0	14.4149	4.0	70.0	0.2	Certain	-14.64	0.5	0.0	No		-15.136054421768698				ShowChoice	Mixed
42.0	2	239.285	0.028	829.77	-7.0	-7.0	14.4149	1.0	70.0	0.2	Certain	-14.64	0.5	0.0	No		-15.136054421768698				ShowResult	Mixed
42.0	2	240.305	0.02	830.79	-7.0	-7.0	14.4149	6.248	70.0	0.2	Certain	-14.64	0.5	0.0	No		-15.136054421768698				ISITrial	Mixed
43.0	2	246.574	0.021	837.059	-5.0	-5.0	13.7899	3.0	70.0	0.2	Certain	-13.11	2.5	2775.75	Yes	4.0	-15.609977324263001	1.724	248.298		GetAnswer	Mixed
43.0	2	248.312	0.014	838.797	-5.0	-5.0	13.7899	4.0	70.0	0.2	Certain	-13.11	2.5	2775.75	Yes		-15.609977324263001				ShowChoice	Mixed
43.0	2	252.341	0.029	842.826	-5.0	-5.0	13.7899	1.0	70.0	0.2	Certain	-13.11	2.5	2775.75	Yes		-15.609977324263001				ShowResult	Mixed
43.0	2	253.361	0.02	843.846	-5.0	-5.0	13.7899	4.596	70.0	0.2	Certain	-13.11	2.5	2775.75	Yes		-15.609977324263001				ISITrial	Mixed
43.0	2	260.783	0.032	851.268	-5.0	-5.0	13.7899	1.278	70.0	0.2	Certain	-13.11	2.5	2775.75	Yes		-15.609977324263001			472.0	TrialHappiness	Mixed
43.0	2	264.812	4.029	855.297	-5.0	-5.0	13.7899	3.103	70.0	0.2	Certain	-13.11	2.5	2775.75	Yes		-15.609977324263001				ISIRate	Mixed
44.0	2	267.938	0.023	858.423	-12.51	-4.0	12.2261	3.0	70.0	0.66	Outcome1	-12.51	3.3	0.0	No	2.0	-15.811791383220001	1.93	269.868		GetAnswer	Mixed
44.0	2	269.894	0.026	860.379	-12.51	-4.0	12.2261	4.0	70.0	0.66	Outcome1	-12.51	3.3	0.0	No		-15.811791383220001				ShowChoice	Mixed
44.0	2	273.922	0.028	864.407	-12.51	-4.0	12.2261	1.0	70.0	0.66	Outcome1	-12.51	3.3	0.0	No		-15.811791383220001				ShowResult	Mixed
44.0	2	274.942	0.02	865.427	-12.51	-4.0	12.2261	2.42	70.0	0.66	Outcome1	-12.51	3.3	0.0	No		-15.811791383220001				ISITrial	Mixed
45.0	2	277.383	0.021	867.868	1.0	1.0	12.3511	3.0	70.0	2.48	Certain	-6.97	9.3	0.0	No	4.0	-16.2675736961451	0.806	278.189		GetAnswer	Gain
45.0	2	278.218	0.029	868.703	1.0	1.0	12.3511	4.0	70.0	2.48	Certain	-6.97	9.3	0.0	No		-16.2675736961451				ShowChoice	Gain
45.0	2	282.247	0.029	872.732	1.0	1.0	12.3511	1.0	70.0	2.48	Certain	-6.97	9.3	0.0	No		-16.2675736961451				ShowResult	Gain
45.0	2	283.267	0.02	873.752	1.0	1.0	12.3511	3.144	70.0	2.48	Certain	-6.97	9.3	0.0	No		-16.2675736961451				ISITrial	Gain
46.0	2	286.443	0.032	876.928	0.0	0.0	12.3511	3.0	70.0	2.0	Certain	1.72	-0.74	3841.25	Yes	4.0	2.4571050642479197	1.039	287.482		GetAnswer	Gain
46.0	2	287.496	0.014	877.981	0.0	0.0	12.3511	4.0	70.0	2.0	Certain	1.72	-0.74	3841.25	Yes		2.4571050642479197				ShowChoice	Gain
46.0	2	291.525	0.029	882.01	0.0	0.0	12.3511	1.0	70.0	2.0	Certain	1.72	-0.74	3841.25	Yes		2.4571050642479197				ShowResult	Gain
46.0	2	292.544	0.019	883.029	0.0	0.0	12.3511	2.246	70.0	2.0	Certain	1.72	-0.74	3841.25	Yes		2.4571050642479197				ISITrial	Gain
46.0	2	298.679	0.02	889.164	0.0	0.0	12.3511	1.732	70.0	2.0	Certain	1.72	-0.74	3841.25	Yes		2.4571050642479197			448.0	TrialHappiness	Gain
46.0	2	302.708	4.029	893.193	0.0	0.0	12.3511	7.365	70.0	2.0	Certain	1.72	-0.74	3841.25	Yes		2.4571050642479197				ISIRate	Gain
47.0	2	310.097	0.024	900.582	-5.07	-2.54	11.7173	3.0	70.0	3.16	Outcome2	11.7	-5.07	0.0	No	2.0	-16.770975056689302	1.407	311.504		GetAnswer	Loss
47.0	2	311.535	0.031	902.02	-5.07	-2.54	11.7173	4.0	70.0	3.16	Outcome2	11.7	-5.07	0.0	No		-16.770975056689302				ShowChoice	Loss
47.0	2	315.563	0.028	906.048	-5.07	-2.54	11.7173	1.0	70.0	3.16	Outcome2	11.7	-5.07	0.0	No		-16.770975056689302				ShowResult	Loss
47.0	2	316.583	0.02	907.068	-5.07	-2.54	11.7173	2.0	70.0	3.16	Outcome2	11.7	-5.07	0.0	No		-16.770975056689302				ISITrial	Loss
48.0	2	318.606	0.023	909.091	1.0	1.0	11.8423	3.0	70.0	3.16	Certain	-0.01	2.42	2831.75	Yes	4.0	2.4332955404384	0.748	319.354		GetAnswer	Gain
48.0	2	319.375	0.021	909.86	1.0	1.0	11.8423	4.0	70.0	3.16	Certain	-0.01	2.42	2831.75	Yes		2.4332955404384				ShowChoice	Gain
48.0	2	323.403	0.028	913.888	1.0	1.0	11.8423	1.0	70.0	3.16	Certain	-0.01	2.42	2831.75	Yes		2.4332955404384				ShowResult	Gain
48.0	2	324.423	0.02	914.908	1.0	1.0	11.8423	3.692	70.0	3.16	Certain	-0.01	2.42	2831.75	Yes		2.4332955404384				ISITrial	Gain
48.0	2	330.993	0.027	921.478	1.0	1.0	11.8423	0.928	70.0	3.16	Certain	-0.01	2.42	2831.75	Yes		2.4332955404384			504.0	TrialHappiness	Gain
48.0	2	335.021	4.028	925.506	1.0	1.0	11.8423	3.327	70.0	3.16	Certain	-0.01	2.42	2831.75	Yes		2.4332955404384				ISIRate	Gain
49.0	2	338.381	0.033	928.866	-3.0	-3.0	11.4673	3.0	70.0	4.2	Certain	6.1	-12.48	0.0	No	4.0	-18.5804988662132	1.604	339.985		GetAnswer	Gain
49.0	2	340.003	0.018	930.488	-3.0	-3.0	11.4673	4.0	70.0	4.2	Certain	6.1	-12.48	0.0	No		-18.5804988662132				ShowChoice	Gain
49.0	2	344.032	0.029	934.517	-3.0	-3.0	11.4673	1.0	70.0	4.2	Certain	6.1	-12.48	0.0	No		-18.5804988662132				ShowResult	Gain
49.0	2	345.051	0.019	935.536	-3.0	-3.0	11.4673	8.0	70.0	4.2	Certain	6.1	-12.48	0.0	No		-18.5804988662132				ISITrial	Gain
50.0	2	353.075	0.024	943.56	-11.37	-2.0	10.046	3.0	70.0	3.16	Outcome1	-11.37	7.7	3547.25	Yes	2.0	-19.0725623582766	1.936	355.011		GetAnswer	Gain
50.0	2	355.031	0.02	945.516	-11.37	-2.0	10.046	4.0	70.0	3.16	Outcome1	-11.37	7.7	3547.25	Yes		-19.0725623582766				ShowChoice	Gain
50.0	2	359.043	0.012	949.528	-11.37	-2.0	10.046	1.0	70.0	3.16	Outcome1	-11.37	7.7	3547.25	Yes		-19.0725623582766				ShowResult	Gain
50.0	2	360.063	0.02	950.548	-11.37	-2.0	10.046	7.537	70.0	3.16	Outcome1	-11.37	7.7	3547.25	Yes		-19.0725623582766				ISITrial	Gain
50.0	2	371.196	0.03	961.681	-11.37	-2.0	10.046	1.072	70.0	3.16	Outcome1	-11.37	7.7	3547.25	Yes		-19.0725623582766			444.0	TrialHappiness	Gain
50.0	2	375.225	4.029	965.71	-11.37	-2.0	10.046	6.189	70.0	3.16	Outcome1	-11.37	7.7	3547.25	Yes		-19.0725623582766				ISIRate	Gain
51.0	2	381.443	0.029	971.928	-1.0	-1.0	9.921	3.0	70.0	4.2	Certain	-10.44	8.1	0.0	No	4.0	-18.544217687074802	0.878	382.321		GetAnswer	Gain
51.0	2	382.346	0.025	972.831	-1.0	-1.0	9.921	4.0	70.0	4.2	Certain	-10.44	8.1	0.0	No		-18.544217687074802				ShowChoice	Gain
51.0	2	386.375	0.029	976.86	-1.0	-1.0	9.921	1.0	70.0	4.2	Certain	-10.44	8.1	0.0	No		-18.544217687074802				ShowResult	Gain
51.0	2	387.394	0.019	977.879	-1.0	-1.0	9.921	5.508	70.0	4.2	Certain	-10.44	8.1	0.0	No		-18.544217687074802				ISITrial	Gain
52.0	2	392.928	0.026	983.413	-7.0	-7.0	9.046	3.0	70.0	0.3	Certain	2.7	-16.27	0.0	No	4.0	-18.968253968254	2.155	395.083		GetAnswer	Mixed
52.0	2	395.101	0.018	985.586	-7.0	-7.0	9.046	4.0	70.0	0.3	Certain	2.7	-16.27	0.0	No		-18.968253968254				ShowChoice	Mixed
52.0	2	399.129	0.028	989.614	-7.0	-7.0	9.046	1.0	70.0	0.3	Certain	2.7	-16.27	0.0	No		-18.968253968254				ShowResult	Mixed
52.0	2	400.149	0.02	990.634	-7.0	-7.0	9.046	5.913	70.0	0.3	Certain	2.7	-16.27	0.0	No		-18.968253968254				ISITrial	Mixed
53.0	2	406.084	0.022	996.569	-1.0	-1.0	8.921	3.0	70.0	1.82	Certain	-10.69	8.7	2996.75	Yes	4.0	-19.392290249433103	1.063	407.147		GetAnswer	Gain
53.0	2	407.17	0.023	997.655	-1.0	-1.0	8.921	4.0	70.0	1.82	Certain	-10.69	8.7	2996.75	Yes		-19.392290249433103				ShowChoice	Gain
53.0	2	411.199	0.029	1001.684	-1.0	-1.0	8.921	1.0	70.0	1.82	Certain	-10.69	8.7	2996.75	Yes		-19.392290249433103				ShowResult	Gain
53.0	2	412.219	0.02	1002.704	-1.0	-1.0	8.921	3.66	70.0	1.82	Certain	-10.69	8.7	2996.75	Yes		-19.392290249433103				ISITrial	Gain
53.0	2	418.922	0.029	1009.407	-1.0	-1.0	8.921	0.742	70.0	1.82	Certain	-10.69	8.7	2996.75	Yes		-19.392290249433103			560.0	TrialHappiness	Gain
53.0	2	422.951	4.029	1013.436	-1.0	-1.0	8.921	3.987	70.0	1.82	Certain	-10.69	8.7	2996.75	Yes		-19.392290249433103				ISIRate	Gain
54.0	2	426.963	0.025	1017.448	-1.0	-1.0	8.796	3.0	70.0	4.2	Certain	-11.69	10.1	0.0	No	4.0	-21.7891156462585	1.72	428.683		GetAnswer	Gain
54.0	2	428.701	0.018	1019.186	-1.0	-1.0	8.796	4.0	70.0	4.2	Certain	-11.69	10.1	0.0	No		-21.7891156462585				ShowChoice	Gain
54.0	2	432.73	0.029	1023.215	-1.0	-1.0	8.796	1.0	70.0	4.2	Certain	-11.69	10.1	0.0	No		-21.7891156462585				ShowResult	Gain
54.0	2	433.75	0.02	1024.235	-1.0	-1.0	8.796	8.0	70.0	4.2	Certain	-11.69	10.1	0.0	No		-21.7891156462585				ISITrial	Gain
	2	441.773	0.023	1032.258				-0.001								{SPACE}		63.308	505.081		Rest	
	2	505.096	0.015	1095.581				4.0													BlockHappyPreview	
	2	509.108	0.012	1099.593				0.859												568.0	BlockStartHappiness	
	2	516.146	0.025	1106.631				-0.001								5.0		2.491	518.637		ScanWait	
	3	0.016	0.016	1109.138				10.0													GetReady	
55.0	3	10.046	0.03	1119.168	-2.0	-2.0	8.546	3.0	955.0	0.82	Certain	-5.07	1.5	2533.25	Yes	4.0	6.57417893544734	1.695	11.741		GetAnswer	Mixed
55.0	3	11.768	0.027	1120.89	-2.0	-2.0	8.546	4.0	955.0	0.82	Certain	-5.07	1.5	2533.25	Yes		6.57417893544734				ShowChoice	Mixed
55.0	3	15.797	0.029	1124.919	-2.0	-2.0	8.546	1.0	955.0	0.82	Certain	-5.07	1.5	2533.25	Yes		6.57417893544734				ShowResult	Mixed
55.0	3	16.816	0.019	1125.938	-2.0	-2.0	8.546	7.709	955.0	0.82	Certain	-5.07	1.5	2533.25	Yes		6.57417893544734				ISITrial	Mixed
55.0	3	27.114	0.025	1136.236	-2.0	-2.0	8.546	0.659	955.0	0.82	Certain	-5.07	1.5	2533.25	Yes		6.57417893544734			560.0	TrialHappiness	Mixed
55.0	3	31.142	4.028	1140.264	-2.0	-2.0	8.546	2.133	955.0	0.82	Certain	-5.07	1.5	2533.25	Yes		6.57417893544734				ISIRate	Mixed
56.0	3	33.299	0.024	1142.421	10.3	1.58	9.8335	3.0	955.0	5.0	Outcome2	3.15	10.3	0.0	No	2.0	7.14835787089468	1.135	34.434		GetAnswer	Gain
56.0	3	34.452	0.017	1143.574	10.3	1.58	9.8335	4.0	955.0	5.0	Outcome2	3.15	10.3	0.0	No		7.14835787089468				ShowChoice	Gain
56.0	3	38.481	0.029	1147.603	10.3	1.58	9.8335	1.0	955.0	5.0	Outcome2	3.15	10.3	0.0	No		7.14835787089468				ShowResult	Gain
56.0	3	39.501	0.02	1148.623	10.3	1.58	9.8335	4.697	955.0	5.0	Outcome2	3.15	10.3	0.0	No		7.14835787089468				ISITrial	Gain
57.0	3	44.231	0.033	1153.353	7.9	0.15	10.821	3.0	955.0	3.6	Outcome1	7.9	0.3	0.0	No	2.0	7.595696489241219	1.405	45.636		GetAnswer	Gain
57.0	3	45.652	0.016	1154.774	7.9	0.15	10.821	4.0	955.0	3.6	Outcome1	7.9	0.3	0.0	No		7.595696489241219				ShowChoice	Gain
57.0	3	49.664	0.012	1158.786	7.9	0.15	10.821	1.0	955.0	3.6	Outcome1	7.9	0.3	0.0	No		7.595696489241219				ShowResult	Gain
57.0	3	50.684	0.02	1159.806	7.9	0.15	10.821	4.291	955.0	3.6	Outcome1	7.9	0.3	0.0	No		7.595696489241219				ISITrial	Gain
58.0	3	54.997	0.022	1164.119	7.79	3.9	11.7948	3.0	955.0	2.8	Outcome2	9.5	7.79	3045.75	Yes	2.0	-1.71404303510759	1.032	56.029		GetAnswer	Gain
58.0	3	56.05	0.021	1165.172	7.79	3.9	11.7948	4.0	955.0	2.8	Outcome2	9.5	7.79	3045.75	Yes		-1.71404303510759				ShowChoice	Gain
58.0	3	60.062	0.012	1169.184	7.79	3.9	11.7948	1.0	955.0	2.8	Outcome2	9.5	7.79	3045.75	Yes		-1.71404303510759				ShowResult	Gain
58.0	3	61.082	0.02	1170.204	7.79	3.9	11.7948	2.037	955.0	2.8	Outcome2	9.5	7.79	3045.75	Yes		-1.71404303510759				ISITrial	Gain
58.0	3	66.214	0.03	1175.336	7.79	3.9	11.7948	3.149	955.0	2.8	Outcome2	9.5	7.79	3045.75	Yes		-1.71404303510759			680.0	TrialHappiness	Gain
58.0	3	70.226	4.012	1179.348	7.79	3.9	11.7948	4.183	955.0	2.8	Outcome2	9.5	7.79	3045.75	Yes		-1.71404303510759				ISIRate	Gain
59.0	3	74.438	0.029	1183.56	13.9	3.72	13.5323	3.0	955.0	3.6	Outcome2	7.45	13.9	0.0	No	2.0	6.45186862967157	1.129	75.567		GetAnswer	Loss
59.0	3	75.592	0.025	1184.714	13.9	3.72	13.5323	4.0	955.0	3.6	Outcome2	7.45	13.9	0.0	No		6.45186862967157				ShowChoice	Loss
59.0	3	79.604	0.012	1188.726	13.9	3.72	13.5323	1.0	955.0	3.6	Outcome2	7.45	13.9	0.0	No		6.45186862967157				ShowResult	Loss
59.0	3	80.623	0.019	1189.745	13.9	3.72	13.5323	5.064	955.0	3.6	Outcome2	7.45	13.9	0.0	No		6.45186862967157				ISITrial	Loss
60.0	3	85.705	0.018	1194.827	-2.0	-2.0	13.2823	3.0	955.0	0.3	Certain	0.7	-6.06	3562.5	Yes	4.0	6.763306908267269	1.481	87.186		GetAnswer	Mixed
60.0	3	87.21	0.024	1196.332	-2.0	-2.0	13.2823	4.0	955.0	0.3	Certain	0.7	-6.06	3562.5	Yes		6.763306908267269				ShowChoice	Mixed
60.0	3	91.222	0.012	1200.344	-2.0	-2.0	13.2823	1.0	955.0	0.3	Certain	0.7	-6.06	3562.5	Yes		6.763306908267269				ShowResult	Mixed
60.0	3	92.242	0.02	1201.364	-2.0	-2.0	13.2823	8.0	955.0	0.3	Certain	0.7	-6.06	3562.5	Yes		6.763306908267269				ISITrial	Mixed
60.0	3	103.843	0.016	1212.965	-2.0	-2.0	13.2823	2.08	955.0	0.3	Certain	0.7	-6.06	3562.5	Yes		6.763306908267269			616.0	TrialHappiness	Mixed
60.0	3	107.855	4.012	1216.977	-2.0	-2.0	13.2823	6.25	955.0	0.3	Certain	0.7	-6.06	3562.5	Yes		6.763306908267269				ISIRate	Mixed
61.0	3	114.124	0.019	1223.246	2.0	2.0	13.5323	3.0	955.0	1.82	Certain	6.7	-1.46	0.0	No	4.0	8.161947904869761	1.396	115.52		GetAnswer	Gain
61.0	3	115.544	0.024	1224.666	2.0	2.0	13.5323	4.0	955.0	1.82	Certain	6.7	-1.46	0.0	No		8.161947904869761				ShowChoice	Gain
61.0	3	119.556	0.012	1228.678	2.0	2.0	13.5323	1.0	955.0	1.82	Certain	6.7	-1.46	0.0	No		8.161947904869761				ShowResult	Gain
61.0	3	120.576	0.02	1229.698	2.0	2.0	13.5323	4.586	955.0	1.82	Certain	6.7	-1.46	0.0	No		8.161947904869761				ISITrial	Gain
62.0	3	125.19	0.028	1234.312	4.09	2.04	14.0435	3.0	955.0	3.16	Outcome1	4.09	5.7	3748.75	Yes	2.0	-1.6079652699131701	1.024	126.214		GetAnswer	Gain
62.0	3	126.226	0.012	1235.348	4.09	2.04	14.0435	4.0	955.0	3.16	Outcome1	4.09	5.7	3748.75	Yes		-1.6079652699131701				ShowChoice	Gain
62.0	3	130.238	0.012	1239.36	4.09	2.04	14.0435	1.0	955.0	3.16	Outcome1	4.09	5.7	3748.75	Yes		-1.6079652699131701				ShowResult	Gain
62.0	3	131.258	0.02	1240.38	4.09	2.04	14.0435	5.212	955.0	3.16	Outcome1	4.09	5.7	3748.75	Yes		-1.6079652699131701				ISITrial	Gain
62.0	3	140.268	0.029	1249.39	4.09	2.04	14.0435	1.796	955.0	3.16	Outcome1	4.09	5.7	3748.75	Yes	2{-2}2{-2}2{-2}2{-2}	-1.6079652699131701	1.796	142.064	648.0	TrialHappiness	Gain
62.0	3	144.28	4.012	1253.402	4.09	2.04	14.0435	6.995	955.0	3.16	Outcome1	4.09	5.7	3748.75	Yes		-1.6079652699131701				ISIRate	Gain
63.0	3	151.301	0.026	1260.423	5.79	2.9	14.7673	3.0	955.0	2.48	Outcome2	7.3	5.79	0.0	No	2.0	-1.5100981502453799	0.909	152.21		GetAnswer	Gain
63.0	3	152.237	0.027	1261.359	5.79	2.9	14.7673	4.0	955.0	2.48	Outcome2	7.3	5.79	0.0	No		-1.5100981502453799				ShowChoice	Gain
63.0	3	156.249	0.012	1265.371	5.79	2.9	14.7673	1.0	955.0	2.48	Outcome2	7.3	5.79	0.0	No		-1.5100981502453799				ShowResult	Gain
63.0	3	157.269	0.02	1266.391	5.79	2.9	14.7673	5.595	955.0	2.48	Outcome2	7.3	5.79	0.0	No		-1.5100981502453799				ISITrial	Gain
64.0	3	162.886	0.022	1272.008	4.7	0.0	15.3548	3.0	955.0	1.82	Outcome1	4.7	-4.03	0.0	No	2.0	8.73386183465459	1.487	164.373		GetAnswer	Gain
64.0	3	164.39	0.017	1273.512	4.7	0.0	15.3548	4.0	955.0	1.82	Outcome1	4.7	-4.03	0.0	No		8.73386183465459				ShowChoice	Gain
64.0	3	168.402	0.012	1277.524	4.7	0.0	15.3548	1.0	955.0	1.82	Outcome1	4.7	-4.03	0.0	No		8.73386183465459				ShowResult	Gain
64.0	3	169.422	0.02	1278.544	4.7	0.0	15.3548	5.47	955.0	1.82	Outcome1	4.7	-4.03	0.0	No		8.73386183465459				ISITrial	Gain
65.0	3	174.922	0.03	1284.044	3.7	-1.0	15.8173	3.0	955.0	1.0	Outcome2	-5.38	3.7	2996.75	Yes	2.0	9.08154020385051	1.808	176.73		GetAnswer	Mixed
65.0	3	176.744	0.014	1285.866	3.7	-1.0	15.8173	4.0	955.0	1.0	Outcome2	-5.38	3.7	2996.75	Yes		9.08154020385051				ShowChoice	Mixed
65.0	3	180.756	0.012	1289.878	3.7	-1.0	15.8173	1.0	955.0	1.0	Outcome2	-5.38	3.7	2996.75	Yes		9.08154020385051				ShowResult	Mixed
65.0	3	181.776	0.02	1290.898	3.7	-1.0	15.8173	3.344	955.0	1.0	Outcome2	-5.38	3.7	2996.75	Yes		9.08154020385051				ISITrial	Mixed
65.0	3	188.161	0.028	1297.283	3.7	-1.0	15.8173	3.2	955.0	1.0	Outcome2	-5.38	3.7	2996.75	Yes		9.08154020385051			716.0	TrialHappiness	Mixed
65.0	3	192.173	4.012	1301.295	3.7	-1.0	15.8173	3.987	955.0	1.0	Outcome2	-5.38	3.7	2996.75	Yes		9.08154020385051				ISIRate	Mixed
66.0	3	196.185	0.025	1305.307	10.9	1.32	17.1798	3.0	955.0	2.0	Outcome1	10.9	2.63	0.0	No	2.0	8.27406568516421	0.753	196.938		GetAnswer	Loss
66.0	3	196.954	0.016	1306.076	10.9	1.32	17.1798	4.0	955.0	2.0	Outcome1	10.9	2.63	0.0	No		8.27406568516421				ShowChoice	Loss
66.0	3	200.966	0.012	1310.088	10.9	1.32	17.1798	1.0	955.0	2.0	Outcome1	10.9	2.63	0.0	No		8.27406568516421				ShowResult	Loss
66.0	3	201.986	0.02	1311.108	10.9	1.32	17.1798	3.959	955.0	2.0	Outcome1	10.9	2.63	0.0	No		8.27406568516421				ISITrial	Loss
67.0	3	205.964	0.019	1315.086	11.3	1.38	18.5923	3.0	955.0	2.48	Outcome2	2.76	11.3	2918.5	Yes	2.0	8.54473386183465	1.108	207.072		GetAnswer	Loss
67.0	3	207.084	0.012	1316.206	11.3	1.38	18.5923	4.0	955.0	2.48	Outcome2	2.76	11.3	2918.5	Yes		8.54473386183465				ShowChoice	Loss
67.0	3	211.096	0.012	1320.218	11.3	1.38	18.5923	1.0	955.0	2.48	Outcome2	2.76	11.3	2918.5	Yes		8.54473386183465				ShowResult	Loss
67.0	3	212.116	0.02	1321.238	11.3	1.38	18.5923	4.199	955.0	2.48	Outcome2	2.76	11.3	2918.5	Yes		8.54473386183465				ISITrial	Loss
67.0	3	219.271	0.024	1328.393	11.3	1.38	18.5923	3.985	955.0	2.48	Outcome2	2.76	11.3	2918.5	Yes		8.54473386183465			752.0	TrialHappiness	Loss
67.0	3	223.283	4.012	1332.405	11.3	1.38	18.5923	3.674	955.0	2.48	Outcome2	2.76	11.3	2918.5	Yes		8.54473386183465				ISIRate	Loss
68.0	3	226.977	0.02	1336.099	9.88	4.94	19.8273	3.0	955.0	2.22	Outcome2	11.1	9.88	0.0	No	2.0	-1.2200830502076299	0.726	227.703		GetAnswer	Loss
68.0	3	227.729	0.026	1336.851	9.88	4.94	19.8273	4.0	955.0	2.22	Outcome2	11.1	9.88	0.0	No		-1.2200830502076299				ShowChoice	Loss
68.0	3	231.741	0.012	1340.863	9.88	4.94	19.8273	1.0	955.0	2.22	Outcome2	11.1	9.88	0.0	No		-1.2200830502076299				ShowResult	Loss
68.0	3	232.761	0.02	1341.883	9.88	4.94	19.8273	2.185	955.0	2.22	Outcome2	11.1	9.88	0.0	No		-1.2200830502076299				ISITrial	Loss
69.0	3	234.968	0.022	1344.09	10.7	1.14	21.1648	3.0	955.0	1.82	Outcome2	2.27	10.7	0.0	No	2.0	8.43374858437146	0.758	235.726		GetAnswer	Loss
69.0	3	235.753	0.027	1344.875	10.7	1.14	21.1648	4.0	955.0	1.82	Outcome2	2.27	10.7	0.0	No		8.43374858437146				ShowChoice	Loss
69.0	3	239.765	0.012	1348.887	10.7	1.14	21.1648	1.0	955.0	1.82	Outcome2	2.27	10.7	0.0	No		8.43374858437146				ShowResult	Loss
69.0	3	240.785	0.02	1349.907	10.7	1.14	21.1648	2.0	955.0	1.82	Outcome2	2.27	10.7	0.0	No		8.43374858437146				ISITrial	Loss
70.0	3	242.808	0.023	1351.93	13.1	2.22	22.8023	3.0	955.0	2.22	Outcome1	13.1	4.44	3651.25	Yes	2.0	8.663646659116651	0.851	243.659		GetAnswer	Loss
70.0	3	243.677	0.018	1352.799	13.1	2.22	22.8023	4.0	955.0	2.22	Outcome1	13.1	4.44	3651.25	Yes		8.663646659116651				ShowChoice	Loss
70.0	3	247.689	0.012	1356.811	13.1	2.22	22.8023	1.0	955.0	2.22	Outcome1	13.1	4.44	3651.25	Yes		8.663646659116651				ShowResult	Loss
70.0	3	248.709	0.02	1357.831	13.1	2.22	22.8023	2.623	955.0	2.22	Outcome1	13.1	4.44	3651.25	Yes		8.663646659116651				ISITrial	Loss
70.0	3	255.028	0.027	1364.15	13.1	2.22	22.8023	1.292	955.0	2.22	Outcome1	13.1	4.44	3651.25	Yes		8.663646659116651			720.0	TrialHappiness	Loss
70.0	3	259.04	4.012	1368.162	13.1	2.22	22.8023	6.605	955.0	2.22	Outcome1	13.1	4.44	3651.25	Yes		8.663646659116651				ISIRate	Loss
71.0	3	265.676	0.031	1374.798	3.89	1.94	23.2885	3.0	955.0	2.48	Outcome1	3.89	5.3	0.0	No	2.0	-1.40741789354473	0.99	266.666		GetAnswer	Gain
71.0	3	266.679	0.013	1375.801	3.89	1.94	23.2885	4.0	955.0	2.48	Outcome1	3.89	5.3	0.0	No		-1.40741789354473				ShowChoice	Gain
71.0	3	270.691	0.012	1379.813	3.89	1.94	23.2885	1.0	955.0	2.48	Outcome1	3.89	5.3	0.0	No		-1.40741789354473				ShowResult	Gain
71.0	3	271.711	0.02	1380.833	3.89	1.94	23.2885	5.499	955.0	2.48	Outcome1	3.89	5.3	0.0	No		-1.40741789354473				ISITrial	Gain
72.0	3	277.227	0.017	1386.349	3.07	1.54	23.6723	3.0	955.0	1.68	Outcome1	3.07	4.5	3080.5	Yes	2.0	-1.4295960739901798	0.839	278.066		GetAnswer	Gain
72.0	3	278.08	0.014	1387.202	3.07	1.54	23.6723	4.0	955.0	1.68	Outcome1	3.07	4.5	3080.5	Yes		-1.4295960739901798				ShowChoice	Gain
72.0	3	282.092	0.012	1391.214	3.07	1.54	23.6723	1.0	955.0	1.68	Outcome1	3.07	4.5	3080.5	Yes		-1.4295960739901798				ShowResult	Gain
72.0	3	283.112	0.02	1392.234	3.07	1.54	23.6723	5.672	955.0	1.68	Outcome1	3.07	4.5	3080.5	Yes		-1.4295960739901798				ISITrial	Gain
72.0	3	291.904	0.029	1401.026	3.07	1.54	23.6723	1.412	955.0	1.68	Outcome1	3.07	4.5	3080.5	Yes		-1.4295960739901798			688.0	TrialHappiness	Gain
72.0	3	295.916	4.012	1405.038	3.07	1.54	23.6723	4.322	955.0	1.68	Outcome1	3.07	4.5	3080.5	Yes		-1.4295960739901798				ISIRate	Gain
73.0	3	300.263	0.025	1409.385	6.3	1.0	24.4598	3.0	955.0	5.0	Outcome2	-4.21	6.3	0.0	No	2.0	10.5130237825595	1.49	301.753		GetAnswer	Gain
73.0	3	301.767	0.014	1410.889	6.3	1.0	24.4598	4.0	955.0	5.0	Outcome2	-4.21	6.3	0.0	No		10.5130237825595				ShowChoice	Gain
73.0	3	305.779	0.012	1414.901	6.3	1.0	24.4598	1.0	955.0	5.0	Outcome2	-4.21	6.3	0.0	No		10.5130237825595				ShowResult	Gain
73.0	3	306.799	0.02	1415.921	6.3	1.0	24.4598	4.616	955.0	5.0	Outcome2	-4.21	6.3	0.0	No		10.5130237825595				ISITrial	Gain
74.0	3	311.446	0.031	1420.568	12.7	0.94	26.0473	3.0	955.0	1.82	Outcome2	1.88	12.7	3056.25	Yes	2.0	10.815402038505098	1.187	312.633		GetAnswer	Loss
74.0	3	312.65	0.017	1421.772	12.7	0.94	26.0473	4.0	955.0	1.82	Outcome2	1.88	12.7	3056.25	Yes		10.815402038505098				ShowChoice	Loss
74.0	3	316.662	0.012	1425.784	12.7	0.94	26.0473	1.0	955.0	1.82	Outcome2	1.88	12.7	3056.25	Yes		10.815402038505098				ShowResult	Loss
74.0	3	317.681	0.019	1426.803	12.7	0.94	26.0473	3.909	955.0	1.82	Outcome2	1.88	12.7	3056.25	Yes		10.815402038505098				ISITrial	Loss
74.0	3	324.686	0.02	1433.808	12.7	0.94	26.0473	2.615	955.0	1.82	Outcome2	1.88	12.7	3056.25	Yes		10.815402038505098			728.0	TrialHappiness	Loss
74.0	3	328.698	4.012	1437.82	12.7	0.94	26.0473	4.225	955.0	1.82	Outcome2	1.88	12.7	3056.25	Yes		10.815402038505098				ISIRate	Loss
75.0	3	332.944	0.021	1442.066	13.3	1.43	27.7098	3.0	955.0	2.48	Outcome1	13.3	2.86	0.0	No	2.0	10.4382785956965	0.781	333.725		GetAnswer	Loss
75.0	3	333.746	0.021	1442.868	13.3	1.43	27.7098	4.0	955.0	2.48	Outcome1	13.3	2.86	0.0	No		10.4382785956965				ShowChoice	Loss
75.0	3	337.758	0.012	1446.88	13.3	1.43	27.7098	1.0	955.0	2.48	Outcome1	13.3	2.86	0.0	No		10.4382785956965				ShowResult	Loss
75.0	3	338.778	0.02	1447.9	13.3	1.43	27.7098	4.979	955.0	2.48	Outcome1	13.3	2.86	0.0	No		10.4382785956965				ISITrial	Loss
76.0	3	343.776	0.019	1452.898	12.9	1.1	29.3223	3.0	955.0	2.0	Outcome1	12.9	2.2	0.0	No	2.0	10.695356738391801	0.773	344.549		GetAnswer	Loss
76.0	3	344.562	0.013	1453.684	12.9	1.1	29.3223	4.0	955.0	2.0	Outcome1	12.9	2.2	0.0	No		10.695356738391801				ShowChoice	Loss
76.0	3	348.574	0.012	1457.696	12.9	1.1	29.3223	1.0	955.0	2.0	Outcome1	12.9	2.2	0.0	No		10.695356738391801				ShowResult	Loss
76.0	3	349.593	0.019	1458.715	12.9	1.1	29.3223	3.931	955.0	2.0	Outcome1	12.9	2.2	0.0	No		10.695356738391801				ISITrial	Loss
77.0	3	353.555	0.031	1462.677	2.39	1.2	29.6211	3.0	955.0	1.2	Outcome2	3.9	2.39	4000.0	Yes	2.0	-1.51255190637977	0.945	354.5		GetAnswer	Mixed
77.0	3	354.525	0.025	1463.647	2.39	1.2	29.6211	4.0	955.0	1.2	Outcome2	3.9	2.39	4000.0	Yes		-1.51255190637977				ShowChoice	Mixed
77.0	3	358.537	0.012	1467.659	2.39	1.2	29.6211	1.0	955.0	1.2	Outcome2	3.9	2.39	4000.0	Yes		-1.51255190637977				ShowResult	Mixed
77.0	3	359.557	0.02	1468.679	2.39	1.2	29.6211	7.022	955.0	1.2	Outcome2	3.9	2.39	4000.0	Yes		-1.51255190637977				ISITrial	Mixed
77.0	3	370.623	0.029	1479.745	2.39	1.2	29.6211	2.362	955.0	1.2	Outcome2	3.9	2.39	4000.0	Yes		-1.51255190637977			728.0	TrialHappiness	Mixed
77.0	3	374.635	4.012	1483.757	2.39	1.2	29.6211	8.0	955.0	1.2	Outcome2	3.9	2.39	4000.0	Yes		-1.51255190637977				ISIRate	Mixed
78.0	3	382.659	0.024	1491.781	9.9	-0.66	30.8586	3.0	955.0	3.6	Outcome2	-1.31	9.9	0.0	No	2.0	11.209513023782598	1.204	383.863		GetAnswer	Gain
78.0	3	383.879	0.016	1493.001	9.9	-0.66	30.8586	4.0	955.0	3.6	Outcome2	-1.31	9.9	0.0	No		11.209513023782598				ShowChoice	Gain
78.0	3	387.891	0.012	1497.013	9.9	-0.66	30.8586	1.0	955.0	3.6	Outcome2	-1.31	9.9	0.0	No		11.209513023782598				ShowResult	Gain
78.0	3	388.911	0.02	1498.033	9.9	-0.66	30.8586	2.078	955.0	3.6	Outcome2	-1.31	9.9	0.0	No		11.209513023782598				ISITrial	Gain
79.0	3	391.017	0.028	1500.139	1.14	2.0	31.0011	3.0	955.0	0.3	Outcome2	2.7	1.14	2729.5	Yes	2.0	-1.5553982634956598	1.45	392.467		GetAnswer	Mixed
79.0	3	392.488	0.021	1501.61	1.14	2.0	31.0011	4.0	955.0	0.3	Outcome2	2.7	1.14	2729.5	Yes		-1.5553982634956598				ShowChoice	Mixed
79.0	3	396.5	0.012	1505.622	1.14	2.0	31.0011	1.0	955.0	0.3	Outcome2	2.7	1.14	2729.5	Yes		-1.5553982634956598				ShowResult	Mixed
79.0	3	397.52	0.02	1506.642	1.14	2.0	31.0011	3.829	955.0	0.3	Outcome2	2.7	1.14	2729.5	Yes		-1.5553982634956598				ISITrial	Mixed
79.0	3	404.123	0.028	1513.245	1.14	2.0	31.0011	3.718	955.0	0.3	Outcome2	2.7	1.14	2729.5	Yes		-1.5553982634956598			696.0	TrialHappiness	Mixed
79.0	3	408.135	4.012	1517.257	1.14	2.0	31.0011	2.918	955.0	0.3	Outcome2	2.7	1.14	2729.5	Yes		-1.5553982634956598				ISIRate	Mixed
80.0	3	411.077	0.024	1520.199	8.5	2.0	32.0636	3.0	955.0	1.68	Outcome2	-3.77	8.5	0.0	No	2.0	12.267270668176698	1.332	412.409		GetAnswer	Gain
80.0	3	412.431	0.022	1521.553	8.5	2.0	32.0636	4.0	955.0	1.68	Outcome2	-3.77	8.5	0.0	No		12.267270668176698				ShowChoice	Gain
80.0	3	416.443	0.012	1525.565	8.5	2.0	32.0636	1.0	955.0	1.68	Outcome2	-3.77	8.5	0.0	No		12.267270668176698				ShowResult	Gain
80.0	3	417.463	0.02	1526.585	8.5	2.0	32.0636	3.336	955.0	1.68	Outcome2	-3.77	8.5	0.0	No		12.267270668176698				ISITrial	Gain
81.0	3	420.823	0.024	1529.945	-2.0	-2.0	31.8136	3.0	955.0	2.0	Certain	-8.26	4.3	3923.75	Yes	4.0	12.560588901472302	1.966	422.789		GetAnswer	Mixed
81.0	3	422.812	0.023	1531.934	-2.0	-2.0	31.8136	4.0	955.0	2.0	Certain	-8.26	4.3	3923.75	Yes		12.560588901472302				ShowChoice	Mixed
81.0	3	426.824	0.012	1535.946	-2.0	-2.0	31.8136	1.0	955.0	2.0	Certain	-8.26	4.3	3923.75	Yes		12.560588901472302				ShowResult	Mixed
81.0	3	427.844	0.02	1536.966	-2.0	-2.0	31.8136	3.919	955.0	2.0	Certain	-8.26	4.3	3923.75	Yes		12.560588901472302				ISITrial	Mixed
81.0	3	435.734	0.021	1544.856	-2.0	-2.0	31.8136	3.083	955.0	2.0	Certain	-8.26	4.3	3923.75	Yes		12.560588901472302			656.0	TrialHappiness	Mixed
81.0	3	439.746	4.012	1548.868	-2.0	-2.0	31.8136	7.695	955.0	2.0	Certain	-8.26	4.3	3923.75	Yes		12.560588901472302				ISIRate	Mixed
	3	447.469	0.028	1556.591				3.0													CurrentEarnings	
	3	450.495	0.026	1559.617				-0.001								2.0		13.432	463.927		Goodbye	
