trial_number	block	onset	onset_delay	onset_unadjusted	amount_change	certain_amount	current_amount	duration	mood_target	multiplier	outcome	outcome1_amount	outcome2_amount	question_duration	rating	response	rpe	rt	rt_time	slider_response	trial_phase	trial_type
	0	-40.048	0.015	14.627				-0.001								{SPACE}		2.023	-38.025		Welcome	
	0	-38.001	0.024	16.674				5.0													LifeHappyPreview	
	0	-32.969	0.032	21.706				2.701												388.0	LifeHappiness	
	0	-12.909	0.013	41.766				4.0													BlockHappyPreview	
	0	-8.897	0.012	45.778				1.568								4{-4}4{-4}4{-4}4{-4}		1.568	-7.329	432.0	BlockStartHappiness	
	0	-2.277	0.021	52.398				-0.001								5.0					ScanWait	
	1	0.013	0.013	54.688				10.0													GetReady	
1.0	1	10.043	0.03	64.718	-1.62	0.0	9.7975	3.0	955.0	0.2	Outcome1	-1.62	0.5	0.0	No	2.0	-2.1224046810117	1.873	11.916		GetAnswer	Mixed
1.0	1	11.932	0.016	66.607	-1.62	0.0	9.7975	4.0	955.0	0.2	Outcome1	-1.62	0.5	0.0	No		-2.1224046810117				ShowChoice	Mixed
1.0	1	15.944	0.012	70.619	-1.62	0.0	9.7975	1.0	955.0	0.2	Outcome1	-1.62	0.5	0.0	No		-2.1224046810117				ShowResult	Mixed
1.0	1	16.964	0.02	71.639	-1.62	0.0	9.7975	2.431	955.0	0.2	Outcome1	-1.62	0.5	0.0	No		-2.1224046810117				ISITrial	Mixed
2.0	1	19.421	0.026	74.096	2.33	1.16	10.0887	3.0	955.0	1.68	Outcome2	4.5	2.33	0.0	No	2.0	-2.17176292940732	1.521	20.942		GetAnswer	Gain
2.0	1	20.959	0.017	75.634	2.33	1.16	10.0887	4.0	955.0	1.68	Outcome2	4.5	2.33	0.0	No		-2.17176292940732				ShowChoice	Gain
2.0	1	24.971	0.012	79.646	2.33	1.16	10.0887	1.0	955.0	1.68	Outcome2	4.5	2.33	0.0	No		-2.17176292940732				ShowResult	Gain
2.0	1	25.991	0.02	80.666	2.33	1.16	10.0887	4.568	955.0	1.68	Outcome2	4.5	2.33	0.0	No		-2.17176292940732				ISITrial	Gain
3.0	1	30.588	0.029	85.263	0.28	1.0	10.1237	3.0	955.0	0.2	Outcome2	2.5	0.28	2868.0	Yes	2.0	-2.22112117780294	1.355	31.943		GetAnswer	Mixed
3.0	1	31.959	0.016	86.634	0.28	1.0	10.1237	4.0	955.0	0.2	Outcome2	2.5	0.28	2868.0	Yes		-2.22112117780294				ShowChoice	Mixed
3.0	1	35.971	0.012	90.646	0.28	1.0	10.1237	1.0	955.0	0.2	Outcome2	2.5	0.28	2868.0	Yes		-2.22112117780294				ShowResult	Mixed
3.0	1	36.991	0.02	91.666	0.28	1.0	10.1237	3.243	955.0	0.2	Outcome2	2.5	0.28	2868.0	Yes		-2.22112117780294				ISITrial	Mixed
3.0	1	43.143	0.024	97.818	0.28	1.0	10.1237	1.532	955.0	0.2	Outcome2	2.5	0.28	2868.0	Yes		-2.22112117780294			436.0	TrialHappiness	Mixed
3.0	1	47.155	4.012	101.83	0.28	1.0	10.1237	3.472	955.0	0.2	Outcome2	2.5	0.28	2868.0	Yes		-2.22112117780294				ISIRate	Mixed
4.0	1	50.648	0.021	105.323	13.9	1.66	11.8612	3.0	955.0	3.6	Outcome1	13.9	3.31	0.0	No	2.0	10.593431483578698	1.13	51.778		GetAnswer	Loss
4.0	1	51.802	0.023	106.477	13.9	1.66	11.8612	4.0	955.0	3.6	Outcome1	13.9	3.31	0.0	No		10.593431483578698				ShowChoice	Loss
4.0	1	55.814	0.012	110.489	13.9	1.66	11.8612	1.0	955.0	3.6	Outcome1	13.9	3.31	0.0	No		10.593431483578698				ShowResult	Loss
4.0	1	56.834	0.02	111.509	13.9	1.66	11.8612	2.011	955.0	3.6	Outcome1	13.9	3.31	0.0	No		10.593431483578698				ISITrial	Loss
5.0	1	58.873	0.028	113.548	10.0	5.0	13.1112	3.0	955.0	5.0	Outcome1	10.0	12.3	2582.5	Yes	2.0	-2.30322763306908	1.015	59.888		GetAnswer	Loss
5.0	1	59.91	0.022	114.585	10.0	5.0	13.1112	4.0	955.0	5.0	Outcome1	10.0	12.3	2582.5	Yes		-2.30322763306908				ShowChoice	Loss
5.0	1	63.922	0.012	118.597	10.0	5.0	13.1112	1.0	955.0	5.0	Outcome1	10.0	12.3	2582.5	Yes		-2.30322763306908				ShowResult	Loss
5.0	1	64.941	0.019	119.616	10.0	5.0	13.1112	5.129	955.0	5.0	Outcome1	10.0	12.3	2582.5	Yes		-2.30322763306908				ISITrial	Loss
5.0	1	72.698	0.026	127.373	10.0	5.0	13.1112	0.776	955.0	5.0	Outcome1	10.0	12.3	2582.5	Yes		-2.30322763306908			528.0	TrialHappiness	Loss
5.0	1	76.71	4.012	131.385	10.0	5.0	13.1112	2.33	955.0	5.0	Outcome1	10.0	12.3	2582.5	Yes		-2.30322763306908				ISIRate	Loss
6.0	1	79.067	0.027	133.742	8.5	-0.86	14.1737	3.0	955.0	1.68	Outcome2	-1.71	8.5	0.0	No	2.0	10.2061155152888	1.819	80.886		GetAnswer	Gain
6.0	1	80.906	0.02	135.581	8.5	-0.86	14.1737	4.0	955.0	1.68	Outcome2	-1.71	8.5	0.0	No		10.2061155152888				ShowChoice	Gain
6.0	1	84.918	0.012	139.593	8.5	-0.86	14.1737	1.0	955.0	1.68	Outcome2	-1.71	8.5	0.0	No		10.2061155152888				ShowResult	Gain
6.0	1	85.938	0.02	140.613	8.5	-0.86	14.1737	6.232	955.0	1.68	Outcome2	-1.71	8.5	0.0	No		10.2061155152888				ISITrial	Gain
7.0	1	92.19	0.02	146.865	9.08	4.54	15.3087	3.0	955.0	2.22	Outcome2	11.1	9.08	0.0	No	2.0	-2.01915817289543	1.11	93.3		GetAnswer	Loss
7.0	1	93.326	0.026	148.001	9.08	4.54	15.3087	4.0	955.0	2.22	Outcome2	11.1	9.08	0.0	No		-2.01915817289543				ShowChoice	Loss
7.0	1	97.338	0.012	152.013	9.08	4.54	15.3087	1.0	955.0	2.22	Outcome2	11.1	9.08	0.0	No		-2.01915817289543				ShowResult	Loss
7.0	1	98.358	0.02	153.033	9.08	4.54	15.3087	2.305	955.0	2.22	Outcome2	11.1	9.08	0.0	No		-2.01915817289543				ISITrial	Loss
8.0	1	100.682	0.019	155.357	0.0	0.0	15.3087	3.0	955.0	2.48	Certain	5.3	-5.87	3112.5	Yes	4.0	11.173272933182302	1.342	102.024		GetAnswer	Gain
8.0	1	102.036	0.012	156.711	0.0	0.0	15.3087	4.0	955.0	2.48	Certain	5.3	-5.87	3112.5	Yes		11.173272933182302				ShowChoice	Gain
8.0	1	106.048	0.012	160.723	0.0	0.0	15.3087	1.0	955.0	2.48	Certain	5.3	-5.87	3112.5	Yes		11.173272933182302				ShowResult	Gain
8.0	1	107.068	0.02	161.743	0.0	0.0	15.3087	3.506	955.0	2.48	Certain	5.3	-5.87	3112.5	Yes		11.173272933182302				ISITrial	Gain
8.0	1	113.721	0.014	168.396	0.0	0.0	15.3087	1.605	955.0	2.48	Certain	5.3	-5.87	3112.5	Yes		11.173272933182302			520.0	TrialHappiness	Gain
8.0	1	117.733	4.012	172.408	0.0	0.0	15.3087	4.45	955.0	2.48	Certain	5.3	-5.87	3112.5	Yes		11.173272933182302				ISIRate	Gain
9.0	1	122.213	0.03	176.888	-3.0	-3.0	14.9337	3.0	955.0	0.3	Certain	-9.09	2.7	0.0	No	4.0	11.79275198188	2.354	124.567		GetAnswer	Mixed
9.0	1	124.587	0.02	179.262	-3.0	-3.0	14.9337	4.0	955.0	0.3	Certain	-9.09	2.7	0.0	No		11.79275198188				ShowChoice	Mixed
9.0	1	128.599	0.012	183.274	-3.0	-3.0	14.9337	1.0	955.0	0.3	Certain	-9.09	2.7	0.0	No		11.79275198188				ShowResult	Mixed
9.0	1	129.619	0.02	184.294	-3.0	-3.0	14.9337	2.0	955.0	0.3	Certain	-9.09	2.7	0.0	No		11.79275198188				ISITrial	Mixed
10.0	1	131.641	0.022	186.316	7.93	3.96	15.9249	3.0	955.0	4.2	Outcome1	7.93	10.1	4000.0	Yes	2.0	-2.17327293318233	0.98	132.621		GetAnswer	Gain
10.0	1	132.644	0.023	187.319	7.93	3.96	15.9249	4.0	955.0	4.2	Outcome1	7.93	10.1	4000.0	Yes		-2.17327293318233				ShowChoice	Gain
10.0	1	136.656	0.012	191.331	7.93	3.96	15.9249	1.0	955.0	4.2	Outcome1	7.93	10.1	4000.0	Yes		-2.17327293318233				ShowResult	Gain
10.0	1	137.676	0.02	192.351	7.93	3.96	15.9249	2.0	955.0	4.2	Outcome1	7.93	10.1	4000.0	Yes		-2.17327293318233				ISITrial	Gain
10.0	1	143.728	0.029	198.403	7.93	3.96	15.9249	1.344	955.0	4.2	Outcome1	7.93	10.1	4000.0	Yes	4{-4}2{-2}	-2.17327293318233	1.344	145.072	508.0	TrialHappiness	Gain
10.0	1	147.74	4.012	202.415	7.93	3.96	15.9249	8.0	955.0	4.2	Outcome1	7.93	10.1	4000.0	Yes		-2.17327293318233				ISIRate	Gain
11.0	1	155.764	0.024	210.439	-2.0	-2.0	15.6749	3.0	955.0	0.52	Certain	-0.9	-3.16	0.0	No	4.0	-2.26302378255946	1.347	157.111		GetAnswer	Mixed
11.0	1	157.135	0.024	211.81	-2.0	-2.0	15.6749	4.0	955.0	0.52	Certain	-0.9	-3.16	0.0	No		-2.26302378255946				ShowChoice	Mixed
11.0	1	161.147	0.012	215.822	-2.0	-2.0	15.6749	1.0	955.0	0.52	Certain	-0.9	-3.16	0.0	No		-2.26302378255946				ShowResult	Mixed
11.0	1	162.166	0.019	216.841	-2.0	-2.0	15.6749	3.324	955.0	0.52	Certain	-0.9	-3.16	0.0	No		-2.26302378255946				ISITrial	Mixed
12.0	1	165.51	0.02	220.185	-3.0	-3.0	15.2999	3.0	955.0	0.52	Certain	-10.39	3.1	2618.75	Yes	4.0	13.488108720271802	1.844	167.354		GetAnswer	Mixed
12.0	1	167.365	0.011	222.04	-3.0	-3.0	15.2999	4.0	955.0	0.52	Certain	-10.39	3.1	2618.75	Yes		13.488108720271802				ShowChoice	Mixed
12.0	1	171.377	0.012	226.052	-3.0	-3.0	15.2999	1.0	955.0	0.52	Certain	-10.39	3.1	2618.75	Yes		13.488108720271802				ShowResult	Mixed
12.0	1	172.397	0.02	227.072	-3.0	-3.0	15.2999	6.642	955.0	0.52	Certain	-10.39	3.1	2618.75	Yes		13.488108720271802				ISITrial	Mixed
12.0	1	181.692	0.023	236.367	-3.0	-3.0	15.2999	1.477	955.0	0.52	Certain	-10.39	3.1	2618.75	Yes		13.488108720271802			552.0	TrialHappiness	Mixed
12.0	1	185.704	4.012	240.379	-3.0	-3.0	15.2999	2.475	955.0	0.52	Certain	-10.39	3.1	2618.75	Yes		13.488108720271802				ISIRate	Mixed
13.0	1	188.211	0.032	242.886	6.73	3.36	16.1411	3.0	955.0	2.0	Outcome2	8.9	6.73	0.0	No	2.0	-2.16883729709324	0.773	188.984		GetAnswer	Gain
13.0	1	188.997	0.013	243.672	6.73	3.36	16.1411	4.0	955.0	2.0	Outcome2	8.9	6.73	0.0	No		-2.16883729709324				ShowChoice	Gain
13.0	1	193.009	0.012	247.684	6.73	3.36	16.1411	1.0	955.0	2.0	Outcome2	8.9	6.73	0.0	No		-2.16883729709324				ShowResult	Gain
13.0	1	194.029	0.02	248.704	6.73	3.36	16.1411	3.48	955.0	2.0	Outcome2	8.9	6.73	0.0	No		-2.16883729709324				ISITrial	Gain
14.0	1	197.539	0.03	252.214	0.0	0.0	16.1411	3.0	955.0	5.0	Certain	6.3	-7.4	0.0	No	4.0	13.7032842582106	1.573	199.112		GetAnswer	Gain
14.0	1	199.127	0.015	253.802	0.0	0.0	16.1411	4.0	955.0	5.0	Certain	6.3	-7.4	0.0	No		13.7032842582106				ShowChoice	Gain
14.0	1	203.139	0.012	257.814	0.0	0.0	16.1411	1.0	955.0	5.0	Certain	6.3	-7.4	0.0	No		13.7032842582106				ShowResult	Gain
14.0	1	204.159	0.02	258.834	0.0	0.0	16.1411	5.019	955.0	5.0	Certain	6.3	-7.4	0.0	No		13.7032842582106				ISITrial	Gain
15.0	1	209.207	0.029	263.882	7.1	0.0	17.0286	3.0	955.0	2.22	Outcome2	-7.06	7.1	3348.5	Yes	2.0	14.1596828992072	1.561	210.768		GetAnswer	Gain
15.0	1	210.795	0.027	265.47	7.1	0.0	17.0286	4.0	955.0	2.22	Outcome2	-7.06	7.1	3348.5	Yes		14.1596828992072				ShowChoice	Gain
15.0	1	214.808	0.013	269.483	7.1	0.0	17.0286	1.0	955.0	2.22	Outcome2	-7.06	7.1	3348.5	Yes		14.1596828992072				ShowResult	Gain
15.0	1	215.827	0.019	270.502	7.1	0.0	17.0286	7.614	955.0	2.22	Outcome2	-7.06	7.1	3348.5	Yes		14.1596828992072				ISITrial	Gain
15.0	1	226.844	0.029	281.519	7.1	0.0	17.0286	0.692	955.0	2.22	Outcome2	-7.06	7.1	3348.5	Yes		14.1596828992072			528.0	TrialHappiness	Gain
15.0	1	230.856	4.012	285.531	7.1	0.0	17.0286	5.394	955.0	2.22	Outcome2	-7.06	7.1	3348.5	Yes		14.1596828992072				ISIRate	Gain
16.0	1	236.272	0.022	290.947	6.5	-1.0	17.8411	3.0	955.0	1.68	Outcome2	-8.52	6.5	0.0	No	2.0	15.0237825594564	1.982	238.254		GetAnswer	Gain
16.0	1	238.278	0.024	292.953	6.5	-1.0	17.8411	4.0	955.0	1.68	Outcome2	-8.52	6.5	0.0	No		15.0237825594564				ShowChoice	Gain
16.0	1	242.29	0.012	296.965	6.5	-1.0	17.8411	1.0	955.0	1.68	Outcome2	-8.52	6.5	0.0	No		15.0237825594564				ShowResult	Gain
16.0	1	243.31	0.02	297.985	6.5	-1.0	17.8411	3.008	955.0	1.68	Outcome2	-8.52	6.5	0.0	No		15.0237825594564				ISITrial	Gain
17.0	1	246.335	0.017	301.01	8.48	4.24	18.9011	3.0	955.0	2.0	Outcome1	8.48	10.9	3041.5	Yes	2.0	-2.42063042657607	1.116	247.451		GetAnswer	Loss
17.0	1	247.472	0.021	302.147	8.48	4.24	18.9011	4.0	955.0	2.0	Outcome1	8.48	10.9	3041.5	Yes		-2.42063042657607				ShowChoice	Loss
17.0	1	251.484	0.012	306.159	8.48	4.24	18.9011	1.0	955.0	2.0	Outcome1	8.48	10.9	3041.5	Yes		-2.42063042657607				ShowResult	Loss
17.0	1	252.504	0.02	307.179	8.48	4.24	18.9011	3.566	955.0	2.0	Outcome1	8.48	10.9	3041.5	Yes		-2.42063042657607				ISITrial	Loss
17.0	1	259.141	0.018	313.816	8.48	4.24	18.9011	0.926	955.0	2.0	Outcome1	8.48	10.9	3041.5	Yes		-2.42063042657607			584.0	TrialHappiness	Loss
17.0	1	263.169	4.028	317.844	8.48	4.24	18.9011	4.166	955.0	2.0	Outcome1	8.48	10.9	3041.5	Yes		-2.42063042657607				ISIRate	Loss
18.0	1	267.365	0.03	322.04	-9.0	-9.0	17.7761	3.0	955.0	0.3	Certain	-16.34	-1.3	0.0	No	4.0	15.039637599094	2.638	270.003		GetAnswer	Mixed
18.0	1	270.023	0.02	324.698	-9.0	-9.0	17.7761	4.0	955.0	0.3	Certain	-16.34	-1.3	0.0	No		15.039637599094				ShowChoice	Mixed
18.0	1	274.035	0.012	328.71	-9.0	-9.0	17.7761	1.0	955.0	0.3	Certain	-16.34	-1.3	0.0	No		15.039637599094				ShowResult	Mixed
18.0	1	275.055	0.02	329.73	-9.0	-9.0	17.7761	6.787	955.0	0.3	Certain	-16.34	-1.3	0.0	No		15.039637599094				ISITrial	Mixed
19.0	1	281.875	0.033	336.55	-1.17	0.0	17.6298	3.0	955.0	0.52	Outcome1	-1.17	1.1	0.0	No	2.0	-2.26868629671574	1.361	283.236		GetAnswer	Mixed
19.0	1	283.263	0.027	337.938	-1.17	0.0	17.6298	4.0	955.0	0.52	Outcome1	-1.17	1.1	0.0	No		-2.26868629671574				ShowChoice	Mixed
19.0	1	287.292	0.029	341.967	-1.17	0.0	17.6298	1.0	955.0	0.52	Outcome1	-1.17	1.1	0.0	No		-2.26868629671574				ShowResult	Mixed
19.0	1	288.311	0.019	342.986	-1.17	0.0	17.6298	2.0	955.0	0.52	Outcome1	-1.17	1.1	0.0	No		-2.26868629671574				ISITrial	Mixed
20.0	1	290.334	0.023	345.009	5.2	2.6	18.2798	3.0	955.0	2.8	Outcome2	7.5	5.2	2921.25	Yes	2.0	-2.3036995092487698	1.12	291.454		GetAnswer	Gain
20.0	1	291.471	0.017	346.146	5.2	2.6	18.2798	4.0	955.0	2.8	Outcome2	7.5	5.2	2921.25	Yes		-2.3036995092487698				ShowChoice	Gain
20.0	1	295.483	0.012	350.158	5.2	2.6	18.2798	1.0	955.0	2.8	Outcome2	7.5	5.2	2921.25	Yes		-2.3036995092487698				ShowResult	Gain
20.0	1	296.503	0.02	351.178	5.2	2.6	18.2798	8.0	955.0	2.8	Outcome2	7.5	5.2	2921.25	Yes		-2.3036995092487698				ISITrial	Gain
20.0	1	307.469	0.021	362.144	5.2	2.6	18.2798	2.245	955.0	2.8	Outcome2	7.5	5.2	2921.25	Yes		-2.3036995092487698			600.0	TrialHappiness	Gain
20.0	1	311.481	4.012	366.156	5.2	2.6	18.2798	3.685	955.0	2.8	Outcome2	7.5	5.2	2921.25	Yes		-2.3036995092487698				ISIRate	Gain
21.0	1	315.192	0.026	369.867	-1.46	-1.46	18.0973	3.0	955.0	2.22	Certain	-2.93	13.1	0.0	No	4.0	16.0283125707814	1.453	316.645		GetAnswer	Loss
21.0	1	316.663	0.018	371.338	-1.46	-1.46	18.0973	4.0	955.0	2.22	Certain	-2.93	13.1	0.0	No		16.0283125707814				ShowChoice	Loss
21.0	1	320.675	0.012	375.35	-1.46	-1.46	18.0973	1.0	955.0	2.22	Certain	-2.93	13.1	0.0	No		16.0283125707814				ShowResult	Loss
21.0	1	321.695	0.02	376.37	-1.46	-1.46	18.0973	3.555	955.0	2.22	Certain	-2.93	13.1	0.0	No		16.0283125707814				ISITrial	Loss
22.0	1	325.272	0.022	379.947	-8.0	-8.0	17.0973	3.0	955.0	2.0	Certain	-16.13	0.3	3219.5	Yes	4.0	16.4303510758777	2.821	328.093		GetAnswer	Mixed
22.0	1	328.114	0.021	382.789	-8.0	-8.0	17.0973	4.0	955.0	2.0	Certain	-16.13	0.3	3219.5	Yes		16.4303510758777				ShowChoice	Mixed
22.0	1	332.126	0.012	386.801	-8.0	-8.0	17.0973	1.0	955.0	2.0	Certain	-16.13	0.3	3219.5	Yes		16.4303510758777				ShowResult	Mixed
22.0	1	333.146	0.02	387.821	-8.0	-8.0	17.0973	6.793	955.0	2.0	Certain	-16.13	0.3	3219.5	Yes		16.4303510758777				ISITrial	Mixed
22.0	1	343.209	0.023	397.884	-8.0	-8.0	17.0973	1.578	955.0	2.0	Certain	-16.13	0.3	3219.5	Yes		16.4303510758777			544.0	TrialHappiness	Mixed
22.0	1	347.221	4.012	401.896	-8.0	-8.0	17.0973	4.878	955.0	2.0	Certain	-16.13	0.3	3219.5	Yes		16.4303510758777				ISIRate	Mixed
23.0	1	352.119	0.02	406.794	12.9	-2.44	18.7098	3.0	955.0	2.0	Outcome1	12.9	-4.88	0.0	No	2.0	17.7836919592299	1.775	353.894		GetAnswer	Loss
23.0	1	353.908	0.014	408.583	12.9	-2.44	18.7098	4.0	955.0	2.0	Outcome1	12.9	-4.88	0.0	No		17.7836919592299				ShowChoice	Loss
23.0	1	357.92	0.012	412.595	12.9	-2.44	18.7098	1.0	955.0	2.0	Outcome1	12.9	-4.88	0.0	No		17.7836919592299				ShowResult	Loss
23.0	1	358.94	0.02	413.615	12.9	-2.44	18.7098	8.0	955.0	2.0	Outcome1	12.9	-4.88	0.0	No		17.7836919592299				ISITrial	Loss
24.0	1	366.964	0.024	421.639	2.49	1.25	19.0211	3.0	955.0	2.22	Outcome2	5.1	2.49	3255.0	Yes	2.0	-2.60683276708192	1.023	367.987		GetAnswer	Gain
24.0	1	368.017	0.03	422.692	2.49	1.25	19.0211	4.0	955.0	2.22	Outcome2	5.1	2.49	3255.0	Yes		-2.60683276708192				ShowChoice	Gain
24.0	1	372.046	0.029	426.721	2.49	1.25	19.0211	1.0	955.0	2.22	Outcome2	5.1	2.49	3255.0	Yes		-2.60683276708192				ShowResult	Gain
24.0	1	373.066	0.02	427.741	2.49	1.25	19.0211	2.0	955.0	2.22	Outcome2	5.1	2.49	3255.0	Yes		-2.60683276708192				ISITrial	Gain
24.0	1	378.365	0.022	433.04	2.49	1.25	19.0211	1.11	955.0	2.22	Outcome2	5.1	2.49	3255.0	Yes		-2.60683276708192			564.0	TrialHappiness	Gain
24.0	1	382.394	4.029	437.069	2.49	1.25	19.0211	5.02	955.0	2.22	Outcome2	5.1	2.49	3255.0	Yes		-2.60683276708192				ISIRate	Gain
25.0	1	387.442	0.028	442.117	-1.0	-1.0	18.8961	3.0	955.0	3.16	Certain	-10.67	7.7	0.0	No	4.0	18.374858437146102	2.003	389.445		GetAnswer	Gain
25.0	1	389.465	0.02	444.14	-1.0	-1.0	18.8961	4.0	955.0	3.16	Certain	-10.67	7.7	0.0	No		18.374858437146102				ShowChoice	Gain
25.0	1	393.494	0.029	448.169	-1.0	-1.0	18.8961	1.0	955.0	3.16	Certain	-10.67	7.7	0.0	No		18.374858437146102				ShowResult	Gain
25.0	1	394.513	0.019	449.188	-1.0	-1.0	18.8961	3.749	955.0	3.16	Certain	-10.67	7.7	0.0	No		18.374858437146102				ISITrial	Gain
26.0	1	398.291	0.029	452.966	-4.0	-4.0	18.3961	3.0	955.0	2.8	Certain	5.5	-13.32	0.0	No	4.0	18.817667044167603	2.138	400.429		GetAnswer	Gain
26.0	1	400.448	0.019	455.123	-4.0	-4.0	18.3961	4.0	955.0	2.8	Certain	5.5	-13.32	0.0	No		18.817667044167603				ShowChoice	Gain
26.0	1	404.46	0.012	459.135	-4.0	-4.0	18.3961	1.0	955.0	2.8	Certain	5.5	-13.32	0.0	No		18.817667044167603				ShowResult	Gain
26.0	1	405.479	0.019	460.154	-4.0	-4.0	18.3961	7.834	955.0	2.8	Certain	5.5	-13.32	0.0	No		18.817667044167603				ISITrial	Gain
27.0	1	413.336	0.023	468.011	-1.5	-11.0	18.2086	3.0	955.0	0.2	Outcome1	-1.5	-20.76	2549.75	Yes		19.2604756511891				GetAnswer	Mixed
27.0	1	416.362	0.026	471.037	-1.5	-11.0	18.2086	4.0	955.0	0.2	Outcome1	-1.5	-20.76	2549.75	Yes		19.2604756511891				ShowChoice	Mixed
27.0	1	420.374	0.012	475.049	-1.5	-11.0	18.2086	1.0	955.0	0.2	Outcome1	-1.5	-20.76	2549.75	Yes		19.2604756511891				ShowResult	Mixed
27.0	1	421.394	0.02	476.069	-1.5	-11.0	18.2086	4.225	955.0	0.2	Outcome1	-1.5	-20.76	2549.75	Yes		19.2604756511891				ISITrial	Mixed
27.0	1	428.214	0.024	482.889	-1.5	-11.0	18.2086	0.537	955.0	0.2	Outcome1	-1.5	-20.76	2549.75	Yes		19.2604756511891			532.0	TrialHappiness	Mixed
27.0	1	432.226	4.012	486.901	-1.5	-11.0	18.2086	2.199	955.0	0.2	Outcome1	-1.5	-20.76	2549.75	Yes		19.2604756511891				ISIRate	Mixed
	1	434.45	0.025	489.125				-0.001								{SPACE}		36.094	470.544		Rest	
	1	470.558	0.014	525.233				4.0													BlockHappyPreview	
	1	474.57	0.012	529.245				0.793								2{-2}		0.793	475.363	552.0	BlockStartHappiness	
	1	506.482	0.018	561.157				-0.001								5.0		2.749	509.231		ScanWait	
	2	0.026	0.026	563.932				10.0													GetReady	
28.0	2	10.057	0.031	573.963	2.3	1.15	18.4961	3.0	70.0	1.68	Outcome1	2.3	10.5	0.0	No	2.0	-8.19727891156463	1.06	11.117		GetAnswer	Loss
28.0	2	11.143	0.026	575.049	2.3	1.15	18.4961	4.0	70.0	1.68	Outcome1	2.3	10.5	0.0	No		-8.19727891156463				ShowChoice	Loss
28.0	2	15.155	0.012	579.061	2.3	1.15	18.4961	1.0	70.0	1.68	Outcome1	2.3	10.5	0.0	No		-8.19727891156463				ShowResult	Loss
28.0	2	16.175	0.02	580.081	2.3	1.15	18.4961	3.575	70.0	1.68	Outcome1	2.3	10.5	0.0	No		-8.19727891156463				ISITrial	Loss
29.0	2	19.769	0.019	583.675	1.56	0.78	18.6911	3.0	70.0	5.0	Outcome1	1.56	10.3	3529.0	Yes	2.0	-8.7437641723356	0.935	20.704		GetAnswer	Gain
29.0	2	20.722	0.018	584.628	1.56	0.78	18.6911	4.0	70.0	5.0	Outcome1	1.56	10.3	3529.0	Yes		-8.7437641723356				ShowChoice	Gain
29.0	2	24.734	0.012	588.64	1.56	0.78	18.6911	1.0	70.0	5.0	Outcome1	1.56	10.3	3529.0	Yes		-8.7437641723356				ShowResult	Gain
29.0	2	25.754	0.02	589.66	1.56	0.78	18.6911	3.955	70.0	5.0	Outcome1	1.56	10.3	3529.0	Yes		-8.7437641723356				ISITrial	Gain
29.0	2	33.276	0.015	597.182	1.56	0.78	18.6911	1.401	70.0	5.0	Outcome1	1.56	10.3	3529.0	Yes		-8.7437641723356			532.0	TrialHappiness	Gain
29.0	2	37.288	4.012	601.194	1.56	0.78	18.6911	6.116	70.0	5.0	Outcome1	1.56	10.3	3529.0	Yes		-8.7437641723356				ISIRate	Gain
30.0	2	43.423	0.019	607.329	0.57	0.0	18.7624	3.0	70.0	2.0	Outcome2	-1.4	0.57	0.0	No	2.0	1.96806500377929	1.297	44.72		GetAnswer	Mixed
30.0	2	44.744	0.024	608.65	0.57	0.0	18.7624	4.0	70.0	2.0	Outcome2	-1.4	0.57	0.0	No		1.96806500377929				ShowChoice	Mixed
30.0	2	48.756	0.012	612.662	0.57	0.0	18.7624	1.0	70.0	2.0	Outcome2	-1.4	0.57	0.0	No		1.96806500377929				ShowResult	Mixed
30.0	2	49.776	0.02	613.682	0.57	0.0	18.7624	4.453	70.0	2.0	Outcome2	-1.4	0.57	0.0	No		1.96806500377929				ISITrial	Mixed
31.0	2	54.256	0.027	618.162	2.92	2.0	19.1274	3.0	70.0	3.16	Outcome2	0.91	2.92	2503.25	Yes	2.0	2.0117157974300803	1.652	55.908		GetAnswer	Loss
31.0	2	55.927	0.019	619.833	2.92	2.0	19.1274	4.0	70.0	3.16	Outcome2	0.91	2.92	2503.25	Yes		2.0117157974300803				ShowChoice	Loss
31.0	2	59.94	0.013	623.846	2.92	2.0	19.1274	1.0	70.0	3.16	Outcome2	0.91	2.92	2503.25	Yes		2.0117157974300803				ShowResult	Loss
31.0	2	60.959	0.019	624.865	2.92	2.0	19.1274	4.786	70.0	3.16	Outcome2	0.91	2.92	2503.25	Yes		2.0117157974300803				ISITrial	Loss
31.0	2	68.281	0.021	632.187	2.92	2.0	19.1274	1.632	70.0	3.16	Outcome2	0.91	2.92	2503.25	Yes		2.0117157974300803			528.0	TrialHappiness	Loss
31.0	2	72.293	4.012	636.199	2.92	2.0	19.1274	2.013	70.0	3.16	Outcome2	0.91	2.92	2503.25	Yes		2.0117157974300803				ISIRate	Loss
32.0	2	74.333	0.027	638.239	-0.43	-0.22	19.0736	3.0	70.0	2.8	Outcome2	9.5	-0.43	0.0	No	2.0	-9.9297052154195	0.912	75.245		GetAnswer	Gain
32.0	2	75.269	0.024	639.175	-0.43	-0.22	19.0736	4.0	70.0	2.8	Outcome2	9.5	-0.43	0.0	No		-9.9297052154195				ShowChoice	Gain
32.0	2	79.281	0.012	643.187	-0.43	-0.22	19.0736	1.0	70.0	2.8	Outcome2	9.5	-0.43	0.0	No		-9.9297052154195				ShowResult	Gain
32.0	2	80.301	0.02	644.207	-0.43	-0.22	19.0736	2.0	70.0	2.8	Outcome2	9.5	-0.43	0.0	No		-9.9297052154195				ISITrial	Gain
33.0	2	82.323	0.022	646.229	-4.0	-4.0	18.5736	3.0	70.0	0.4	Certain	0.9	-9.55	0.0	No	4.0	-10.4489795918367	2.339	84.662		GetAnswer	Mixed
33.0	2	84.68	0.018	648.586	-4.0	-4.0	18.5736	4.0	70.0	0.4	Certain	0.9	-9.55	0.0	No		-10.4489795918367				ShowChoice	Mixed
33.0	2	88.692	0.012	652.598	-4.0	-4.0	18.5736	1.0	70.0	0.4	Certain	0.9	-9.55	0.0	No		-10.4489795918367				ShowResult	Mixed
33.0	2	89.712	0.02	653.618	-4.0	-4.0	18.5736	5.099	70.0	0.4	Certain	0.9	-9.55	0.0	No		-10.4489795918367				ISITrial	Mixed
34.0	2	94.828	0.017	658.734	-1.0	-1.0	18.4486	3.0	70.0	1.82	Certain	-6.27	4.7	3231.5	Yes	4.0	-10.968253968254	2.087	96.915		GetAnswer	Gain
34.0	2	96.934	0.019	660.84	-1.0	-1.0	18.4486	4.0	70.0	1.82	Certain	-6.27	4.7	3231.5	Yes		-10.968253968254				ShowChoice	Gain
34.0	2	100.946	0.012	664.852	-1.0	-1.0	18.4486	1.0	70.0	1.82	Certain	-6.27	4.7	3231.5	Yes		-10.968253968254				ShowResult	Gain
34.0	2	101.966	0.02	665.872	-1.0	-1.0	18.4486	4.784	70.0	1.82	Certain	-6.27	4.7	3231.5	Yes		-10.968253968254				ISITrial	Gain
34.0	2	110.023	0.028	673.929	-1.0	-1.0	18.4486	1.495	70.0	1.82	Certain	-6.27	4.7	3231.5	Yes		-10.968253968254			520.0	TrialHappiness	Gain
34.0	2	114.035	4.012	677.941	-1.0	-1.0	18.4486	4.926	70.0	1.82	Certain	-6.27	4.7	3231.5	Yes		-10.968253968254				ISIRate	Gain
35.0	2	118.983	0.022	682.889	1.95	0.98	18.6924	3.0	70.0	2.48	Outcome1	1.95	13.3	0.0	No	2.0	-11.351473922902501	1.006	119.989		GetAnswer	Loss
35.0	2	120.003	0.014	683.909	1.95	0.98	18.6924	4.0	70.0	2.48	Outcome1	1.95	13.3	0.0	No		-11.351473922902501				ShowChoice	Loss
35.0	2	124.015	0.012	687.921	1.95	0.98	18.6924	1.0	70.0	2.48	Outcome1	1.95	13.3	0.0	No		-11.351473922902501				ShowResult	Loss
35.0	2	125.035	0.02	688.941	1.95	0.98	18.6924	2.098	70.0	2.48	Outcome1	1.95	13.3	0.0	No		-11.351473922902501				ISITrial	Loss
36.0	2	127.158	0.025	691.064	-6.0	-6.0	17.9424	3.0	70.0	1.2	Certain	-11.96	-0.1	3335.75	Yes	4.0	-11.8616780045351	2.456	129.614		GetAnswer	Mixed
36.0	2	129.632	0.018	693.538	-6.0	-6.0	17.9424	4.0	70.0	1.2	Certain	-11.96	-0.1	3335.75	Yes		-11.8616780045351				ShowChoice	Mixed
36.0	2	133.644	0.012	697.55	-6.0	-6.0	17.9424	1.0	70.0	1.2	Certain	-11.96	-0.1	3335.75	Yes		-11.8616780045351				ShowResult	Mixed
36.0	2	134.664	0.02	698.57	-6.0	-6.0	17.9424	5.156	70.0	1.2	Certain	-11.96	-0.1	3335.75	Yes		-11.8616780045351				ISITrial	Mixed
36.0	2	143.206	0.024	707.112	-6.0	-6.0	17.9424	0.709	70.0	1.2	Certain	-11.96	-0.1	3335.75	Yes		-11.8616780045351			536.0	TrialHappiness	Mixed
36.0	2	147.218	4.012	711.124	-6.0	-6.0	17.9424	5.343	70.0	1.2	Certain	-11.96	-0.1	3335.75	Yes		-11.8616780045351				ISIRate	Mixed
37.0	2	152.584	0.023	716.49	-1.94	-0.97	17.6999	3.0	70.0	1.82	Outcome2	10.7	-1.94	0.0	No	2.0	-12.6439909297052	1.447	154.031		GetAnswer	Loss
37.0	2	154.055	0.024	717.961	-1.94	-0.97	17.6999	4.0	70.0	1.82	Outcome2	10.7	-1.94	0.0	No		-12.6439909297052				ShowChoice	Loss
37.0	2	158.067	0.012	721.973	-1.94	-0.97	17.6999	1.0	70.0	1.82	Outcome2	10.7	-1.94	0.0	No		-12.6439909297052				ShowResult	Loss
37.0	2	159.087	0.02	722.993	-1.94	-0.97	17.6999	3.598	70.0	1.82	Outcome2	10.7	-1.94	0.0	No		-12.6439909297052				ISITrial	Loss
38.0	2	162.714	0.029	726.62	-7.0	-7.0	16.8249	3.0	70.0	0.4	Certain	-1.1	-14.27	0.0	No	4.0	-13.172335600907	2.207	164.921		GetAnswer	Mixed
38.0	2	164.938	0.017	728.844	-7.0	-7.0	16.8249	4.0	70.0	0.4	Certain	-1.1	-14.27	0.0	No		-13.172335600907				ShowChoice	Mixed
38.0	2	168.95	0.012	732.856	-7.0	-7.0	16.8249	1.0	70.0	0.4	Certain	-1.1	-14.27	0.0	No		-13.172335600907				ShowResult	Mixed
38.0	2	169.97	0.02	733.876	-7.0	-7.0	16.8249	4.787	70.0	0.4	Certain	-1.1	-14.27	0.0	No		-13.172335600907				ISITrial	Mixed
39.0	2	174.784	0.027	738.69	-2.0	-2.0	16.5749	3.0	70.0	2.0	Certain	-8.8	4.9	2864.25	Yes	4.0	-13.7006802721088	2.063	176.847		GetAnswer	Gain
39.0	2	176.874	0.027	740.78	-2.0	-2.0	16.5749	4.0	70.0	2.0	Certain	-8.8	4.9	2864.25	Yes		-13.7006802721088				ShowChoice	Gain
39.0	2	180.886	0.012	744.792	-2.0	-2.0	16.5749	1.0	70.0	2.0	Certain	-8.8	4.9	2864.25	Yes		-13.7006802721088				ShowResult	Gain
39.0	2	181.905	0.019	745.811	-2.0	-2.0	16.5749	2.348	70.0	2.0	Certain	-8.8	4.9	2864.25	Yes		-13.7006802721088				ISITrial	Gain
39.0	2	187.171	0.028	751.077	-2.0	-2.0	16.5749	0.509	70.0	2.0	Certain	-8.8	4.9	2864.25	Yes	2{-2}	-13.7006802721088	0.509	187.68	544.0	TrialHappiness	Gain
39.0	2	191.183	4.012	755.089	-2.0	-2.0	16.5749	3.457	70.0	2.0	Certain	-8.8	4.9	2864.25	Yes		-13.7006802721088				ISIRate	Gain
40.0	2	194.66	0.02	758.566	0.82	0.0	16.6774	3.0	70.0	0.66	Outcome1	0.82	-1.63	0.0	No	2.0	2.4510582010582005	1.54	196.2		GetAnswer	Mixed
40.0	2	196.215	0.015	760.121	0.82	0.0	16.6774	4.0	70.0	0.66	Outcome1	0.82	-1.63	0.0	No		2.4510582010582005				ShowChoice	Mixed
40.0	2	200.227	0.012	764.133	0.82	0.0	16.6774	1.0	70.0	0.66	Outcome1	0.82	-1.63	0.0	No		2.4510582010582005				ShowResult	Mixed
40.0	2	201.247	0.02	765.153	0.82	0.0	16.6774	3.158	70.0	0.66	Outcome1	0.82	-1.63	0.0	No		2.4510582010582005				ISITrial	Mixed
41.0	2	204.423	0.018	768.329	-5.2	2.0	16.0274	3.0	70.0	3.16	Outcome2	9.7	-5.2	4000.0	Yes	2.0	-14.9024943310658	0.951	205.374		GetAnswer	Gain
41.0	2	205.393	0.019	769.299	-5.2	2.0	16.0274	4.0	70.0	3.16	Outcome2	9.7	-5.2	4000.0	Yes		-14.9024943310658				ShowChoice	Gain
41.0	2	209.405	0.012	773.311	-5.2	2.0	16.0274	1.0	70.0	3.16	Outcome2	9.7	-5.2	4000.0	Yes		-14.9024943310658				ShowResult	Gain
41.0	2	210.424	0.019	774.33	-5.2	2.0	16.0274	4.506	70.0	3.16	Outcome2	9.7	-5.2	4000.0	Yes		-14.9024943310658				ISITrial	Gain
41.0	2	218.983	0.028	782.889	-5.2	2.0	16.0274	2.832	70.0	3.16	Outcome2	9.7	-5.2	4000.0	Yes		-14.9024943310658			508.0	TrialHappiness	Gain
41.0	2	222.995	4.012	786.901	-5.2	2.0	16.0274	8.0	70.0	3.16	Outcome2	9.7	-5.2	4000.0	Yes		-14.9024943310658				ISIRate	Gain
42.0	2	231.019	0.024	794.925	1.02	0.0	16.1549	3.0	70.0	1.5	Outcome2	-1.37	1.02	0.0	No	2.0	2.3943688586545697	1.145	232.164		GetAnswer	Mixed
42.0	2	232.19	0.026	796.096	1.02	0.0	16.1549	4.0	70.0	1.5	Outcome2	-1.37	1.02	0.0	No		2.3943688586545697				ShowChoice	Mixed
42.0	2	236.202	0.012	800.108	1.02	0.0	16.1549	1.0	70.0	1.5	Outcome2	-1.37	1.02	0.0	No		2.3943688586545697				ShowResult	Mixed
42.0	2	237.221	0.019	801.127	1.02	0.0	16.1549	6.248	70.0	1.5	Outcome2	-1.37	1.02	0.0	No		2.3943688586545697				ISITrial	Mixed
43.0	2	243.49	0.021	807.396	-8.0	-8.0	15.1549	3.0	70.0	0.82	Certain	-15.82	-0.5	2775.75	Yes	4.0	-15.324263038548802	1.373	244.863		GetAnswer	Mixed
43.0	2	244.878	0.015	808.784	-8.0	-8.0	15.1549	4.0	70.0	0.82	Certain	-15.82	-0.5	2775.75	Yes		-15.324263038548802				ShowChoice	Mixed
43.0	2	248.89	0.012	812.796	-8.0	-8.0	15.1549	1.0	70.0	0.82	Certain	-15.82	-0.5	2775.75	Yes		-15.324263038548802				ShowResult	Mixed
43.0	2	249.909	0.019	813.815	-8.0	-8.0	15.1549	4.596	70.0	0.82	Certain	-15.82	-0.5	2775.75	Yes		-15.324263038548802				ISITrial	Mixed
43.0	2	257.315	0.016	821.221	-8.0	-8.0	15.1549	0.651	70.0	0.82	Certain	-15.82	-0.5	2775.75	Yes	4{-4}	-15.324263038548802	0.651	257.966	492.0	TrialHappiness	Mixed
43.0	2	261.327	4.012	825.233	-8.0	-8.0	15.1549	3.103	70.0	0.82	Certain	-15.82	-0.5	2775.75	Yes		-15.324263038548802				ISIRate	Mixed
44.0	2	264.453	0.023	828.359	-9.85	-2.0	13.9237	3.0	70.0	3.16	Outcome2	5.7	-9.85	0.0	No	2.0	-15.548752834467098	1.092	265.545		GetAnswer	Gain
44.0	2	265.573	0.028	829.479	-9.85	-2.0	13.9237	4.0	70.0	3.16	Outcome2	5.7	-9.85	0.0	No		-15.548752834467098				ShowChoice	Gain
44.0	2	269.585	0.012	833.491	-9.85	-2.0	13.9237	1.0	70.0	3.16	Outcome2	5.7	-9.85	0.0	No		-15.548752834467098				ShowResult	Gain
44.0	2	270.605	0.02	834.511	-9.85	-2.0	13.9237	2.42	70.0	3.16	Outcome2	5.7	-9.85	0.0	No		-15.548752834467098				ISITrial	Gain
45.0	2	273.045	0.02	836.951	-5.0	-5.0	13.2987	3.0	70.0	0.4	Certain	-13.13	2.9	0.0	No	4.0	-16.0272108843537	1.973	275.018		GetAnswer	Mixed
45.0	2	275.035	0.017	838.941	-5.0	-5.0	13.2987	4.0	70.0	0.4	Certain	-13.13	2.9	0.0	No		-16.0272108843537				ShowChoice	Mixed
45.0	2	279.047	0.012	842.953	-5.0	-5.0	13.2987	1.0	70.0	0.4	Certain	-13.13	2.9	0.0	No		-16.0272108843537				ShowResult	Mixed
45.0	2	280.067	0.02	843.973	-5.0	-5.0	13.2987	3.144	70.0	0.4	Certain	-13.13	2.9	0.0	No		-16.0272108843537				ISITrial	Mixed
46.0	2	283.243	0.032	847.149	-9.61	-1.0	12.0974	3.0	70.0	2.0	Outcome2	6.9	-9.61	3841.25	Yes	2.0	-16.5056689342404	1.651	284.894		GetAnswer	Gain
46.0	2	284.914	0.02	848.82	-9.61	-1.0	12.0974	4.0	70.0	2.0	Outcome2	6.9	-9.61	3841.25	Yes		-16.5056689342404				ShowChoice	Gain
46.0	2	288.926	0.012	852.832	-9.61	-1.0	12.0974	1.0	70.0	2.0	Outcome2	6.9	-9.61	3841.25	Yes		-16.5056689342404				ShowResult	Gain
46.0	2	289.946	0.02	853.852	-9.61	-1.0	12.0974	2.246	70.0	2.0	Outcome2	6.9	-9.61	3841.25	Yes		-16.5056689342404				ISITrial	Gain
46.0	2	296.065	0.021	859.971	-9.61	-1.0	12.0974	0.776	70.0	2.0	Outcome2	6.9	-9.61	3841.25	Yes		-16.5056689342404			480.0	TrialHappiness	Gain
46.0	2	300.077	4.012	863.983	-9.61	-1.0	12.0974	7.365	70.0	2.0	Outcome2	6.9	-9.61	3841.25	Yes		-16.5056689342404				ISIRate	Gain
47.0	2	307.465	0.023	871.371	0.42	-1.0	12.1499	3.0	70.0	1.0	Outcome1	0.42	-2.06	0.0	No	2.0	2.48299319727891	1.143	308.608		GetAnswer	Mixed
47.0	2	308.636	0.028	872.542	0.42	-1.0	12.1499	4.0	70.0	1.0	Outcome1	0.42	-2.06	0.0	No		2.48299319727891				ShowChoice	Mixed
47.0	2	312.648	0.012	876.554	0.42	-1.0	12.1499	1.0	70.0	1.0	Outcome1	0.42	-2.06	0.0	No		2.48299319727891				ShowResult	Mixed
47.0	2	313.667	0.019	877.573	0.42	-1.0	12.1499	2.0	70.0	1.0	Outcome1	0.42	-2.06	0.0	No		2.48299319727891				ISITrial	Mixed
48.0	2	315.69	0.023	879.596	-5.34	-2.67	11.4824	3.0	70.0	3.6	Outcome1	-5.34	11.9	2831.75	Yes	2.0	-17.2448979591837	1.689	317.379		GetAnswer	Loss
48.0	2	317.395	0.016	881.301	-5.34	-2.67	11.4824	4.0	70.0	3.6	Outcome1	-5.34	11.9	2831.75	Yes		-17.2448979591837				ShowChoice	Loss
48.0	2	321.407	0.012	885.313	-5.34	-2.67	11.4824	1.0	70.0	3.6	Outcome1	-5.34	11.9	2831.75	Yes		-17.2448979591837				ShowResult	Loss
48.0	2	322.427	0.02	886.333	-5.34	-2.67	11.4824	3.692	70.0	3.6	Outcome1	-5.34	11.9	2831.75	Yes		-17.2448979591837				ISITrial	Loss
48.0	2	328.997	0.027	892.903	-5.34	-2.67	11.4824	0.692	70.0	3.6	Outcome1	-5.34	11.9	2831.75	Yes		-17.2448979591837			488.0	TrialHappiness	Loss
48.0	2	333.009	4.012	896.915	-5.34	-2.67	11.4824	3.327	70.0	3.6	Outcome1	-5.34	11.9	2831.75	Yes		-17.2448979591837				ISIRate	Loss
49.0	2	336.352	0.016	900.258	-9.15	0.0	10.3386	3.0	70.0	1.82	Outcome2	8.7	-9.15	0.0	No	2.0	-17.845804988662103	1.504	337.856		GetAnswer	Gain
49.0	2	337.873	0.017	901.779	-9.15	0.0	10.3386	4.0	70.0	1.82	Outcome2	8.7	-9.15	0.0	No		-17.845804988662103				ShowChoice	Gain
49.0	2	341.885	0.012	905.791	-9.15	0.0	10.3386	1.0	70.0	1.82	Outcome2	8.7	-9.15	0.0	No		-17.845804988662103				ShowResult	Gain
49.0	2	342.905	0.02	906.811	-9.15	0.0	10.3386	8.0	70.0	1.82	Outcome2	8.7	-9.15	0.0	No		-17.845804988662103				ISITrial	Gain
50.0	2	350.929	0.024	914.835	-14.42	-5.0	8.5361	3.0	70.0	1.2	Outcome2	3.9	-14.42	3547.25	Yes	2.0	-18.3197278911565	1.212	352.141		GetAnswer	Mixed
50.0	2	352.166	0.025	916.072	-14.42	-5.0	8.5361	4.0	70.0	1.2	Outcome2	3.9	-14.42	3547.25	Yes		-18.3197278911565				ShowChoice	Mixed
50.0	2	356.178	0.012	920.084	-14.42	-5.0	8.5361	1.0	70.0	1.2	Outcome2	3.9	-14.42	3547.25	Yes		-18.3197278911565				ShowResult	Mixed
50.0	2	357.198	0.02	921.104	-14.42	-5.0	8.5361	7.537	70.0	1.2	Outcome2	3.9	-14.42	3547.25	Yes		-18.3197278911565				ISITrial	Mixed
50.0	2	368.331	0.03	932.237	-14.42	-5.0	8.5361	1.195	70.0	1.2	Outcome2	3.9	-14.42	3547.25	Yes		-18.3197278911565			464.0	TrialHappiness	Mixed
50.0	2	372.343	4.012	936.249	-14.42	-5.0	8.5361	6.189	70.0	1.2	Outcome2	3.9	-14.42	3547.25	Yes		-18.3197278911565				ISIRate	Mixed
51.0	2	378.562	0.03	942.468	-12.49	-3.0	6.9749	3.0	70.0	3.6	Outcome2	5.9	-12.49	0.0	No	2.0	-18.3854875283447	1.35	379.912		GetAnswer	Gain
51.0	2	379.933	0.021	943.839	-12.49	-3.0	6.9749	4.0	70.0	3.6	Outcome2	5.9	-12.49	0.0	No		-18.3854875283447				ShowChoice	Gain
51.0	2	383.945	0.012	947.851	-12.49	-3.0	6.9749	1.0	70.0	3.6	Outcome2	5.9	-12.49	0.0	No		-18.3854875283447				ShowResult	Gain
51.0	2	384.965	0.02	948.871	-12.49	-3.0	6.9749	5.508	70.0	3.6	Outcome2	5.9	-12.49	0.0	No		-18.3854875283447				ISITrial	Gain
52.0	2	390.498	0.025	954.404	-5.0	-5.0	6.3499	3.0	70.0	1.0	Certain	-15.13	3.7	0.0	No	4.0	-18.8321995464853	1.373	391.871		GetAnswer	Mixed
52.0	2	391.885	0.014	955.791	-5.0	-5.0	6.3499	4.0	70.0	1.0	Certain	-15.13	3.7	0.0	No		-18.8321995464853				ShowChoice	Mixed
52.0	2	395.897	0.012	959.803	-5.0	-5.0	6.3499	1.0	70.0	1.0	Certain	-15.13	3.7	0.0	No		-18.8321995464853				ShowResult	Mixed
52.0	2	396.917	0.02	960.823	-5.0	-5.0	6.3499	5.913	70.0	1.0	Certain	-15.13	3.7	0.0	No		-18.8321995464853				ISITrial	Mixed
53.0	2	402.852	0.022	966.758	1.08	0.0	6.4849	3.0	70.0	2.0	Outcome2	-1.57	1.08	2996.75	Yes	2.0	2.64890400604686	1.073	403.925		GetAnswer	Mixed
53.0	2	403.938	0.013	967.844	1.08	0.0	6.4849	4.0	70.0	2.0	Outcome2	-1.57	1.08	2996.75	Yes		2.64890400604686				ShowChoice	Mixed
53.0	2	407.95	0.012	971.856	1.08	0.0	6.4849	1.0	70.0	2.0	Outcome2	-1.57	1.08	2996.75	Yes		2.64890400604686				ShowResult	Mixed
53.0	2	408.97	0.02	972.876	1.08	0.0	6.4849	3.66	70.0	2.0	Outcome2	-1.57	1.08	2996.75	Yes		2.64890400604686				ISITrial	Mixed
53.0	2	415.673	0.028	979.579	1.08	0.0	6.4849	2.465	70.0	2.0	Outcome2	-1.57	1.08	2996.75	Yes		2.64890400604686			488.0	TrialHappiness	Mixed
53.0	2	419.685	4.012	983.591	1.08	0.0	6.4849	3.987	70.0	2.0	Outcome2	-1.57	1.08	2996.75	Yes		2.64890400604686				ISIRate	Mixed
54.0	2	423.697	0.025	987.603	-0.18	-1.0	6.4624	3.0	70.0	0.66	Outcome1	-0.18	-2.96	0.0	No	2.0	2.78363567649282	1.002	424.699		GetAnswer	Mixed
54.0	2	424.717	0.018	988.623	-0.18	-1.0	6.4624	4.0	70.0	0.66	Outcome1	-0.18	-2.96	0.0	No		2.78363567649282				ShowChoice	Mixed
54.0	2	428.729	0.012	992.635	-0.18	-1.0	6.4624	1.0	70.0	0.66	Outcome1	-0.18	-2.96	0.0	No		2.78363567649282				ShowResult	Mixed
54.0	2	429.749	0.02	993.655	-0.18	-1.0	6.4624	8.0	70.0	0.66	Outcome1	-0.18	-2.96	0.0	No		2.78363567649282				ISITrial	Mixed
	2	437.773	0.024	1001.679				-0.001								{SPACE}		21.949	459.722		Rest	
	2	459.739	0.017	1023.645				4.0													BlockHappyPreview	
	2	463.751	0.012	1027.657				1.456												520.0	BlockStartHappiness	
	2	495.479	0.013	1059.385				-0.001								5.0		8.003	503.482		ScanWait	
	3	0.021	0.021	1067.409				10.0													GetReady	
55.0	3	10.035	0.014	1077.423	0.86	0.86	6.5699	3.0	955.0	2.22	Certain	9.1	1.71	2533.25	Yes	4.0	7.389580973952429	0.856	10.891		GetAnswer	Gain
55.0	3	10.904	0.013	1078.292	0.86	0.86	6.5699	4.0	955.0	2.22	Certain	9.1	1.71	2533.25	Yes		7.389580973952429				ShowChoice	Gain
55.0	3	14.916	0.012	1082.304	0.86	0.86	6.5699	1.0	955.0	2.22	Certain	9.1	1.71	2533.25	Yes		7.389580973952429				ShowResult	Gain
55.0	3	15.936	0.02	1083.324	0.86	0.86	6.5699	7.709	955.0	2.22	Certain	9.1	1.71	2533.25	Yes		7.389580973952429				ISITrial	Gain
55.0	3	26.217	0.025	1093.605	0.86	0.86	6.5699	0.709	955.0	2.22	Certain	9.1	1.71	2533.25	Yes		7.389580973952429			488.0	TrialHappiness	Gain
55.0	3	30.229	4.012	1097.617	0.86	0.86	6.5699	2.133	955.0	2.22	Certain	9.1	1.71	2533.25	Yes		7.389580973952429				ISIRate	Gain
56.0	3	32.385	0.023	1099.773	6.7	2.0	7.4074	3.0	955.0	1.82	Outcome2	-1.73	6.7	0.0	No	2.0	8.42582106455266	1.149	33.534		GetAnswer	Gain
56.0	3	33.555	0.021	1100.943	6.7	2.0	7.4074	4.0	955.0	1.82	Outcome2	-1.73	6.7	0.0	No		8.42582106455266				ShowChoice	Gain
56.0	3	37.567	0.012	1104.955	6.7	2.0	7.4074	1.0	955.0	1.82	Outcome2	-1.73	6.7	0.0	No		8.42582106455266				ShowResult	Gain
56.0	3	38.587	0.02	1105.975	6.7	2.0	7.4074	4.697	955.0	1.82	Outcome2	-1.73	6.7	0.0	No		8.42582106455266				ISITrial	Gain
57.0	3	43.301	0.017	1110.689	6.1	1.0	8.1699	3.0	955.0	4.2	Outcome1	6.1	-2.85	0.0	No	2.0	8.95469988674972	1.018	44.319		GetAnswer	Gain
57.0	3	44.338	0.019	1111.726	6.1	1.0	8.1699	4.0	955.0	4.2	Outcome1	6.1	-2.85	0.0	No		8.95469988674972				ShowChoice	Gain
57.0	3	48.35	0.012	1115.738	6.1	1.0	8.1699	1.0	955.0	4.2	Outcome1	6.1	-2.85	0.0	No		8.95469988674972				ShowResult	Gain
57.0	3	49.369	0.019	1116.757	6.1	1.0	8.1699	4.291	955.0	4.2	Outcome1	6.1	-2.85	0.0	No		8.95469988674972				ISITrial	Gain
58.0	3	53.682	0.022	1121.07	12.7	1.61	9.7574	3.0	955.0	1.82	Outcome2	3.22	12.7	3045.75	Yes	2.0	9.48357870894677	1.007	54.689		GetAnswer	Loss
58.0	3	54.702	0.013	1122.09	12.7	1.61	9.7574	4.0	955.0	1.82	Outcome2	3.22	12.7	3045.75	Yes		9.48357870894677				ShowChoice	Loss
58.0	3	58.714	0.012	1126.102	12.7	1.61	9.7574	1.0	955.0	1.82	Outcome2	3.22	12.7	3045.75	Yes		9.48357870894677				ShowResult	Loss
58.0	3	59.734	0.02	1127.122	12.7	1.61	9.7574	2.037	955.0	1.82	Outcome2	3.22	12.7	3045.75	Yes		9.48357870894677				ISITrial	Loss
58.0	3	64.866	0.03	1132.254	12.7	1.61	9.7574	2.052	955.0	1.82	Outcome2	3.22	12.7	3045.75	Yes		9.48357870894677			488.0	TrialHappiness	Loss
58.0	3	68.878	4.012	1136.266	12.7	1.61	9.7574	4.183	955.0	1.82	Outcome2	3.22	12.7	3045.75	Yes		9.48357870894677				ISIRate	Loss
59.0	3	73.091	0.03	1140.479	11.3	0.64	11.1699	3.0	955.0	2.48	Outcome1	11.3	1.29	0.0	No	2.0	10.0124575311438	0.952	74.043		GetAnswer	Loss
59.0	3	74.06	0.017	1141.448	11.3	0.64	11.1699	4.0	955.0	2.48	Outcome1	11.3	1.29	0.0	No		10.0124575311438				ShowChoice	Loss
59.0	3	78.072	0.012	1145.46	11.3	0.64	11.1699	1.0	955.0	2.48	Outcome1	11.3	1.29	0.0	No		10.0124575311438				ShowResult	Loss
59.0	3	79.092	0.02	1146.48	11.3	0.64	11.1699	5.064	955.0	2.48	Outcome1	11.3	1.29	0.0	No		10.0124575311438				ISITrial	Loss
60.0	3	84.174	0.018	1151.562	5.79	2.9	11.8937	3.0	955.0	3.6	Outcome2	7.9	5.79	3562.5	Yes	2.0	-2.1124952812382	0.855	85.029		GetAnswer	Gain
60.0	3	85.043	0.014	1152.431	5.79	2.9	11.8937	4.0	955.0	3.6	Outcome2	7.9	5.79	3562.5	Yes		-2.1124952812382				ShowChoice	Gain
60.0	3	89.055	0.012	1156.443	5.79	2.9	11.8937	1.0	955.0	3.6	Outcome2	7.9	5.79	3562.5	Yes		-2.1124952812382				ShowResult	Gain
60.0	3	90.075	0.02	1157.463	5.79	2.9	11.8937	8.0	955.0	3.6	Outcome2	7.9	5.79	3562.5	Yes		-2.1124952812382				ISITrial	Gain
60.0	3	101.676	0.015	1169.064	5.79	2.9	11.8937	2.145	955.0	3.6	Outcome2	7.9	5.79	3562.5	Yes		-2.1124952812382			504.0	TrialHappiness	Gain
60.0	3	105.688	4.012	1173.076	5.79	2.9	11.8937	6.25	955.0	3.6	Outcome2	7.9	5.79	3562.5	Yes		-2.1124952812382				ISIRate	Gain
61.0	3	111.957	0.019	1179.345	9.9	-0.45	13.1312	3.0	955.0	3.6	Outcome2	-0.9	9.9	0.0	No	2.0	10.798414496036198	1.29	113.247		GetAnswer	Gain
61.0	3	113.261	0.014	1180.649	9.9	-0.45	13.1312	4.0	955.0	3.6	Outcome2	-0.9	9.9	0.0	No		10.798414496036198				ShowChoice	Gain
61.0	3	117.273	0.012	1184.661	9.9	-0.45	13.1312	1.0	955.0	3.6	Outcome2	-0.9	9.9	0.0	No		10.798414496036198				ShowResult	Gain
61.0	3	118.293	0.02	1185.681	9.9	-0.45	13.1312	4.586	955.0	3.6	Outcome2	-0.9	9.9	0.0	No		10.798414496036198				ISITrial	Gain
62.0	3	122.907	0.028	1190.295	7.3	1.0	14.0437	3.0	955.0	2.48	Outcome1	7.3	-4.01	3748.75	Yes	2.0	11.309173272933199	1.177	124.084		GetAnswer	Gain
62.0	3	124.11	0.026	1191.498	7.3	1.0	14.0437	4.0	955.0	2.48	Outcome1	7.3	-4.01	3748.75	Yes		11.309173272933199				ShowChoice	Gain
62.0	3	128.122	0.012	1195.51	7.3	1.0	14.0437	1.0	955.0	2.48	Outcome1	7.3	-4.01	3748.75	Yes		11.309173272933199				ShowResult	Gain
62.0	3	129.142	0.02	1196.53	7.3	1.0	14.0437	5.212	955.0	2.48	Outcome1	7.3	-4.01	3748.75	Yes		11.309173272933199				ISITrial	Gain
62.0	3	138.152	0.029	1205.54	7.3	1.0	14.0437	0.809	955.0	2.48	Outcome1	7.3	-4.01	3748.75	Yes		11.309173272933199			492.0	TrialHappiness	Gain
62.0	3	142.165	4.013	1209.553	7.3	1.0	14.0437	6.995	955.0	2.48	Outcome1	7.3	-4.01	3748.75	Yes		11.309173272933199				ISIRate	Gain
63.0	3	149.186	0.026	1216.574	-6.0	-6.0	13.2937	3.0	955.0	1.5	Certain	-11.92	0.1	0.0	No	4.0	12.0237825594564	1.932	151.118		GetAnswer	Mixed
63.0	3	151.141	0.023	1218.529	-6.0	-6.0	13.2937	4.0	955.0	1.5	Certain	-11.92	0.1	0.0	No		12.0237825594564				ShowChoice	Mixed
63.0	3	155.154	0.013	1222.542	-6.0	-6.0	13.2937	1.0	955.0	1.5	Certain	-11.92	0.1	0.0	No		12.0237825594564				ShowResult	Mixed
63.0	3	156.173	0.019	1223.561	-6.0	-6.0	13.2937	5.595	955.0	1.5	Certain	-11.92	0.1	0.0	No		12.0237825594564				ISITrial	Mixed
64.0	3	161.79	0.022	1229.178	-4.0	-4.0	12.7937	3.0	955.0	1.5	Certain	-10.45	2.1	0.0	No	4.0	12.5481313703284	1.104	162.894		GetAnswer	Mixed
64.0	3	162.91	0.016	1230.298	-4.0	-4.0	12.7937	4.0	955.0	1.5	Certain	-10.45	2.1	0.0	No		12.5481313703284				ShowChoice	Mixed
64.0	3	166.922	0.012	1234.31	-4.0	-4.0	12.7937	1.0	955.0	1.5	Certain	-10.45	2.1	0.0	No		12.5481313703284				ShowResult	Mixed
64.0	3	167.942	0.02	1235.33	-4.0	-4.0	12.7937	5.47	955.0	1.5	Certain	-10.45	2.1	0.0	No		12.5481313703284				ISITrial	Mixed
65.0	3	173.442	0.03	1240.83	-0.28	-0.28	12.7587	3.0	955.0	1.68	Certain	12.5	-0.57	2996.75	Yes	4.0	13.072480181200499	0.928	174.37		GetAnswer	Loss
65.0	3	174.395	0.025	1241.783	-0.28	-0.28	12.7587	4.0	955.0	1.68	Certain	12.5	-0.57	2996.75	Yes		13.072480181200499				ShowChoice	Loss
65.0	3	178.407	0.012	1245.795	-0.28	-0.28	12.7587	1.0	955.0	1.68	Certain	12.5	-0.57	2996.75	Yes		13.072480181200499				ShowResult	Loss
65.0	3	179.426	0.019	1246.814	-0.28	-0.28	12.7587	3.344	955.0	1.68	Certain	12.5	-0.57	2996.75	Yes		13.072480181200499				ISITrial	Loss
65.0	3	185.812	0.029	1253.2	-0.28	-0.28	12.7587	2.982	955.0	1.68	Certain	12.5	-0.57	2996.75	Yes		13.072480181200499			536.0	TrialHappiness	Loss
65.0	3	189.824	4.012	1257.212	-0.28	-0.28	12.7587	3.987	955.0	1.68	Certain	12.5	-0.57	2996.75	Yes		13.072480181200499				ISIRate	Loss
66.0	3	193.836	0.025	1261.224	9.92	4.96	13.9987	3.0	955.0	4.2	Outcome1	9.92	12.1	0.0	No	2.0	-2.17799169497924	1.031	194.867		GetAnswer	Loss
66.0	3	194.889	0.022	1262.277	9.92	4.96	13.9987	4.0	955.0	4.2	Outcome1	9.92	12.1	0.0	No		-2.17799169497924				ShowChoice	Loss
66.0	3	198.901	0.012	1266.289	9.92	4.96	13.9987	1.0	955.0	4.2	Outcome1	9.92	12.1	0.0	No		-2.17799169497924				ShowResult	Loss
66.0	3	199.921	0.02	1267.309	9.92	4.96	13.9987	3.959	955.0	4.2	Outcome1	9.92	12.1	0.0	No		-2.17799169497924				ISITrial	Loss
67.0	3	203.9	0.02	1271.288	1.0	1.0	14.1237	3.0	955.0	4.2	Certain	-5.22	8.1	2918.5	Yes	4.0	13.323895809739499	1.171	205.071		GetAnswer	Gain
67.0	3	205.087	0.016	1272.475	1.0	1.0	14.1237	4.0	955.0	4.2	Certain	-5.22	8.1	2918.5	Yes		13.323895809739499				ShowChoice	Gain
67.0	3	209.099	0.012	1276.487	1.0	1.0	14.1237	1.0	955.0	4.2	Certain	-5.22	8.1	2918.5	Yes		13.323895809739499				ShowResult	Gain
67.0	3	210.118	0.019	1277.506	1.0	1.0	14.1237	4.199	955.0	4.2	Certain	-5.22	8.1	2918.5	Yes		13.323895809739499				ISITrial	Gain
67.0	3	217.273	0.024	1284.661	1.0	1.0	14.1237	0.509	955.0	4.2	Certain	-5.22	8.1	2918.5	Yes		13.323895809739499			532.0	TrialHappiness	Gain
67.0	3	221.285	4.012	1288.673	1.0	1.0	14.1237	3.674	955.0	4.2	Certain	-5.22	8.1	2918.5	Yes		13.323895809739499				ISIRate	Gain
68.0	3	224.98	0.021	1292.368	7.03	3.52	15.0025	3.0	955.0	2.48	Outcome1	7.03	9.3	0.0	No	2.0	-2.27331068327671	0.87	225.85		GetAnswer	Gain
68.0	3	225.866	0.016	1293.254	7.03	3.52	15.0025	4.0	955.0	2.48	Outcome1	7.03	9.3	0.0	No		-2.27331068327671				ShowChoice	Gain
68.0	3	229.878	0.012	1297.266	7.03	3.52	15.0025	1.0	955.0	2.48	Outcome1	7.03	9.3	0.0	No		-2.27331068327671				ShowResult	Gain
68.0	3	230.897	0.019	1298.285	7.03	3.52	15.0025	2.185	955.0	2.48	Outcome1	7.03	9.3	0.0	No		-2.27331068327671				ISITrial	Gain
69.0	3	233.104	0.022	1300.492	1.0	1.0	15.1275	3.0	955.0	5.0	Certain	-6.05	8.3	0.0	No	4.0	14.345413363533401	1.61	234.714		GetAnswer	Gain
69.0	3	234.726	0.012	1302.114	1.0	1.0	15.1275	4.0	955.0	5.0	Certain	-6.05	8.3	0.0	No		14.345413363533401				ShowChoice	Gain
69.0	3	238.738	0.012	1306.126	1.0	1.0	15.1275	1.0	955.0	5.0	Certain	-6.05	8.3	0.0	No		14.345413363533401				ShowResult	Gain
69.0	3	239.757	0.019	1307.145	1.0	1.0	15.1275	2.0	955.0	5.0	Certain	-6.05	8.3	0.0	No		14.345413363533401				ISITrial	Gain
70.0	3	241.78	0.023	1309.168	-6.0	-6.0	14.3775	3.0	955.0	0.82	Certain	1.5	-13.32	3651.25	Yes	4.0	14.8244620611552	2.633	244.413		GetAnswer	Mixed
70.0	3	244.438	0.025	1311.826	-6.0	-6.0	14.3775	4.0	955.0	0.82	Certain	1.5	-13.32	3651.25	Yes		14.8244620611552				ShowChoice	Mixed
70.0	3	248.45	0.012	1315.838	-6.0	-6.0	14.3775	1.0	955.0	0.82	Certain	1.5	-13.32	3651.25	Yes		14.8244620611552				ShowResult	Mixed
70.0	3	249.47	0.02	1316.858	-6.0	-6.0	14.3775	2.623	955.0	0.82	Certain	1.5	-13.32	3651.25	Yes		14.8244620611552				ISITrial	Mixed
70.0	3	255.789	0.027	1323.177	-6.0	-6.0	14.3775	0.525	955.0	0.82	Certain	1.5	-13.32	3651.25	Yes		14.8244620611552			536.0	TrialHappiness	Mixed
70.0	3	259.801	4.012	1327.189	-6.0	-6.0	14.3775	6.605	955.0	0.82	Certain	1.5	-13.32	3651.25	Yes		14.8244620611552				ISIRate	Mixed
71.0	3	266.437	0.031	1333.825	13.5	-0.87	16.065	3.0	955.0	2.8	Outcome1	13.5	-1.74	0.0	No	2.0	15.235560588901501	1.01	267.447		GetAnswer	Loss
71.0	3	267.474	0.027	1334.862	13.5	-0.87	16.065	4.0	955.0	2.8	Outcome1	13.5	-1.74	0.0	No		15.235560588901501				ShowChoice	Loss
71.0	3	271.486	0.012	1338.874	13.5	-0.87	16.065	1.0	955.0	2.8	Outcome1	13.5	-1.74	0.0	No		15.235560588901501				ShowResult	Loss
71.0	3	272.506	0.02	1339.894	13.5	-0.87	16.065	5.499	955.0	2.8	Outcome1	13.5	-1.74	0.0	No		15.235560588901501				ISITrial	Loss
72.0	3	278.022	0.017	1345.41	-4.0	-4.0	15.565	3.0	955.0	0.82	Certain	-12.21	3.5	3080.5	Yes	4.0	15.7100792751982	1.798	279.82		GetAnswer	Mixed
72.0	3	279.844	0.024	1347.232	-4.0	-4.0	15.565	4.0	955.0	0.82	Certain	-12.21	3.5	3080.5	Yes		15.7100792751982				ShowChoice	Mixed
72.0	3	283.856	0.012	1351.244	-4.0	-4.0	15.565	1.0	955.0	0.82	Certain	-12.21	3.5	3080.5	Yes		15.7100792751982				ShowResult	Mixed
72.0	3	284.876	0.02	1352.264	-4.0	-4.0	15.565	5.672	955.0	0.82	Certain	-12.21	3.5	3080.5	Yes		15.7100792751982				ISITrial	Mixed
72.0	3	293.669	0.029	1361.057	-4.0	-4.0	15.565	1.165	955.0	0.82	Certain	-12.21	3.5	3080.5	Yes		15.7100792751982			532.0	TrialHappiness	Mixed
72.0	3	297.681	4.012	1365.069	-4.0	-4.0	15.565	4.322	955.0	0.82	Certain	-12.21	3.5	3080.5	Yes		15.7100792751982				ISIRate	Mixed
73.0	3	302.027	0.024	1369.415	0.7	-7.0	15.6525	3.0	955.0	0.3	Outcome1	0.7	-15.55	0.0	No	2.0	16.2525481313703	1.445	303.472		GetAnswer	Mixed
73.0	3	303.499	0.027	1370.887	0.7	-7.0	15.6525	4.0	955.0	0.3	Outcome1	0.7	-15.55	0.0	No		16.2525481313703				ShowChoice	Mixed
73.0	3	307.511	0.012	1374.899	0.7	-7.0	15.6525	1.0	955.0	0.3	Outcome1	0.7	-15.55	0.0	No		16.2525481313703				ShowResult	Mixed
73.0	3	308.53	0.019	1375.918	0.7	-7.0	15.6525	4.616	955.0	0.3	Outcome1	0.7	-15.55	0.0	No		16.2525481313703				ISITrial	Mixed
74.0	3	313.178	0.032	1380.566	8.99	4.5	16.7763	3.0	955.0	2.8	Outcome2	11.5	8.99	3056.25	Yes	2.0	-2.51208003020008	1.284	314.462		GetAnswer	Loss
74.0	3	314.481	0.019	1381.869	8.99	4.5	16.7763	4.0	955.0	2.8	Outcome2	11.5	8.99	3056.25	Yes		-2.51208003020008				ShowChoice	Loss
74.0	3	318.493	0.012	1385.881	8.99	4.5	16.7763	1.0	955.0	2.8	Outcome2	11.5	8.99	3056.25	Yes		-2.51208003020008				ShowResult	Loss
74.0	3	319.513	0.02	1386.901	8.99	4.5	16.7763	3.909	955.0	2.8	Outcome2	11.5	8.99	3056.25	Yes		-2.51208003020008				ISITrial	Loss
74.0	3	326.518	0.02	1393.906	8.99	4.5	16.7763	2.365	955.0	2.8	Outcome2	11.5	8.99	3056.25	Yes		-2.51208003020008			536.0	TrialHappiness	Loss
74.0	3	330.53	4.012	1397.918	8.99	4.5	16.7763	4.225	955.0	2.8	Outcome2	11.5	8.99	3056.25	Yes		-2.51208003020008				ISIRate	Loss
75.0	3	334.776	0.021	1402.164	-9.0	-9.0	15.6513	3.0	955.0	1.0	Certain	-17.44	-0.3	0.0	No	4.0	17.1426953567384	1.761	336.537		GetAnswer	Mixed
75.0	3	336.564	0.027	1403.952	-9.0	-9.0	15.6513	4.0	955.0	1.0	Certain	-17.44	-0.3	0.0	No		17.1426953567384				ShowChoice	Mixed
75.0	3	340.576	0.012	1407.964	-9.0	-9.0	15.6513	1.0	955.0	1.0	Certain	-17.44	-0.3	0.0	No		17.1426953567384				ShowResult	Mixed
75.0	3	341.596	0.02	1408.984	-9.0	-9.0	15.6513	4.979	955.0	1.0	Certain	-17.44	-0.3	0.0	No		17.1426953567384				ISITrial	Mixed
76.0	3	346.594	0.019	1413.982	-7.0	-7.0	14.7763	3.0	955.0	0.66	Certain	1.3	-16.32	0.0	No	4.0	17.6172140430351	1.626	348.22		GetAnswer	Mixed
76.0	3	348.233	0.013	1415.621	-7.0	-7.0	14.7763	4.0	955.0	0.66	Certain	1.3	-16.32	0.0	No		17.6172140430351				ShowChoice	Mixed
76.0	3	352.245	0.012	1419.633	-7.0	-7.0	14.7763	1.0	955.0	0.66	Certain	1.3	-16.32	0.0	No		17.6172140430351				ShowResult	Mixed
76.0	3	353.264	0.019	1420.652	-7.0	-7.0	14.7763	3.931	955.0	0.66	Certain	1.3	-16.32	0.0	No		17.6172140430351				ISITrial	Mixed
77.0	3	357.226	0.031	1424.614	11.09	5.54	16.1625	3.0	955.0	3.16	Outcome2	13.7	11.09	4000.0	Yes	2.0	-2.6148546621366604	1.112	358.338		GetAnswer	Loss
77.0	3	358.363	0.025	1425.751	11.09	5.54	16.1625	4.0	955.0	3.16	Outcome2	13.7	11.09	4000.0	Yes		-2.6148546621366604				ShowChoice	Loss
77.0	3	362.375	0.012	1429.763	11.09	5.54	16.1625	1.0	955.0	3.16	Outcome2	13.7	11.09	4000.0	Yes		-2.6148546621366604				ShowResult	Loss
77.0	3	363.395	0.02	1430.783	11.09	5.54	16.1625	7.022	955.0	3.16	Outcome2	13.7	11.09	4000.0	Yes		-2.6148546621366604				ISITrial	Loss
77.0	3	374.461	0.028	1441.849	11.09	5.54	16.1625	0.526	955.0	3.16	Outcome2	13.7	11.09	4000.0	Yes		-2.6148546621366604			536.0	TrialHappiness	Loss
77.0	3	378.473	4.012	1445.861	11.09	5.54	16.1625	8.0	955.0	3.16	Outcome2	13.7	11.09	4000.0	Yes		-2.6148546621366604				ISIRate	Loss
78.0	3	386.497	0.024	1453.885	-7.0	-7.0	15.2875	3.0	955.0	1.2	Certain	-16.67	1.9	0.0	No	4.0	18.5662514156285	1.066	387.563		GetAnswer	Mixed
78.0	3	387.584	0.021	1454.972	-7.0	-7.0	15.2875	4.0	955.0	1.2	Certain	-16.67	1.9	0.0	No		18.5662514156285				ShowChoice	Mixed
78.0	3	391.596	0.012	1458.984	-7.0	-7.0	15.2875	1.0	955.0	1.2	Certain	-16.67	1.9	0.0	No		18.5662514156285				ShowResult	Mixed
78.0	3	392.616	0.02	1460.004	-7.0	-7.0	15.2875	2.078	955.0	1.2	Certain	-16.67	1.9	0.0	No		18.5662514156285				ISITrial	Mixed
79.0	3	394.722	0.028	1462.11	3.61	1.8	15.7387	3.0	955.0	5.0	Outcome1	3.61	6.3	2729.5	Yes	2.0	-2.69394110985277	1.279	396.001		GetAnswer	Gain
79.0	3	396.026	0.025	1463.414	3.61	1.8	15.7387	4.0	955.0	5.0	Outcome1	3.61	6.3	2729.5	Yes		-2.69394110985277				ShowChoice	Gain
79.0	3	400.038	0.012	1467.426	3.61	1.8	15.7387	1.0	955.0	5.0	Outcome1	3.61	6.3	2729.5	Yes		-2.69394110985277				ShowResult	Gain
79.0	3	401.058	0.02	1468.446	3.61	1.8	15.7387	3.829	955.0	5.0	Outcome1	3.61	6.3	2729.5	Yes		-2.69394110985277				ISITrial	Gain
79.0	3	407.661	0.028	1475.049	3.61	1.8	15.7387	0.726	955.0	5.0	Outcome1	3.61	6.3	2729.5	Yes		-2.69394110985277			544.0	TrialHappiness	Gain
79.0	3	411.673	4.012	1479.061	3.61	1.8	15.7387	2.918	955.0	5.0	Outcome1	3.61	6.3	2729.5	Yes		-2.69394110985277				ISIRate	Gain
80.0	3	414.615	0.024	1482.003	-9.0	-9.0	14.6137	3.0	955.0	0.3	Certain	0.7	-18.68	0.0	No	4.0	19.379388448471104	1.489	416.104		GetAnswer	Mixed
80.0	3	416.12	0.016	1483.508	-9.0	-9.0	14.6137	4.0	955.0	0.3	Certain	0.7	-18.68	0.0	No		19.379388448471104				ShowChoice	Mixed
80.0	3	420.132	0.012	1487.52	-9.0	-9.0	14.6137	1.0	955.0	0.3	Certain	0.7	-18.68	0.0	No		19.379388448471104				ShowResult	Mixed
80.0	3	421.151	0.019	1488.539	-9.0	-9.0	14.6137	3.336	955.0	0.3	Certain	0.7	-18.68	0.0	No		19.379388448471104				ISITrial	Mixed
81.0	3	424.512	0.025	1491.9	0.56	2.0	14.6837	3.0	955.0	0.66	Outcome2	3.3	0.56	3923.75	Yes	2.0	-2.73980747451869	1.311	425.823		GetAnswer	Mixed
81.0	3	425.849	0.026	1493.237	0.56	2.0	14.6837	4.0	955.0	0.66	Outcome2	3.3	0.56	3923.75	Yes		-2.73980747451869				ShowChoice	Mixed
81.0	3	429.861	0.012	1497.249	0.56	2.0	14.6837	1.0	955.0	0.66	Outcome2	3.3	0.56	3923.75	Yes		-2.73980747451869				ShowResult	Mixed
81.0	3	430.881	0.02	1498.269	0.56	2.0	14.6837	3.919	955.0	0.66	Outcome2	3.3	0.56	3923.75	Yes		-2.73980747451869				ISITrial	Mixed
81.0	3	438.771	0.021	1506.159	0.56	2.0	14.6837	0.525	955.0	0.66	Outcome2	3.3	0.56	3923.75	Yes		-2.73980747451869			552.0	TrialHappiness	Mixed
81.0	3	442.8	4.029	1510.188	0.56	2.0	14.6837	7.695	955.0	0.66	Outcome2	3.3	0.56	3923.75	Yes		-2.73980747451869				ISIRate	Mixed
	3	450.523	0.028	1517.911				3.0													CurrentEarnings	
	3	453.549	0.026	1520.937				-0.001								2.0		26.897	480.446		Goodbye	
