trial_number	block	onset	onset_delay	onset_unadjusted	amount_change	certain_amount	current_amount	duration	mood_target	multiplier	outcome	outcome1_amount	outcome2_amount	question_duration	rating	response	rpe	rt	rt_time	slider_response	trial_phase	trial_type
	0	-55.174	0.021	27.189				-0.001								4.0		3.776	-51.398		Welcome	
	0	-51.379	0.018	30.984				5.0													LifeHappyPreview	
	0	-46.348	0.031	36.015				4.869												848.0	LifeHappiness	
	0	-24.031	0.016	58.332				4.0													BlockHappyPreview	
	0	-20.019	0.012	62.344				1.427												744.0	BlockStartHappiness	
	0	-5.826	0.02	76.537				-0.001								5.0					ScanWait	
	1	0.025	0.025	82.388				10.0													GetReady	
1.0	1	10.055	0.03	92.418	2.0	2.0	10.25	3.0	955.0	1.0	Certain	0.12	3.7	0.0	No	4.0	3.58437146092865	2.442	12.497		GetAnswer	Mixed
1.0	1	12.512	0.015	94.875	2.0	2.0	10.25	4.0	955.0	1.0	Certain	0.12	3.7	0.0	No		3.58437146092865				ShowChoice	Mixed
1.0	1	16.524	0.012	98.887	2.0	2.0	10.25	1.0	955.0	1.0	Certain	0.12	3.7	0.0	No		3.58437146092865				ShowResult	Mixed
1.0	1	17.544	0.02	99.907	2.0	2.0	10.25	2.431	955.0	1.0	Certain	0.12	3.7	0.0	No		3.58437146092865				ISITrial	Mixed
2.0	1	20.001	0.026	102.364	12.9	4.54	11.8625	3.0	955.0	2.0	Outcome1	12.9	9.08	0.0	No	2.0	3.8233295583239	1.512	21.513		GetAnswer	Loss
2.0	1	21.539	0.026	103.902	12.9	4.54	11.8625	4.0	955.0	2.0	Outcome1	12.9	9.08	0.0	No		3.8233295583239				ShowChoice	Loss
2.0	1	25.551	0.012	107.914	12.9	4.54	11.8625	1.0	955.0	2.0	Outcome1	12.9	9.08	0.0	No		3.8233295583239				ShowResult	Loss
2.0	1	26.571	0.02	108.934	12.9	4.54	11.8625	4.568	955.0	2.0	Outcome1	12.9	9.08	0.0	No		3.8233295583239				ISITrial	Loss
3.0	1	31.168	0.029	113.531	-2.0	-2.0	11.6125	3.0	955.0	0.66	Certain	-0.7	-4.76	2868.0	Yes	4.0	4.06228765571914	1.889	33.057		GetAnswer	Mixed
3.0	1	33.074	0.017	115.437	-2.0	-2.0	11.6125	4.0	955.0	0.66	Certain	-0.7	-4.76	2868.0	Yes		4.06228765571914				ShowChoice	Mixed
3.0	1	37.086	0.012	119.449	-2.0	-2.0	11.6125	1.0	955.0	0.66	Certain	-0.7	-4.76	2868.0	Yes		4.06228765571914				ShowResult	Mixed
3.0	1	38.106	0.02	120.469	-2.0	-2.0	11.6125	3.243	955.0	0.66	Certain	-0.7	-4.76	2868.0	Yes		4.06228765571914				ISITrial	Mixed
3.0	1	44.258	0.024	126.621	-2.0	-2.0	11.6125	3.116	955.0	0.66	Certain	-0.7	-4.76	2868.0	Yes		4.06228765571914			580.0	TrialHappiness	Mixed
3.0	1	48.27	4.012	130.633	-2.0	-2.0	11.6125	3.472	955.0	0.66	Certain	-0.7	-4.76	2868.0	Yes		4.06228765571914				ISIRate	Mixed
4.0	1	51.763	0.021	134.126	-2.48	-1.0	11.3025	3.0	955.0	0.52	Outcome1	-2.48	-0.9	0.0	No		-1.5815402038505102				GetAnswer	Mixed
4.0	1	54.789	0.026	137.152	-2.48	-1.0	11.3025	4.0	955.0	0.52	Outcome1	-2.48	-0.9	0.0	No		-1.5815402038505102				ShowChoice	Mixed
4.0	1	58.801	0.012	141.164	-2.48	-1.0	11.3025	1.0	955.0	0.52	Outcome1	-2.48	-0.9	0.0	No		-1.5815402038505102				ShowResult	Mixed
4.0	1	59.821	0.02	142.184	-2.48	-1.0	11.3025	2.011	955.0	0.52	Outcome1	-2.48	-0.9	0.0	No		-1.5815402038505102				ISITrial	Mixed
5.0	1	61.86	0.028	144.223	-4.0	-4.0	10.8025	3.0	955.0	1.2	Certain	-0.1	-7.61	2582.5	Yes	4.0	7.5118912797282	1.551	63.411		GetAnswer	Mixed
5.0	1	63.432	0.021	145.795	-4.0	-4.0	10.8025	4.0	955.0	1.2	Certain	-0.1	-7.61	2582.5	Yes		7.5118912797282				ShowChoice	Mixed
5.0	1	67.444	0.012	149.807	-4.0	-4.0	10.8025	1.0	955.0	1.2	Certain	-0.1	-7.61	2582.5	Yes		7.5118912797282				ShowResult	Mixed
5.0	1	68.464	0.02	150.827	-4.0	-4.0	10.8025	5.129	955.0	1.2	Certain	-0.1	-7.61	2582.5	Yes		7.5118912797282				ISITrial	Mixed
5.0	1	76.22	0.026	158.583	-4.0	-4.0	10.8025	1.495	955.0	1.2	Certain	-0.1	-7.61	2582.5	Yes		7.5118912797282			336.0	TrialHappiness	Mixed
5.0	1	80.232	4.012	162.595	-4.0	-4.0	10.8025	2.33	955.0	1.2	Certain	-0.1	-7.61	2582.5	Yes		7.5118912797282				ISIRate	Mixed
6.0	1	82.589	0.027	164.952	2.66	1.33	11.135	3.0	955.0	2.48	Outcome2	5.3	2.66	0.0	No	2.0	-2.64250660626652	1.047	83.636		GetAnswer	Gain
6.0	1	83.659	0.023	166.022	2.66	1.33	11.135	4.0	955.0	2.48	Outcome2	5.3	2.66	0.0	No		-2.64250660626652				ShowChoice	Gain
6.0	1	87.671	0.012	170.034	2.66	1.33	11.135	1.0	955.0	2.48	Outcome2	5.3	2.66	0.0	No		-2.64250660626652				ShowResult	Gain
6.0	1	88.691	0.02	171.054	2.66	1.33	11.135	6.232	955.0	2.48	Outcome2	5.3	2.66	0.0	No		-2.64250660626652				ISITrial	Gain
7.0	1	94.943	0.02	177.306	12.5	-0.14	12.6975	3.0	955.0	1.68	Outcome1	12.5	-0.28	0.0	No	2.0	12.7825594563986	1.402	96.345		GetAnswer	Loss
7.0	1	96.364	0.019	178.727	12.5	-0.14	12.6975	4.0	955.0	1.68	Outcome1	12.5	-0.28	0.0	No		12.7825594563986				ShowChoice	Loss
7.0	1	100.376	0.012	182.739	12.5	-0.14	12.6975	1.0	955.0	1.68	Outcome1	12.5	-0.28	0.0	No		12.7825594563986				ShowResult	Loss
7.0	1	101.396	0.02	183.759	12.5	-0.14	12.6975	2.305	955.0	1.68	Outcome1	12.5	-0.28	0.0	No		12.7825594563986				ISITrial	Loss
8.0	1	103.719	0.018	186.082	2.9	-4.0	13.06	3.0	955.0	0.4	Outcome2	-10.58	2.9	3112.5	Yes	2.0	13.4835787089468	1.923	105.642		GetAnswer	Mixed
8.0	1	105.658	0.016	188.021	2.9	-4.0	13.06	4.0	955.0	0.4	Outcome2	-10.58	2.9	3112.5	Yes		13.4835787089468				ShowChoice	Mixed
8.0	1	109.67	0.012	192.033	2.9	-4.0	13.06	1.0	955.0	0.4	Outcome2	-10.58	2.9	3112.5	Yes		13.4835787089468				ShowResult	Mixed
8.0	1	110.69	0.02	193.053	2.9	-4.0	13.06	3.506	955.0	0.4	Outcome2	-10.58	2.9	3112.5	Yes		13.4835787089468				ISITrial	Mixed
8.0	1	117.343	0.014	199.706	2.9	-4.0	13.06	1.026	955.0	0.4	Outcome2	-10.58	2.9	3112.5	Yes		13.4835787089468			744.0	TrialHappiness	Mixed
8.0	1	121.356	4.013	203.719	2.9	-4.0	13.06	4.45	955.0	0.4	Outcome2	-10.58	2.9	3112.5	Yes		13.4835787089468				ISIRate	Mixed
9.0	1	125.836	0.03	208.199	8.54	4.27	14.1275	3.0	955.0	3.16	Outcome1	8.54	9.7	0.0	No	2.0	-1.1620422801057	1.122	126.958		GetAnswer	Gain
9.0	1	126.972	0.014	209.335	8.54	4.27	14.1275	4.0	955.0	3.16	Outcome1	8.54	9.7	0.0	No		-1.1620422801057				ShowChoice	Gain
9.0	1	130.984	0.012	213.347	8.54	4.27	14.1275	1.0	955.0	3.16	Outcome1	8.54	9.7	0.0	No		-1.1620422801057				ShowResult	Gain
9.0	1	132.004	0.02	214.367	8.54	4.27	14.1275	2.0	955.0	3.16	Outcome1	8.54	9.7	0.0	No		-1.1620422801057				ISITrial	Gain
10.0	1	134.027	0.023	216.39	-1.0	-1.0	14.0025	3.0	955.0	2.0	Certain	2.3	-5.19	4000.0	Yes	4.0	7.49263873159683	1.475	135.502		GetAnswer	Mixed
10.0	1	135.515	0.013	217.878	-1.0	-1.0	14.0025	4.0	955.0	2.0	Certain	2.3	-5.19	4000.0	Yes		7.49263873159683				ShowChoice	Mixed
10.0	1	139.527	0.012	221.89	-1.0	-1.0	14.0025	1.0	955.0	2.0	Certain	2.3	-5.19	4000.0	Yes		7.49263873159683				ShowResult	Mixed
10.0	1	140.546	0.019	222.909	-1.0	-1.0	14.0025	2.0	955.0	2.0	Certain	2.3	-5.19	4000.0	Yes		7.49263873159683				ISITrial	Mixed
10.0	1	146.598	0.029	228.961	-1.0	-1.0	14.0025	1.798	955.0	2.0	Certain	2.3	-5.19	4000.0	Yes		7.49263873159683			640.0	TrialHappiness	Mixed
10.0	1	150.61	4.012	232.973	-1.0	-1.0	14.0025	8.0	955.0	2.0	Certain	2.3	-5.19	4000.0	Yes		7.49263873159683				ISIRate	Mixed
11.0	1	158.634	0.024	240.997	9.08	4.54	15.1375	3.0	955.0	1.82	Outcome2	10.7	9.08	0.0	No	2.0	-1.6239146847867099	0.986	159.62		GetAnswer	Loss
11.0	1	159.637	0.017	242.0	9.08	4.54	15.1375	4.0	955.0	1.82	Outcome2	10.7	9.08	0.0	No		-1.6239146847867099				ShowChoice	Loss
11.0	1	163.649	0.012	246.012	9.08	4.54	15.1375	1.0	955.0	1.82	Outcome2	10.7	9.08	0.0	No		-1.6239146847867099				ShowResult	Loss
11.0	1	164.669	0.02	247.032	9.08	4.54	15.1375	3.324	955.0	1.82	Outcome2	10.7	9.08	0.0	No		-1.6239146847867099				ISITrial	Loss
12.0	1	168.012	0.019	250.375	10.5	0.32	16.45	3.0	955.0	1.68	Outcome1	10.5	0.64	2618.75	Yes	2.0	9.8550396375991	1.03	169.042		GetAnswer	Loss
12.0	1	169.065	0.023	251.428	10.5	0.32	16.45	4.0	955.0	1.68	Outcome1	10.5	0.64	2618.75	Yes		9.8550396375991				ShowChoice	Loss
12.0	1	173.077	0.012	255.44	10.5	0.32	16.45	1.0	955.0	1.68	Outcome1	10.5	0.64	2618.75	Yes		9.8550396375991				ShowResult	Loss
12.0	1	174.097	0.02	256.46	10.5	0.32	16.45	6.642	955.0	1.68	Outcome1	10.5	0.64	2618.75	Yes		9.8550396375991				ISITrial	Loss
12.0	1	183.392	0.023	265.755	10.5	0.32	16.45	1.009	955.0	1.68	Outcome1	10.5	0.64	2618.75	Yes		9.8550396375991			752.0	TrialHappiness	Loss
12.0	1	187.404	4.012	269.767	10.5	0.32	16.45	2.475	955.0	1.68	Outcome1	10.5	0.64	2618.75	Yes		9.8550396375991				ISIRate	Loss
13.0	1	189.911	0.032	272.274	-3.0	-3.0	16.075	3.0	955.0	0.52	Certain	-7.21	1.1	0.0	No	4.0	8.30917327293318	1.351	191.262		GetAnswer	Mixed
13.0	1	191.282	0.02	273.645	-3.0	-3.0	16.075	4.0	955.0	0.52	Certain	-7.21	1.1	0.0	No		8.30917327293318				ShowChoice	Mixed
13.0	1	195.294	0.012	277.657	-3.0	-3.0	16.075	1.0	955.0	0.52	Certain	-7.21	1.1	0.0	No		8.30917327293318				ShowResult	Mixed
13.0	1	196.314	0.02	278.677	-3.0	-3.0	16.075	3.48	955.0	0.52	Certain	-7.21	1.1	0.0	No		8.30917327293318				ISITrial	Mixed
14.0	1	199.824	0.03	282.187	7.1	-0.72	16.9625	3.0	955.0	2.22	Outcome1	7.1	-1.44	0.0	No	2.0	8.539071347678371	1.418	201.242		GetAnswer	Gain
14.0	1	201.262	0.02	283.625	7.1	-0.72	16.9625	4.0	955.0	2.22	Outcome1	7.1	-1.44	0.0	No		8.539071347678371				ShowChoice	Gain
14.0	1	205.274	0.012	287.637	7.1	-0.72	16.9625	1.0	955.0	2.22	Outcome1	7.1	-1.44	0.0	No		8.539071347678371				ShowResult	Gain
14.0	1	206.294	0.02	288.657	7.1	-0.72	16.9625	5.019	955.0	2.22	Outcome1	7.1	-1.44	0.0	No		8.539071347678371				ISITrial	Gain
15.0	1	211.342	0.029	293.705	9.83	4.92	18.1913	3.0	955.0	2.22	Outcome2	11.1	9.83	3348.5	Yes	2.0	-1.26717629294073	0.896	212.238		GetAnswer	Loss
15.0	1	212.262	0.024	294.625	9.83	4.92	18.1913	4.0	955.0	2.22	Outcome2	11.1	9.83	3348.5	Yes		-1.26717629294073				ShowChoice	Loss
15.0	1	216.274	0.012	298.637	9.83	4.92	18.1913	1.0	955.0	2.22	Outcome2	11.1	9.83	3348.5	Yes		-1.26717629294073				ShowResult	Loss
15.0	1	217.293	0.019	299.656	9.83	4.92	18.1913	7.614	955.0	2.22	Outcome2	11.1	9.83	3348.5	Yes		-1.26717629294073				ISITrial	Loss
15.0	1	228.31	0.029	310.673	9.83	4.92	18.1913	1.578	955.0	2.22	Outcome2	11.1	9.83	3348.5	Yes		-1.26717629294073			824.0	TrialHappiness	Loss
15.0	1	232.322	4.012	314.685	9.83	4.92	18.1913	5.394	955.0	2.22	Outcome2	11.1	9.83	3348.5	Yes		-1.26717629294073				ISIRate	Loss
16.0	1	237.738	0.022	320.101	7.9	0.06	19.1788	3.0	955.0	3.6	Outcome1	7.9	0.12	0.0	No	2.0	7.7757644394111	0.954	238.692		GetAnswer	Gain
16.0	1	238.708	0.015	321.071	7.9	0.06	19.1788	4.0	955.0	3.6	Outcome1	7.9	0.12	0.0	No		7.7757644394111				ShowChoice	Gain
16.0	1	242.72	0.012	325.083	7.9	0.06	19.1788	1.0	955.0	3.6	Outcome1	7.9	0.12	0.0	No		7.7757644394111				ShowResult	Gain
16.0	1	243.739	0.019	326.102	7.9	0.06	19.1788	3.008	955.0	3.6	Outcome1	7.9	0.12	0.0	No		7.7757644394111				ISITrial	Gain
17.0	1	246.765	0.018	329.128	10.29	5.14	20.4651	3.0	955.0	2.48	Outcome1	10.29	11.3	3041.5	Yes	2.0	-1.00651189127973	0.884	247.649		GetAnswer	Loss
17.0	1	247.668	0.019	330.031	10.29	5.14	20.4651	4.0	955.0	2.48	Outcome1	10.29	11.3	3041.5	Yes		-1.00651189127973				ShowChoice	Loss
17.0	1	251.68	0.012	334.043	10.29	5.14	20.4651	1.0	955.0	2.48	Outcome1	10.29	11.3	3041.5	Yes		-1.00651189127973				ShowResult	Loss
17.0	1	252.7	0.02	335.063	10.29	5.14	20.4651	3.566	955.0	2.48	Outcome1	10.29	11.3	3041.5	Yes		-1.00651189127973				ISITrial	Loss
17.0	1	259.336	0.017	341.699	10.29	5.14	20.4651	3.199	955.0	2.48	Outcome1	10.29	11.3	3041.5	Yes		-1.00651189127973			856.0	TrialHappiness	Loss
17.0	1	263.348	4.012	345.711	10.29	5.14	20.4651	4.166	955.0	2.48	Outcome1	10.29	11.3	3041.5	Yes		-1.00651189127973				ISIRate	Loss
18.0	1	267.544	0.03	349.907	12.21	6.1	21.9914	3.0	955.0	2.22	Outcome1	12.21	13.1	0.0	No	2.0	-0.8890147225368059	1.171	268.715		GetAnswer	Loss
18.0	1	268.731	0.016	351.094	12.21	6.1	21.9914	4.0	955.0	2.22	Outcome1	12.21	13.1	0.0	No		-0.8890147225368059				ShowChoice	Loss
18.0	1	272.743	0.012	355.106	12.21	6.1	21.9914	1.0	955.0	2.22	Outcome1	12.21	13.1	0.0	No		-0.8890147225368059				ShowResult	Loss
18.0	1	273.763	0.02	356.126	12.21	6.1	21.9914	6.787	955.0	2.22	Outcome1	12.21	13.1	0.0	No		-0.8890147225368059				ISITrial	Loss
19.0	1	280.566	0.016	362.929	3.2	1.6	22.3914	3.0	955.0	1.5	Outcome2	4.1	3.2	0.0	No	2.0	-0.898357870894677	0.793	281.359		GetAnswer	Mixed
19.0	1	281.386	0.027	363.749	3.2	1.6	22.3914	4.0	955.0	1.5	Outcome2	4.1	3.2	0.0	No		-0.898357870894677				ShowChoice	Mixed
19.0	1	285.398	0.012	367.761	3.2	1.6	22.3914	1.0	955.0	1.5	Outcome2	4.1	3.2	0.0	No		-0.898357870894677				ShowResult	Mixed
19.0	1	286.417	0.019	368.78	3.2	1.6	22.3914	2.0	955.0	1.5	Outcome2	4.1	3.2	0.0	No		-0.898357870894677				ISITrial	Mixed
20.0	1	288.44	0.023	370.803	12.1	2.17	23.9039	3.0	955.0	4.2	Outcome1	12.1	4.35	2921.25	Yes	2.0	7.75311438278596	0.873	289.313		GetAnswer	Loss
20.0	1	289.326	0.013	371.689	12.1	2.17	23.9039	4.0	955.0	4.2	Outcome1	12.1	4.35	2921.25	Yes		7.75311438278596				ShowChoice	Loss
20.0	1	293.338	0.012	375.701	12.1	2.17	23.9039	1.0	955.0	4.2	Outcome1	12.1	4.35	2921.25	Yes		7.75311438278596				ShowResult	Loss
20.0	1	294.358	0.02	376.721	12.1	2.17	23.9039	8.0	955.0	4.2	Outcome1	12.1	4.35	2921.25	Yes		7.75311438278596				ISITrial	Loss
20.0	1	305.324	0.021	387.687	12.1	2.17	23.9039	2.765	955.0	4.2	Outcome1	12.1	4.35	2921.25	Yes		7.75311438278596			872.0	TrialHappiness	Loss
20.0	1	309.336	4.012	391.699	12.1	2.17	23.9039	3.685	955.0	4.2	Outcome1	12.1	4.35	2921.25	Yes		7.75311438278596				ISIRate	Loss
21.0	1	313.047	0.026	395.41	6.65	3.32	24.7351	3.0	955.0	2.8	Outcome1	6.65	7.5	0.0	No	2.0	-0.8521140052850129	0.763	313.81		GetAnswer	Gain
21.0	1	313.833	0.023	396.196	6.65	3.32	24.7351	4.0	955.0	2.8	Outcome1	6.65	7.5	0.0	No		-0.8521140052850129				ShowChoice	Gain
21.0	1	317.845	0.012	400.208	6.65	3.32	24.7351	1.0	955.0	2.8	Outcome1	6.65	7.5	0.0	No		-0.8521140052850129				ShowResult	Gain
21.0	1	318.865	0.02	401.228	6.65	3.32	24.7351	3.555	955.0	2.8	Outcome1	6.65	7.5	0.0	No		-0.8521140052850129				ISITrial	Gain
22.0	1	322.442	0.022	404.805	-1.1	-5.0	24.5976	3.0	955.0	0.4	Outcome1	-1.1	-8.79	3219.5	Yes	2.0	7.6874292185730395	2.052	324.494		GetAnswer	Mixed
22.0	1	324.515	0.021	406.878	-1.1	-5.0	24.5976	4.0	955.0	0.4	Outcome1	-1.1	-8.79	3219.5	Yes		7.6874292185730395				ShowChoice	Mixed
22.0	1	328.527	0.012	410.89	-1.1	-5.0	24.5976	1.0	955.0	0.4	Outcome1	-1.1	-8.79	3219.5	Yes		7.6874292185730395				ShowResult	Mixed
22.0	1	329.547	0.02	411.91	-1.1	-5.0	24.5976	6.793	955.0	0.4	Outcome1	-1.1	-8.79	3219.5	Yes		7.6874292185730395				ISITrial	Mixed
22.0	1	339.61	0.023	421.973	-1.1	-5.0	24.5976	1.672	955.0	0.4	Outcome1	-1.1	-8.79	3219.5	Yes		7.6874292185730395			776.0	TrialHappiness	Mixed
22.0	1	343.639	4.029	426.002	-1.1	-5.0	24.5976	4.878	955.0	0.4	Outcome1	-1.1	-8.79	3219.5	Yes		7.6874292185730395				ISIRate	Mixed
23.0	1	348.537	0.02	430.9	2.1	-2.0	24.8601	3.0	955.0	1.5	Outcome1	2.1	-7.31	0.0	No	2.0	9.412231030577571	0.996	349.533		GetAnswer	Mixed
23.0	1	349.557	0.024	431.92	2.1	-2.0	24.8601	4.0	955.0	1.5	Outcome1	2.1	-7.31	0.0	No		9.412231030577571				ShowChoice	Mixed
23.0	1	353.569	0.012	435.932	2.1	-2.0	24.8601	1.0	955.0	1.5	Outcome1	2.1	-7.31	0.0	No		9.412231030577571				ShowResult	Mixed
23.0	1	354.588	0.019	436.951	2.1	-2.0	24.8601	8.0	955.0	1.5	Outcome1	2.1	-7.31	0.0	No		9.412231030577571				ISITrial	Mixed
24.0	1	362.613	0.025	444.976	2.7	-2.0	25.1976	3.0	955.0	0.3	Outcome2	-6.91	2.7	3255.0	Yes	2.0	9.61494903737259	1.633	364.246		GetAnswer	Mixed
24.0	1	364.268	0.022	446.631	2.7	-2.0	25.1976	4.0	955.0	0.3	Outcome2	-6.91	2.7	3255.0	Yes		9.61494903737259				ShowChoice	Mixed
24.0	1	368.28	0.012	450.643	2.7	-2.0	25.1976	1.0	955.0	0.3	Outcome2	-6.91	2.7	3255.0	Yes		9.61494903737259				ShowResult	Mixed
24.0	1	369.299	0.019	451.662	2.7	-2.0	25.1976	2.0	955.0	0.3	Outcome2	-6.91	2.7	3255.0	Yes		9.61494903737259				ISITrial	Mixed
24.0	1	374.599	0.022	456.962	2.7	-2.0	25.1976	2.872	955.0	0.3	Outcome2	-6.91	2.7	3255.0	Yes		9.61494903737259			912.0	TrialHappiness	Mixed
24.0	1	378.627	4.028	460.99	2.7	-2.0	25.1976	5.02	955.0	0.3	Outcome2	-6.91	2.7	3255.0	Yes		9.61494903737259				ISIRate	Mixed
25.0	1	383.676	0.029	466.039	5.9	2.0	25.9351	3.0	955.0	3.6	Outcome1	5.9	-1.61	0.0	No	2.0	7.50736126840317	0.941	384.617		GetAnswer	Gain
25.0	1	384.645	0.028	467.008	5.9	2.0	25.9351	4.0	955.0	3.6	Outcome1	5.9	-1.61	0.0	No		7.50736126840317				ShowChoice	Gain
25.0	1	388.657	0.012	471.02	5.9	2.0	25.9351	1.0	955.0	3.6	Outcome1	5.9	-1.61	0.0	No		7.50736126840317				ShowResult	Gain
25.0	1	389.677	0.02	472.04	5.9	2.0	25.9351	3.749	955.0	3.6	Outcome1	5.9	-1.61	0.0	No		7.50736126840317				ISITrial	Gain
26.0	1	393.455	0.029	475.818	0.0	0.0	25.9351	3.0	955.0	1.5	Certain	-0.64	0.1	0.0	No	4.0	-0.743299358248395	1.943	395.398		GetAnswer	Mixed
26.0	1	395.411	0.013	477.774	0.0	0.0	25.9351	4.0	955.0	1.5	Certain	-0.64	0.1	0.0	No		-0.743299358248395				ShowChoice	Mixed
26.0	1	399.423	0.012	481.786	0.0	0.0	25.9351	1.0	955.0	1.5	Certain	-0.64	0.1	0.0	No		-0.743299358248395				ShowResult	Mixed
26.0	1	400.443	0.02	482.806	0.0	0.0	25.9351	7.834	955.0	1.5	Certain	-0.64	0.1	0.0	No		-0.743299358248395				ISITrial	Mixed
27.0	1	408.3	0.023	490.663	2.0	2.0	26.1851	3.0	955.0	5.0	Certain	-1.3	6.3	2549.75	Yes	4.0	7.6047565118912805	1.345	409.645		GetAnswer	Gain
27.0	1	409.67	0.025	492.033	2.0	2.0	26.1851	4.0	955.0	5.0	Certain	-1.3	6.3	2549.75	Yes		7.6047565118912805				ShowChoice	Gain
27.0	1	413.682	0.012	496.045	2.0	2.0	26.1851	1.0	955.0	5.0	Certain	-1.3	6.3	2549.75	Yes		7.6047565118912805				ShowResult	Gain
27.0	1	414.702	0.02	497.065	2.0	2.0	26.1851	4.225	955.0	5.0	Certain	-1.3	6.3	2549.75	Yes		7.6047565118912805				ISITrial	Gain
27.0	1	421.523	0.025	503.886	2.0	2.0	26.1851	1.979	955.0	5.0	Certain	-1.3	6.3	2549.75	Yes		7.6047565118912805			856.0	TrialHappiness	Gain
27.0	1	425.535	4.012	507.898	2.0	2.0	26.1851	2.199	955.0	5.0	Certain	-1.3	6.3	2549.75	Yes		7.6047565118912805				ISIRate	Gain
	1	427.758	0.024	510.121				-0.001								{SPACE}		53.717	481.475		Rest	
	1	481.503	0.028	563.866				4.0													BlockHappyPreview	
	1	485.515	0.012	567.878				3.119												792.0	BlockStartHappiness	
	1	493.856	0.013	576.219				-0.001								5.0		5.103	498.959		ScanWait	
	2	0.013	0.013	581.335				10.0													GetReady	
28.0	2	10.026	0.013	591.348	2.0	2.0	26.4351	3.0	70.0	5.0	Certain	-3.98	8.3	0.0	No	4.0	-12.2789115646258	1.138	11.164		GetAnswer	Gain
28.0	2	11.179	0.015	592.501	2.0	2.0	26.4351	4.0	70.0	5.0	Certain	-3.98	8.3	0.0	No		-12.2789115646258				ShowChoice	Gain
28.0	2	15.191	0.012	596.513	2.0	2.0	26.4351	1.0	70.0	5.0	Certain	-3.98	8.3	0.0	No		-12.2789115646258				ShowResult	Gain
28.0	2	16.211	0.02	597.533	2.0	2.0	26.4351	3.575	70.0	5.0	Certain	-3.98	8.3	0.0	No		-12.2789115646258				ISITrial	Gain
29.0	2	19.805	0.019	601.127	-8.2	-1.0	25.4101	3.0	70.0	2.0	Outcome2	4.9	-8.2	3529.0	Yes	2.0	-13.0975056689342	1.316	21.121		GetAnswer	Gain
29.0	2	21.143	0.022	602.465	-8.2	-1.0	25.4101	4.0	70.0	2.0	Outcome2	4.9	-8.2	3529.0	Yes		-13.0975056689342				ShowChoice	Gain
29.0	2	25.155	0.012	606.477	-8.2	-1.0	25.4101	1.0	70.0	2.0	Outcome2	4.9	-8.2	3529.0	Yes		-13.0975056689342				ShowResult	Gain
29.0	2	26.174	0.019	607.496	-8.2	-1.0	25.4101	3.955	70.0	2.0	Outcome2	4.9	-8.2	3529.0	Yes		-13.0975056689342				ISITrial	Gain
29.0	2	33.697	0.015	615.019	-8.2	-1.0	25.4101	0.975	70.0	2.0	Outcome2	4.9	-8.2	3529.0	Yes		-13.0975056689342			272.0	TrialHappiness	Gain
29.0	2	37.709	4.012	619.031	-8.2	-1.0	25.4101	6.116	70.0	2.0	Outcome2	4.9	-8.2	3529.0	Yes		-13.0975056689342				ISIRate	Gain
30.0	2	43.844	0.019	625.166	1.82	1.0	25.6376	3.0	70.0	2.48	Outcome1	1.82	0.86	0.0	No	2.0	0.957105064247921	1.063	44.907		GetAnswer	Gain
30.0	2	44.931	0.024	626.253	1.82	1.0	25.6376	4.0	70.0	2.48	Outcome1	1.82	0.86	0.0	No		0.957105064247921				ShowChoice	Gain
30.0	2	48.943	0.012	630.265	1.82	1.0	25.6376	1.0	70.0	2.48	Outcome1	1.82	0.86	0.0	No		0.957105064247921				ShowResult	Gain
30.0	2	49.962	0.019	631.284	1.82	1.0	25.6376	4.453	70.0	2.48	Outcome1	1.82	0.86	0.0	No		0.957105064247921				ISITrial	Gain
31.0	2	54.443	0.028	635.765	1.0	1.0	25.7626	3.0	70.0	2.0	Certain	-1.0	4.3	2503.25	Yes	4.0	-5.3015873015873	1.179	55.622		GetAnswer	Mixed
31.0	2	55.646	0.024	636.968	1.0	1.0	25.7626	4.0	70.0	2.0	Certain	-1.0	4.3	2503.25	Yes		-5.3015873015873				ShowChoice	Mixed
31.0	2	59.658	0.012	640.98	1.0	1.0	25.7626	1.0	70.0	2.0	Certain	-1.0	4.3	2503.25	Yes		-5.3015873015873				ShowResult	Mixed
31.0	2	60.678	0.02	642.0	1.0	1.0	25.7626	4.786	70.0	2.0	Certain	-1.0	4.3	2503.25	Yes		-5.3015873015873				ISITrial	Mixed
31.0	2	68.0	0.021	649.322	1.0	1.0	25.7626	2.596	70.0	2.0	Certain	-1.0	4.3	2503.25	Yes		-5.3015873015873			684.0	TrialHappiness	Mixed
31.0	2	72.012	4.012	653.334	1.0	1.0	25.7626	2.013	70.0	2.0	Certain	-1.0	4.3	2503.25	Yes		-5.3015873015873				ISIRate	Mixed
32.0	2	74.051	0.026	655.373	-4.0	-4.0	25.2626	3.0	70.0	1.2	Certain	-10.64	1.9	0.0	No	4.0	-12.5374149659864	1.804	75.855		GetAnswer	Mixed
32.0	2	75.874	0.019	657.196	-4.0	-4.0	25.2626	4.0	70.0	1.2	Certain	-10.64	1.9	0.0	No		-12.5374149659864				ShowChoice	Mixed
32.0	2	79.886	0.012	661.208	-4.0	-4.0	25.2626	1.0	70.0	1.2	Certain	-10.64	1.9	0.0	No		-12.5374149659864				ShowResult	Mixed
32.0	2	80.905	0.019	662.227	-4.0	-4.0	25.2626	2.0	70.0	1.2	Certain	-10.64	1.9	0.0	No		-12.5374149659864				ISITrial	Mixed
33.0	2	82.928	0.023	664.25	-9.33	-2.0	24.0964	3.0	70.0	1.2	Outcome2	3.9	-9.33	0.0	No	2.0	-13.2335600907029	1.18	84.108		GetAnswer	Mixed
33.0	2	84.132	0.024	665.454	-9.33	-2.0	24.0964	4.0	70.0	1.2	Outcome2	3.9	-9.33	0.0	No		-13.2335600907029				ShowChoice	Mixed
33.0	2	88.144	0.012	669.466	-9.33	-2.0	24.0964	1.0	70.0	1.2	Outcome2	3.9	-9.33	0.0	No		-13.2335600907029				ShowResult	Mixed
33.0	2	89.163	0.019	670.485	-9.33	-2.0	24.0964	5.099	70.0	1.2	Outcome2	3.9	-9.33	0.0	No		-13.2335600907029				ISITrial	Mixed
34.0	2	94.279	0.017	675.601	-10.63	-3.0	22.7676	3.0	70.0	0.66	Outcome2	3.3	-10.63	3231.5	Yes		-13.9297052154195				GetAnswer	Mixed
34.0	2	97.304	0.025	678.626	-10.63	-3.0	22.7676	4.0	70.0	0.66	Outcome2	3.3	-10.63	3231.5	Yes		-13.9297052154195				ShowChoice	Mixed
34.0	2	101.317	0.013	682.639	-10.63	-3.0	22.7676	1.0	70.0	0.66	Outcome2	3.3	-10.63	3231.5	Yes		-13.9297052154195				ShowResult	Mixed
34.0	2	102.336	0.019	683.658	-10.63	-3.0	22.7676	4.784	70.0	0.66	Outcome2	3.3	-10.63	3231.5	Yes		-13.9297052154195				ISITrial	Mixed
34.0	2	110.394	0.028	691.716	-10.63	-3.0	22.7676	2.832	70.0	0.66	Outcome2	3.3	-10.63	3231.5	Yes		-13.9297052154195			136.0	TrialHappiness	Mixed
34.0	2	114.406	4.012	695.728	-10.63	-3.0	22.7676	4.926	70.0	0.66	Outcome2	3.3	-10.63	3231.5	Yes		-13.9297052154195				ISIRate	Mixed
35.0	2	119.354	0.022	700.676	2.39	1.2	23.0664	3.0	70.0	3.16	Outcome2	7.7	2.39	0.0	No	2.0	-5.30612244897959	1.082	120.436		GetAnswer	Gain
35.0	2	120.457	0.021	701.779	2.39	1.2	23.0664	4.0	70.0	3.16	Outcome2	7.7	2.39	0.0	No		-5.30612244897959				ShowChoice	Gain
35.0	2	124.469	0.012	705.791	2.39	1.2	23.0664	1.0	70.0	3.16	Outcome2	7.7	2.39	0.0	No		-5.30612244897959				ShowResult	Gain
35.0	2	125.489	0.02	706.811	2.39	1.2	23.0664	2.098	70.0	3.16	Outcome2	7.7	2.39	0.0	No		-5.30612244897959				ISITrial	Gain
36.0	2	127.612	0.025	708.934	6.32	3.16	23.8564	3.0	70.0	3.16	Outcome2	11.7	6.32	3335.75	Yes	2.0	-5.38095238095238	1.183	128.795		GetAnswer	Loss
36.0	2	128.816	0.021	710.138	6.32	3.16	23.8564	4.0	70.0	3.16	Outcome2	11.7	6.32	3335.75	Yes		-5.38095238095238				ShowChoice	Loss
36.0	2	132.828	0.012	714.15	6.32	3.16	23.8564	1.0	70.0	3.16	Outcome2	11.7	6.32	3335.75	Yes		-5.38095238095238				ShowResult	Loss
36.0	2	133.847	0.019	715.169	6.32	3.16	23.8564	5.156	70.0	3.16	Outcome2	11.7	6.32	3335.75	Yes		-5.38095238095238				ISITrial	Loss
36.0	2	142.39	0.024	723.712	6.32	3.16	23.8564	1.461	70.0	3.16	Outcome2	11.7	6.32	3335.75	Yes	4{-4}4{-4}4{-4}	-5.38095238095238	1.461	143.851	392.0	TrialHappiness	Loss
36.0	2	146.402	4.012	727.724	6.32	3.16	23.8564	5.343	70.0	3.16	Outcome2	11.7	6.32	3335.75	Yes		-5.38095238095238				ISIRate	Loss
37.0	2	151.768	0.023	733.09	1.09	0.55	23.9926	3.0	70.0	2.0	Outcome1	1.09	10.9	0.0	No	2.0	-9.80952380952381	0.901	152.669		GetAnswer	Loss
37.0	2	152.687	0.018	734.009	1.09	0.55	23.9926	4.0	70.0	2.0	Outcome1	1.09	10.9	0.0	No		-9.80952380952381				ShowChoice	Loss
37.0	2	156.699	0.012	738.021	1.09	0.55	23.9926	1.0	70.0	2.0	Outcome1	1.09	10.9	0.0	No		-9.80952380952381				ShowResult	Loss
37.0	2	157.719	0.02	739.041	1.09	0.55	23.9926	3.598	70.0	2.0	Outcome1	1.09	10.9	0.0	No		-9.80952380952381				ISITrial	Loss
38.0	2	161.347	0.03	742.669	0.0	0.0	23.9926	3.0	70.0	1.0	Certain	0.42	-1.28	0.0	No	4.0	1.6997354497354498	1.78	163.127		GetAnswer	Mixed
38.0	2	163.152	0.025	744.474	0.0	0.0	23.9926	4.0	70.0	1.0	Certain	0.42	-1.28	0.0	No		1.6997354497354498				ShowChoice	Mixed
38.0	2	167.164	0.012	748.486	0.0	0.0	23.9926	1.0	70.0	1.0	Certain	0.42	-1.28	0.0	No		1.6997354497354498				ShowResult	Mixed
38.0	2	168.184	0.02	749.506	0.0	0.0	23.9926	4.787	70.0	1.0	Certain	0.42	-1.28	0.0	No		1.6997354497354498				ISITrial	Mixed
39.0	2	172.998	0.027	754.32	1.0	1.0	24.1176	3.0	70.0	1.68	Certain	6.5	-4.04	2864.25	Yes	4.0	-10.5396825396825	1.222	174.22		GetAnswer	Gain
39.0	2	174.235	0.015	755.557	1.0	1.0	24.1176	4.0	70.0	1.68	Certain	6.5	-4.04	2864.25	Yes		-10.5396825396825				ShowChoice	Gain
39.0	2	178.247	0.012	759.569	1.0	1.0	24.1176	1.0	70.0	1.68	Certain	6.5	-4.04	2864.25	Yes		-10.5396825396825				ShowResult	Gain
39.0	2	179.267	0.02	760.589	1.0	1.0	24.1176	2.348	70.0	1.68	Certain	6.5	-4.04	2864.25	Yes		-10.5396825396825				ISITrial	Gain
39.0	2	184.533	0.028	765.855	1.0	1.0	24.1176	0.559	70.0	1.68	Certain	6.5	-4.04	2864.25	Yes		-10.5396825396825			536.0	TrialHappiness	Gain
39.0	2	188.545	4.012	769.867	1.0	1.0	24.1176	3.457	70.0	1.68	Certain	6.5	-4.04	2864.25	Yes		-10.5396825396825				ISIRate	Gain
40.0	2	192.022	0.02	773.344	0.0	0.0	24.1176	3.0	70.0	1.68	Certain	1.12	-1.23	0.0	No	4.0	2.34561602418745	1.099	193.121		GetAnswer	Gain
40.0	2	193.142	0.021	774.464	0.0	0.0	24.1176	4.0	70.0	1.68	Certain	1.12	-1.23	0.0	No		2.34561602418745				ShowChoice	Gain
40.0	2	197.154	0.012	778.476	0.0	0.0	24.1176	1.0	70.0	1.68	Certain	1.12	-1.23	0.0	No		2.34561602418745				ShowResult	Gain
40.0	2	198.174	0.02	779.496	0.0	0.0	24.1176	3.158	70.0	1.68	Certain	1.12	-1.23	0.0	No		2.34561602418745				ISITrial	Gain
41.0	2	201.35	0.018	782.672	0.0	0.0	24.1176	3.0	70.0	1.82	Certain	6.7	-7.18	4000.0	Yes	4.0	-13.8820861678005	1.006	202.356		GetAnswer	Gain
41.0	2	202.37	0.014	783.692	0.0	0.0	24.1176	4.0	70.0	1.82	Certain	6.7	-7.18	4000.0	Yes		-13.8820861678005				ShowChoice	Gain
41.0	2	206.382	0.012	787.704	0.0	0.0	24.1176	1.0	70.0	1.82	Certain	6.7	-7.18	4000.0	Yes		-13.8820861678005				ShowResult	Gain
41.0	2	207.401	0.019	788.723	0.0	0.0	24.1176	4.506	70.0	1.82	Certain	6.7	-7.18	4000.0	Yes		-13.8820861678005				ISITrial	Gain
41.0	2	215.96	0.028	797.282	0.0	0.0	24.1176	0.591	70.0	1.82	Certain	6.7	-7.18	4000.0	Yes		-13.8820861678005			440.0	TrialHappiness	Gain
41.0	2	219.972	4.012	801.294	0.0	0.0	24.1176	8.0	70.0	1.82	Certain	6.7	-7.18	4000.0	Yes		-13.8820861678005				ISIRate	Gain
42.0	2	227.997	0.025	809.319	1.0	1.0	24.2426	3.0	70.0	4.2	Certain	-4.68	8.1	0.0	No	4.0	-12.7777777777778	1.228	229.225		GetAnswer	Gain
42.0	2	229.25	0.025	810.572	1.0	1.0	24.2426	4.0	70.0	4.2	Certain	-4.68	8.1	0.0	No		-12.7777777777778				ShowChoice	Gain
42.0	2	233.262	0.012	814.584	1.0	1.0	24.2426	1.0	70.0	4.2	Certain	-4.68	8.1	0.0	No		-12.7777777777778				ShowResult	Gain
42.0	2	234.282	0.02	815.604	1.0	1.0	24.2426	6.248	70.0	4.2	Certain	-4.68	8.1	0.0	No		-12.7777777777778				ISITrial	Gain
43.0	2	240.551	0.021	821.873	0.0	0.0	24.2426	3.0	70.0	2.0	Certain	-0.36	1.72	2775.75	Yes	4.0	2.07860922146636	0.969	241.52		GetAnswer	Gain
43.0	2	241.537	0.017	822.859	0.0	0.0	24.2426	4.0	70.0	2.0	Certain	-0.36	1.72	2775.75	Yes		2.07860922146636				ShowChoice	Gain
43.0	2	245.549	0.012	826.871	0.0	0.0	24.2426	1.0	70.0	2.0	Certain	-0.36	1.72	2775.75	Yes		2.07860922146636				ShowResult	Gain
43.0	2	246.569	0.02	827.891	0.0	0.0	24.2426	4.596	70.0	2.0	Certain	-0.36	1.72	2775.75	Yes		2.07860922146636				ISITrial	Gain
43.0	2	253.991	0.032	835.313	0.0	0.0	24.2426	0.626	70.0	2.0	Certain	-0.36	1.72	2775.75	Yes	2{-2}	2.07860922146636	0.626	254.617	544.0	TrialHappiness	Gain
43.0	2	258.003	4.012	839.325	0.0	0.0	24.2426	3.103	70.0	2.0	Certain	-0.36	1.72	2775.75	Yes		2.07860922146636				ISIRate	Gain
44.0	2	261.129	0.023	842.451	1.0	1.0	24.3676	3.0	70.0	2.0	Certain	-6.49	8.9	0.0	No	4.0	-15.3854875283447	0.911	262.04		GetAnswer	Gain
44.0	2	262.065	0.024	843.387	1.0	1.0	24.3676	4.0	70.0	2.0	Certain	-6.49	8.9	0.0	No		-15.3854875283447				ShowChoice	Gain
44.0	2	266.077	0.012	847.399	1.0	1.0	24.3676	1.0	70.0	2.0	Certain	-6.49	8.9	0.0	No		-15.3854875283447				ShowResult	Gain
44.0	2	267.097	0.02	848.419	1.0	1.0	24.3676	2.42	70.0	2.0	Certain	-6.49	8.9	0.0	No		-15.3854875283447				ISITrial	Gain
45.0	2	269.538	0.021	850.86	-8.0	-8.0	23.3676	3.0	70.0	0.82	Certain	-0.5	-16.42	0.0	No	4.0	-15.9229024943311	1.225	270.763		GetAnswer	Mixed
45.0	2	270.775	0.012	852.097	-8.0	-8.0	23.3676	4.0	70.0	0.82	Certain	-0.5	-16.42	0.0	No		-15.9229024943311				ShowChoice	Mixed
45.0	2	274.787	0.012	856.109	-8.0	-8.0	23.3676	1.0	70.0	0.82	Certain	-0.5	-16.42	0.0	No		-15.9229024943311				ShowResult	Mixed
45.0	2	275.807	0.02	857.129	-8.0	-8.0	23.3676	3.144	70.0	0.82	Certain	-0.5	-16.42	0.0	No		-15.9229024943311				ISITrial	Mixed
46.0	2	278.983	0.032	860.305	-3.16	-1.58	22.9726	3.0	70.0	2.48	Outcome1	-3.16	13.3	3841.25	Yes	2.0	-16.4603174603175	2.112	281.095		GetAnswer	Loss
46.0	2	281.123	0.028	862.445	-3.16	-1.58	22.9726	4.0	70.0	2.48	Outcome1	-3.16	13.3	3841.25	Yes		-16.4603174603175				ShowChoice	Loss
46.0	2	285.135	0.012	866.457	-3.16	-1.58	22.9726	1.0	70.0	2.48	Outcome1	-3.16	13.3	3841.25	Yes		-16.4603174603175				ShowResult	Loss
46.0	2	286.154	0.019	867.476	-3.16	-1.58	22.9726	2.246	70.0	2.48	Outcome1	-3.16	13.3	3841.25	Yes		-16.4603174603175				ISITrial	Loss
46.0	2	292.273	0.021	873.595	-3.16	-1.58	22.9726	0.909	70.0	2.48	Outcome1	-3.16	13.3	3841.25	Yes		-16.4603174603175			248.0	TrialHappiness	Loss
46.0	2	296.285	4.012	877.607	-3.16	-1.58	22.9726	7.365	70.0	2.48	Outcome1	-3.16	13.3	3841.25	Yes		-16.4603174603175				ISIRate	Loss
47.0	2	303.674	0.024	884.996	0.0	0.0	22.9726	3.0	70.0	4.2	Certain	-5.86	6.1	0.0	No	4.0	-11.9637188208617	1.175	304.849		GetAnswer	Gain
47.0	2	304.86	0.011	886.182	0.0	0.0	22.9726	4.0	70.0	4.2	Certain	-5.86	6.1	0.0	No		-11.9637188208617				ShowChoice	Gain
47.0	2	308.872	0.012	890.194	0.0	0.0	22.9726	1.0	70.0	4.2	Certain	-5.86	6.1	0.0	No		-11.9637188208617				ShowResult	Gain
47.0	2	309.892	0.02	891.214	0.0	0.0	22.9726	2.0	70.0	4.2	Certain	-5.86	6.1	0.0	No		-11.9637188208617				ISITrial	Gain
48.0	2	311.915	0.023	893.237	2.0	2.0	23.2226	3.0	70.0	1.82	Certain	-3.47	8.7	2831.75	Yes	4.0	-12.165532879818599	1.118	313.033		GetAnswer	Gain
48.0	2	313.052	0.019	894.374	2.0	2.0	23.2226	4.0	70.0	1.82	Certain	-3.47	8.7	2831.75	Yes		-12.165532879818599				ShowChoice	Gain
48.0	2	317.064	0.012	898.386	2.0	2.0	23.2226	1.0	70.0	1.82	Certain	-3.47	8.7	2831.75	Yes		-12.165532879818599				ShowResult	Gain
48.0	2	318.083	0.019	899.405	2.0	2.0	23.2226	3.692	70.0	1.82	Certain	-3.47	8.7	2831.75	Yes		-12.165532879818599				ISITrial	Gain
48.0	2	324.653	0.026	905.975	2.0	2.0	23.2226	0.842	70.0	1.82	Certain	-3.47	8.7	2831.75	Yes		-12.165532879818599			384.0	TrialHappiness	Gain
48.0	2	328.665	4.012	909.987	2.0	2.0	23.2226	3.327	70.0	1.82	Certain	-3.47	8.7	2831.75	Yes		-12.165532879818599				ISIRate	Gain
49.0	2	332.009	0.017	913.331	-5.0	-5.0	22.5976	3.0	70.0	0.2	Certain	-12.18	2.5	0.0	No	4.0	-14.6802721088435	1.587	333.596		GetAnswer	Mixed
49.0	2	333.613	0.017	914.935	-5.0	-5.0	22.5976	4.0	70.0	0.2	Certain	-12.18	2.5	0.0	No		-14.6802721088435				ShowChoice	Mixed
49.0	2	337.625	0.012	918.947	-5.0	-5.0	22.5976	1.0	70.0	0.2	Certain	-12.18	2.5	0.0	No		-14.6802721088435				ShowResult	Mixed
49.0	2	338.645	0.02	919.967	-5.0	-5.0	22.5976	8.0	70.0	0.2	Certain	-12.18	2.5	0.0	No		-14.6802721088435				ISITrial	Mixed
50.0	2	346.669	0.024	927.991	-1.14	-0.57	22.4551	3.0	70.0	3.6	Outcome1	-1.14	13.9	3547.25	Yes	2.0	-15.0362811791383	2.564	349.233		GetAnswer	Loss
50.0	2	349.26	0.027	930.582	-1.14	-0.57	22.4551	4.0	70.0	3.6	Outcome1	-1.14	13.9	3547.25	Yes		-15.0362811791383				ShowChoice	Loss
50.0	2	353.272	0.012	934.594	-1.14	-0.57	22.4551	1.0	70.0	3.6	Outcome1	-1.14	13.9	3547.25	Yes		-15.0362811791383				ShowResult	Loss
50.0	2	354.292	0.02	935.614	-1.14	-0.57	22.4551	7.537	70.0	3.6	Outcome1	-1.14	13.9	3547.25	Yes		-15.0362811791383				ISITrial	Loss
50.0	2	365.425	0.03	946.747	-1.14	-0.57	22.4551	3.55	70.0	3.6	Outcome1	-1.14	13.9	3547.25	Yes		-15.0362811791383			72.0	TrialHappiness	Loss
50.0	2	369.437	4.012	950.759	-1.14	-0.57	22.4551	6.189	70.0	3.6	Outcome1	-1.14	13.9	3547.25	Yes		-15.0362811791383				ISIRate	Loss
51.0	2	375.656	0.03	956.978	-0.3	-0.3	22.4176	3.0	70.0	2.8	Certain	9.5	-0.59	0.0	No	4.0	-10.086167800453499	1.287	376.943		GetAnswer	Gain
51.0	2	376.96	0.017	958.282	-0.3	-0.3	22.4176	4.0	70.0	2.8	Certain	9.5	-0.59	0.0	No		-10.086167800453499				ShowChoice	Gain
51.0	2	380.972	0.012	962.294	-0.3	-0.3	22.4176	1.0	70.0	2.8	Certain	9.5	-0.59	0.0	No		-10.086167800453499				ShowResult	Gain
51.0	2	381.992	0.02	963.314	-0.3	-0.3	22.4176	5.508	70.0	2.8	Certain	9.5	-0.59	0.0	No		-10.086167800453499				ISITrial	Gain
52.0	2	387.525	0.025	968.847	3.41	1.7	22.8438	3.0	70.0	2.8	Outcome2	13.5	3.41	0.0	No	2.0	-10.088435374149698	0.959	388.484		GetAnswer	Loss
52.0	2	388.511	0.027	969.833	3.41	1.7	22.8438	4.0	70.0	2.8	Outcome2	13.5	3.41	0.0	No		-10.088435374149698				ShowChoice	Loss
52.0	2	392.523	0.012	973.845	3.41	1.7	22.8438	1.0	70.0	2.8	Outcome2	13.5	3.41	0.0	No		-10.088435374149698				ShowResult	Loss
52.0	2	393.543	0.02	974.865	3.41	1.7	22.8438	5.913	70.0	2.8	Outcome2	13.5	3.41	0.0	No		-10.088435374149698				ISITrial	Loss
53.0	2	399.478	0.022	980.8	3.18	1.16	23.2413	3.0	70.0	1.82	Outcome2	2.33	3.18	2996.75	Yes	2.0	0.846182917611489	1.221	400.699		GetAnswer	Loss
53.0	2	400.715	0.016	982.037	3.18	1.16	23.2413	4.0	70.0	1.82	Outcome2	2.33	3.18	2996.75	Yes		0.846182917611489				ShowChoice	Loss
53.0	2	404.727	0.012	986.049	3.18	1.16	23.2413	1.0	70.0	1.82	Outcome2	2.33	3.18	2996.75	Yes		0.846182917611489				ShowResult	Loss
53.0	2	405.746	0.019	987.068	3.18	1.16	23.2413	3.66	70.0	1.82	Outcome2	2.33	3.18	2996.75	Yes		0.846182917611489				ISITrial	Loss
53.0	2	412.45	0.029	993.772	3.18	1.16	23.2413	1.244	70.0	1.82	Outcome2	2.33	3.18	2996.75	Yes		0.846182917611489			688.0	TrialHappiness	Loss
53.0	2	416.462	4.012	997.784	3.18	1.16	23.2413	3.987	70.0	1.82	Outcome2	2.33	3.18	2996.75	Yes		0.846182917611489				ISIRate	Loss
54.0	2	420.474	0.025	1001.796	-5.0	-5.0	22.6163	3.0	70.0	1.82	Certain	4.7	-15.87	0.0	No	4.0	-20.5691609977324	2.214	422.688		GetAnswer	Gain
54.0	2	422.714	0.026	1004.036	-5.0	-5.0	22.6163	4.0	70.0	1.82	Certain	4.7	-15.87	0.0	No		-20.5691609977324				ShowChoice	Gain
54.0	2	426.726	0.012	1008.048	-5.0	-5.0	22.6163	1.0	70.0	1.82	Certain	4.7	-15.87	0.0	No		-20.5691609977324				ShowResult	Gain
54.0	2	427.746	0.02	1009.068	-5.0	-5.0	22.6163	8.0	70.0	1.82	Certain	4.7	-15.87	0.0	No		-20.5691609977324				ISITrial	Gain
	2	435.77	0.024	1017.092				-0.001								4		18.765	454.535		Rest	
	2	454.559	0.024	1035.881				4.0													BlockHappyPreview	
	2	458.572	0.013	1039.894				1.377												416.0	BlockStartHappiness	
	2	496.335	0.018	1077.657				-0.001								5.0		7.686	504.021		ScanWait	
	3	0.02	0.02	1085.363				10.0													GetReady	
55.0	3	10.034	0.014	1095.377	9.1	-0.03	23.7538	3.0	955.0	2.22	Outcome1	9.1	-0.06	2533.25	Yes	2.0	9.156285390713482	1.342	11.376		GetAnswer	Gain
55.0	3	11.388	0.012	1096.731	9.1	-0.03	23.7538	4.0	955.0	2.22	Outcome1	9.1	-0.06	2533.25	Yes		9.156285390713482				ShowChoice	Gain
55.0	3	15.4	0.012	1100.743	9.1	-0.03	23.7538	1.0	955.0	2.22	Outcome1	9.1	-0.06	2533.25	Yes		9.156285390713482				ShowResult	Gain
55.0	3	16.419	0.019	1101.762	9.1	-0.03	23.7538	7.709	955.0	2.22	Outcome1	9.1	-0.06	2533.25	Yes		9.156285390713482				ISITrial	Gain
55.0	3	26.7	0.024	1112.043	9.1	-0.03	23.7538	1.076	955.0	2.22	Outcome1	9.1	-0.06	2533.25	Yes		9.156285390713482			792.0	TrialHappiness	Gain
55.0	3	30.712	4.012	1116.055	9.1	-0.03	23.7538	2.133	955.0	2.22	Outcome1	9.1	-0.06	2533.25	Yes		9.156285390713482				ISIRate	Gain
56.0	3	32.869	0.024	1118.212	0.7	-1.0	23.8413	3.0	955.0	0.3	Outcome1	0.7	-2.68	0.0	No	2.0	3.37938844847112	1.702	34.571		GetAnswer	Mixed
56.0	3	34.591	0.02	1119.934	0.7	-1.0	23.8413	4.0	955.0	0.3	Outcome1	0.7	-2.68	0.0	No		3.37938844847112				ShowChoice	Mixed
56.0	3	38.603	0.012	1123.946	0.7	-1.0	23.8413	1.0	955.0	0.3	Outcome1	0.7	-2.68	0.0	No		3.37938844847112				ShowResult	Mixed
56.0	3	39.622	0.019	1124.965	0.7	-1.0	23.8413	4.697	955.0	0.3	Outcome1	0.7	-2.68	0.0	No		3.37938844847112				ISITrial	Mixed
57.0	3	44.337	0.018	1129.68	10.3	3.37	25.1288	3.0	955.0	5.0	Outcome1	10.3	6.74	0.0	No	2.0	3.56398640996602	1.001	45.338		GetAnswer	Gain
57.0	3	45.356	0.018	1130.699	10.3	3.37	25.1288	4.0	955.0	5.0	Outcome1	10.3	6.74	0.0	No		3.56398640996602				ShowChoice	Gain
57.0	3	49.368	0.012	1134.711	10.3	3.37	25.1288	1.0	955.0	5.0	Outcome1	10.3	6.74	0.0	No		3.56398640996602				ShowResult	Gain
57.0	3	50.388	0.02	1135.731	10.3	3.37	25.1288	4.291	955.0	5.0	Outcome1	10.3	6.74	0.0	No		3.56398640996602				ISITrial	Gain
58.0	3	54.701	0.022	1140.044	1.3	0.0	25.2913	3.0	955.0	0.66	Outcome2	-2.45	1.3	3045.75	Yes	2.0	3.74858437146093	2.169	56.87		GetAnswer	Mixed
58.0	3	56.891	0.021	1142.234	1.3	0.0	25.2913	4.0	955.0	0.66	Outcome2	-2.45	1.3	3045.75	Yes		3.74858437146093				ShowChoice	Mixed
58.0	3	60.903	0.012	1146.246	1.3	0.0	25.2913	1.0	955.0	0.66	Outcome2	-2.45	1.3	3045.75	Yes		3.74858437146093				ShowResult	Mixed
58.0	3	61.923	0.02	1147.266	1.3	0.0	25.2913	2.037	955.0	0.66	Outcome2	-2.45	1.3	3045.75	Yes		3.74858437146093				ISITrial	Mixed
58.0	3	67.055	0.03	1152.398	1.3	0.0	25.2913	1.578	955.0	0.66	Outcome2	-2.45	1.3	3045.75	Yes		3.74858437146093			952.0	TrialHappiness	Mixed
58.0	3	71.067	4.012	1156.41	1.3	0.0	25.2913	4.183	955.0	0.66	Outcome2	-2.45	1.3	3045.75	Yes		3.74858437146093				ISIRate	Mixed
59.0	3	75.279	0.029	1160.622	3.1	2.0	25.6788	3.0	955.0	0.52	Outcome1	3.1	1.88	0.0	No	2.0	1.21517553793884	1.033	76.312		GetAnswer	Mixed
59.0	3	76.333	0.021	1161.676	3.1	2.0	25.6788	4.0	955.0	0.52	Outcome1	3.1	1.88	0.0	No		1.21517553793884				ShowChoice	Mixed
59.0	3	80.345	0.012	1165.688	3.1	2.0	25.6788	1.0	955.0	0.52	Outcome1	3.1	1.88	0.0	No		1.21517553793884				ShowResult	Mixed
59.0	3	81.364	0.019	1166.707	3.1	2.0	25.6788	5.064	955.0	0.52	Outcome1	3.1	1.88	0.0	No		1.21517553793884				ISITrial	Mixed
60.0	3	86.446	0.018	1171.789	1.5	1.0	25.8663	3.0	955.0	0.82	Outcome2	0.28	1.5	3562.5	Yes	2.0	1.21857304643262	1.828	88.274		GetAnswer	Mixed
60.0	3	88.302	0.028	1173.645	1.5	1.0	25.8663	4.0	955.0	0.82	Outcome2	0.28	1.5	3562.5	Yes		1.21857304643262				ShowChoice	Mixed
60.0	3	92.314	0.012	1177.657	1.5	1.0	25.8663	1.0	955.0	0.82	Outcome2	0.28	1.5	3562.5	Yes		1.21857304643262				ShowResult	Mixed
60.0	3	93.334	0.02	1178.677	1.5	1.0	25.8663	8.0	955.0	0.82	Outcome2	0.28	1.5	3562.5	Yes		1.21857304643262				ISITrial	Mixed
60.0	3	104.935	0.015	1190.278	1.5	1.0	25.8663	1.911	955.0	0.82	Outcome2	0.28	1.5	3562.5	Yes	2{-2}	1.21857304643262	1.911	106.846	952.0	TrialHappiness	Mixed
60.0	3	108.964	4.029	1194.307	1.5	1.0	25.8663	6.25	955.0	0.82	Outcome2	0.28	1.5	3562.5	Yes		1.21857304643262				ISIRate	Mixed
61.0	3	115.233	0.019	1200.576	-1.0	-1.0	25.7413	3.0	955.0	1.0	Certain	-1.52	-0.3	0.0	No	4.0	1.22197055492639	2.177	117.41		GetAnswer	Mixed
61.0	3	117.422	0.012	1202.765	-1.0	-1.0	25.7413	4.0	955.0	1.0	Certain	-1.52	-0.3	0.0	No		1.22197055492639				ShowChoice	Mixed
61.0	3	121.434	0.012	1206.777	-1.0	-1.0	25.7413	1.0	955.0	1.0	Certain	-1.52	-0.3	0.0	No		1.22197055492639				ShowResult	Mixed
61.0	3	122.454	0.02	1207.797	-1.0	-1.0	25.7413	4.586	955.0	1.0	Certain	-1.52	-0.3	0.0	No		1.22197055492639				ISITrial	Mixed
62.0	3	127.068	0.028	1212.411	0.5	0.0	25.8038	3.0	955.0	0.2	Outcome1	0.5	-0.73	3748.75	Yes	2.0	1.22536806342016	1.767	128.835		GetAnswer	Mixed
62.0	3	128.857	0.022	1214.2	0.5	0.0	25.8038	4.0	955.0	0.2	Outcome1	0.5	-0.73	3748.75	Yes		1.22536806342016				ShowChoice	Mixed
62.0	3	132.869	0.012	1218.212	0.5	0.0	25.8038	1.0	955.0	0.2	Outcome1	0.5	-0.73	3748.75	Yes		1.22536806342016				ShowResult	Mixed
62.0	3	133.889	0.02	1219.232	0.5	0.0	25.8038	5.212	955.0	0.2	Outcome1	0.5	-0.73	3748.75	Yes		1.22536806342016				ISITrial	Mixed
62.0	3	142.899	0.029	1228.242	0.5	0.0	25.8038	2.347	955.0	0.2	Outcome1	0.5	-0.73	3748.75	Yes		1.22536806342016			816.0	TrialHappiness	Mixed
62.0	3	146.911	4.012	1232.254	0.5	0.0	25.8038	6.995	955.0	0.2	Outcome1	0.5	-0.73	3748.75	Yes		1.22536806342016				ISIRate	Mixed
63.0	3	153.932	0.026	1239.275	3.5	1.0	26.2413	3.0	955.0	0.82	Outcome2	-0.04	3.5	0.0	No	2.0	3.53907134767837	1.106	155.038		GetAnswer	Mixed
63.0	3	155.052	0.014	1240.395	3.5	1.0	26.2413	4.0	955.0	0.82	Outcome2	-0.04	3.5	0.0	No		3.53907134767837				ShowChoice	Mixed
63.0	3	159.064	0.012	1244.407	3.5	1.0	26.2413	1.0	955.0	0.82	Outcome2	-0.04	3.5	0.0	No		3.53907134767837				ShowResult	Mixed
63.0	3	160.084	0.02	1245.427	3.5	1.0	26.2413	5.595	955.0	0.82	Outcome2	-0.04	3.5	0.0	No		3.53907134767837				ISITrial	Mixed
64.0	3	165.701	0.022	1251.044	13.02	6.51	27.8688	3.0	955.0	3.16	Outcome1	13.02	13.7	0.0	No	2.0	-0.6753491883729711	0.979	166.68		GetAnswer	Loss
64.0	3	166.704	0.024	1252.047	13.02	6.51	27.8688	4.0	955.0	3.16	Outcome1	13.02	13.7	0.0	No		-0.6753491883729711				ShowChoice	Loss
64.0	3	170.732	0.028	1256.075	13.02	6.51	27.8688	1.0	955.0	3.16	Outcome1	13.02	13.7	0.0	No		-0.6753491883729711				ShowResult	Loss
64.0	3	171.752	0.02	1257.095	13.02	6.51	27.8688	5.47	955.0	3.16	Outcome1	13.02	13.7	0.0	No		-0.6753491883729711				ISITrial	Loss
65.0	3	177.252	0.03	1262.595	0.3	-1.0	27.9063	3.0	955.0	2.0	Outcome2	-3.55	0.3	2996.75	Yes	2.0	3.85390713476784	1.258	178.51		GetAnswer	Mixed
65.0	3	178.522	0.012	1263.865	0.3	-1.0	27.9063	4.0	955.0	2.0	Outcome2	-3.55	0.3	2996.75	Yes		3.85390713476784				ShowChoice	Mixed
65.0	3	182.534	0.012	1267.877	0.3	-1.0	27.9063	1.0	955.0	2.0	Outcome2	-3.55	0.3	2996.75	Yes		3.85390713476784				ShowResult	Mixed
65.0	3	183.554	0.02	1268.897	0.3	-1.0	27.9063	3.344	955.0	2.0	Outcome2	-3.55	0.3	2996.75	Yes		3.85390713476784				ISITrial	Mixed
65.0	3	189.94	0.029	1275.283	0.3	-1.0	27.9063	3.05	955.0	2.0	Outcome2	-3.55	0.3	2996.75	Yes		3.85390713476784			832.0	TrialHappiness	Mixed
65.0	3	193.952	4.012	1279.295	0.3	-1.0	27.9063	3.987	955.0	2.0	Outcome2	-3.55	0.3	2996.75	Yes		3.85390713476784				ISIRate	Mixed
66.0	3	197.964	0.025	1283.307	5.5	0.88	28.5938	3.0	955.0	2.8	Outcome1	5.5	1.76	0.0	No	2.0	3.7395243488108703	1.162	199.126		GetAnswer	Gain
66.0	3	199.151	0.025	1284.494	5.5	0.88	28.5938	4.0	955.0	2.8	Outcome1	5.5	1.76	0.0	No		3.7395243488108703				ShowChoice	Gain
66.0	3	203.163	0.012	1288.506	5.5	0.88	28.5938	1.0	955.0	2.8	Outcome1	5.5	1.76	0.0	No		3.7395243488108703				ShowResult	Gain
66.0	3	204.183	0.02	1289.526	5.5	0.88	28.5938	3.959	955.0	2.8	Outcome1	5.5	1.76	0.0	No		3.7395243488108703				ISITrial	Gain
67.0	3	208.161	0.019	1293.504	9.3	2.71	29.7563	3.0	955.0	2.48	Outcome1	9.3	5.42	2918.5	Yes	2.0	3.87882219705549	0.933	209.094		GetAnswer	Gain
67.0	3	209.114	0.02	1294.457	9.3	2.71	29.7563	4.0	955.0	2.48	Outcome1	9.3	5.42	2918.5	Yes		3.87882219705549				ShowChoice	Gain
67.0	3	213.126	0.012	1298.469	9.3	2.71	29.7563	1.0	955.0	2.48	Outcome1	9.3	5.42	2918.5	Yes		3.87882219705549				ShowResult	Gain
67.0	3	214.146	0.02	1299.489	9.3	2.71	29.7563	4.199	955.0	2.48	Outcome1	9.3	5.42	2918.5	Yes		3.87882219705549				ISITrial	Gain
67.0	3	221.301	0.024	1306.644	9.3	2.71	29.7563	1.527	955.0	2.48	Outcome1	9.3	5.42	2918.5	Yes		3.87882219705549			928.0	TrialHappiness	Gain
67.0	3	225.313	4.012	1310.656	9.3	2.71	29.7563	3.674	955.0	2.48	Outcome1	9.3	5.42	2918.5	Yes		3.87882219705549				ISIRate	Gain
68.0	3	229.007	0.02	1314.35	12.3	4.96	31.2938	3.0	955.0	5.0	Outcome1	12.3	9.91	0.0	No	2.0	2.38731596828992	0.798	229.805		GetAnswer	Loss
68.0	3	229.826	0.021	1315.169	12.3	4.96	31.2938	4.0	955.0	5.0	Outcome1	12.3	9.91	0.0	No		2.38731596828992				ShowChoice	Loss
68.0	3	233.838	0.012	1319.181	12.3	4.96	31.2938	1.0	955.0	5.0	Outcome1	12.3	9.91	0.0	No		2.38731596828992				ShowResult	Loss
68.0	3	234.858	0.02	1320.201	12.3	4.96	31.2938	2.185	955.0	5.0	Outcome1	12.3	9.91	0.0	No		2.38731596828992				ISITrial	Loss
69.0	3	237.065	0.022	1322.408	-1.5	-2.0	31.1063	3.0	955.0	0.2	Outcome2	-3.92	-1.5	0.0	No	2.0	2.41789354473386	2.071	239.136		GetAnswer	Mixed
69.0	3	239.154	0.018	1324.497	-1.5	-2.0	31.1063	4.0	955.0	0.2	Outcome2	-3.92	-1.5	0.0	No		2.41789354473386				ShowChoice	Mixed
69.0	3	243.166	0.012	1328.509	-1.5	-2.0	31.1063	1.0	955.0	0.2	Outcome2	-3.92	-1.5	0.0	No		2.41789354473386				ShowResult	Mixed
69.0	3	244.186	0.02	1329.529	-1.5	-2.0	31.1063	2.0	955.0	0.2	Outcome2	-3.92	-1.5	0.0	No		2.41789354473386				ISITrial	Mixed
70.0	3	246.209	0.023	1331.552	5.42	2.71	31.7838	3.0	955.0	3.16	Outcome2	5.7	5.42	3651.25	Yes	2.0	-0.275386938467346	0.869	247.078		GetAnswer	Gain
70.0	3	247.095	0.017	1332.438	5.42	2.71	31.7838	4.0	955.0	3.16	Outcome2	5.7	5.42	3651.25	Yes		-0.275386938467346				ShowChoice	Gain
70.0	3	251.107	0.012	1336.45	5.42	2.71	31.7838	1.0	955.0	3.16	Outcome2	5.7	5.42	3651.25	Yes		-0.275386938467346				ShowResult	Gain
70.0	3	252.127	0.02	1337.47	5.42	2.71	31.7838	2.623	955.0	3.16	Outcome2	5.7	5.42	3651.25	Yes		-0.275386938467346				ISITrial	Gain
70.0	3	258.445	0.026	1343.788	5.42	2.71	31.7838	1.494	955.0	3.16	Outcome2	5.7	5.42	3651.25	Yes		-0.275386938467346			944.0	TrialHappiness	Gain
70.0	3	262.458	4.013	1347.801	5.42	2.71	31.7838	6.605	955.0	3.16	Outcome2	5.7	5.42	3651.25	Yes		-0.275386938467346				ISIRate	Gain
71.0	3	269.094	0.031	1354.437	9.9	3.84	33.0213	3.0	955.0	3.6	Outcome1	9.9	7.69	0.0	No	2.0	2.20724801812004	0.855	269.949		GetAnswer	Gain
71.0	3	269.963	0.014	1355.306	9.9	3.84	33.0213	4.0	955.0	3.6	Outcome1	9.9	7.69	0.0	No		2.20724801812004				ShowChoice	Gain
71.0	3	273.975	0.012	1359.318	9.9	3.84	33.0213	1.0	955.0	3.6	Outcome1	9.9	7.69	0.0	No		2.20724801812004				ShowResult	Gain
71.0	3	274.995	0.02	1360.338	9.9	3.84	33.0213	5.499	955.0	3.6	Outcome1	9.9	7.69	0.0	No		2.20724801812004				ISITrial	Gain
72.0	3	280.512	0.018	1365.855	11.69	5.84	34.4826	3.0	955.0	3.6	Outcome2	11.9	11.69	3080.5	Yes	2.0	-0.21404303510758801	1.956	282.468		GetAnswer	Loss
72.0	3	282.484	0.015	1367.827	11.69	5.84	34.4826	4.0	955.0	3.6	Outcome2	11.9	11.69	3080.5	Yes		-0.21404303510758801				ShowChoice	Loss
72.0	3	286.496	0.012	1371.839	11.69	5.84	34.4826	1.0	955.0	3.6	Outcome2	11.9	11.69	3080.5	Yes		-0.21404303510758801				ShowResult	Loss
72.0	3	287.516	0.02	1372.859	11.69	5.84	34.4826	5.672	955.0	3.6	Outcome2	11.9	11.69	3080.5	Yes		-0.21404303510758801				ISITrial	Loss
72.0	3	296.309	0.029	1381.652	11.69	5.84	34.4826	1.41	955.0	3.6	Outcome2	11.9	11.69	3080.5	Yes		-0.21404303510758801			952.0	TrialHappiness	Loss
72.0	3	300.321	4.012	1385.664	11.69	5.84	34.4826	4.322	955.0	3.6	Outcome2	11.9	11.69	3080.5	Yes		-0.21404303510758801				ISIRate	Loss
73.0	3	304.667	0.024	1390.01	-1.3	-2.0	34.3201	3.0	955.0	0.3	Outcome2	-3.4	-1.3	0.0	No	2.0	2.09626274065685	1.252	305.919		GetAnswer	Mixed
73.0	3	305.938	0.019	1391.281	-1.3	-2.0	34.3201	4.0	955.0	0.3	Outcome2	-3.4	-1.3	0.0	No		2.09626274065685				ShowChoice	Mixed
73.0	3	309.95	0.012	1395.293	-1.3	-2.0	34.3201	1.0	955.0	0.3	Outcome2	-3.4	-1.3	0.0	No		2.09626274065685				ShowResult	Mixed
73.0	3	310.97	0.02	1396.313	-1.3	-2.0	34.3201	4.616	955.0	0.3	Outcome2	-3.4	-1.3	0.0	No		2.09626274065685				ISITrial	Mixed
74.0	3	315.617	0.031	1400.96	8.5	3.2	35.3826	3.0	955.0	1.68	Outcome1	8.5	6.4	3056.25	Yes	2.0	2.09966024915062	1.117	316.734		GetAnswer	Gain
74.0	3	316.754	0.02	1402.097	8.5	3.2	35.3826	4.0	955.0	1.68	Outcome1	8.5	6.4	3056.25	Yes		2.09966024915062				ShowChoice	Gain
74.0	3	320.766	0.012	1406.109	8.5	3.2	35.3826	1.0	955.0	1.68	Outcome1	8.5	6.4	3056.25	Yes		2.09966024915062				ShowResult	Gain
74.0	3	321.785	0.019	1407.128	8.5	3.2	35.3826	3.909	955.0	1.68	Outcome1	8.5	6.4	3056.25	Yes		2.09966024915062				ISITrial	Gain
74.0	3	328.79	0.02	1414.133	8.5	3.2	35.3826	2.095	955.0	1.68	Outcome1	8.5	6.4	3056.25	Yes	2{-2}	2.09966024915062	2.095	330.885	952.0	TrialHappiness	Gain
74.0	3	332.802	4.012	1418.145	8.5	3.2	35.3826	4.225	955.0	1.68	Outcome1	8.5	6.4	3056.25	Yes		2.09966024915062				ISIRate	Gain
75.0	3	337.048	0.021	1422.391	5.1	1.5	36.0201	3.0	955.0	2.22	Outcome2	3.0	5.1	0.0	No	2.0	2.10305775764439	1.046	338.094		GetAnswer	Gain
75.0	3	338.118	0.024	1423.461	5.1	1.5	36.0201	4.0	955.0	2.22	Outcome2	3.0	5.1	0.0	No		2.10305775764439				ShowChoice	Gain
75.0	3	342.13	0.012	1427.473	5.1	1.5	36.0201	1.0	955.0	2.22	Outcome2	3.0	5.1	0.0	No		2.10305775764439				ShowResult	Gain
75.0	3	343.15	0.02	1428.493	5.1	1.5	36.0201	4.979	955.0	2.22	Outcome2	3.0	5.1	0.0	No		2.10305775764439				ISITrial	Gain
76.0	3	348.148	0.019	1433.491	10.1	4.0	37.2826	3.0	955.0	4.2	Outcome1	10.1	7.99	0.0	No	2.0	2.10645526613817	0.798	348.946		GetAnswer	Gain
76.0	3	348.967	0.021	1434.31	10.1	4.0	37.2826	4.0	955.0	4.2	Outcome1	10.1	7.99	0.0	No		2.10645526613817				ShowChoice	Gain
76.0	3	352.979	0.012	1438.322	10.1	4.0	37.2826	1.0	955.0	4.2	Outcome1	10.1	7.99	0.0	No		2.10645526613817				ShowResult	Gain
76.0	3	353.999	0.02	1439.342	10.1	4.0	37.2826	3.931	955.0	4.2	Outcome1	10.1	7.99	0.0	No		2.10645526613817				ISITrial	Gain
77.0	3	357.961	0.031	1443.304	11.5	4.7	38.7201	3.0	955.0	2.8	Outcome2	9.39	11.5	4000.0	Yes	2.0	2.10985277463194	0.675	358.636		GetAnswer	Loss
77.0	3	358.663	0.026	1444.006	11.5	4.7	38.7201	4.0	955.0	2.8	Outcome2	9.39	11.5	4000.0	Yes		2.10985277463194				ShowChoice	Loss
77.0	3	362.675	0.012	1448.018	11.5	4.7	38.7201	1.0	955.0	2.8	Outcome2	9.39	11.5	4000.0	Yes		2.10985277463194				ShowResult	Loss
77.0	3	363.695	0.02	1449.038	11.5	4.7	38.7201	7.022	955.0	2.8	Outcome2	9.39	11.5	4000.0	Yes		2.10985277463194				ISITrial	Loss
77.0	3	374.761	0.029	1460.104	11.5	4.7	38.7201	1.661	955.0	2.8	Outcome2	9.39	11.5	4000.0	Yes		2.10985277463194			952.0	TrialHappiness	Loss
77.0	3	378.773	4.012	1464.116	11.5	4.7	38.7201	8.0	955.0	2.8	Outcome2	9.39	11.5	4000.0	Yes		2.10985277463194				ISIRate	Loss
78.0	3	386.797	0.024	1472.14	1.0	1.0	38.8451	3.0	955.0	0.4	Certain	0.72	0.9	0.0	No	4.0	-0.184031710079275	1.92	388.717		GetAnswer	Mixed
78.0	3	388.736	0.019	1474.079	1.0	1.0	38.8451	4.0	955.0	0.4	Certain	0.72	0.9	0.0	No		-0.184031710079275				ShowChoice	Mixed
78.0	3	392.748	0.012	1478.091	1.0	1.0	38.8451	1.0	955.0	0.4	Certain	0.72	0.9	0.0	No		-0.184031710079275				ShowResult	Mixed
78.0	3	393.768	0.02	1479.111	1.0	1.0	38.8451	2.078	955.0	0.4	Certain	0.72	0.9	0.0	No		-0.184031710079275				ISITrial	Mixed
79.0	3	395.874	0.028	1481.217	13.1	5.49	40.4826	3.0	955.0	2.22	Outcome1	13.1	10.98	2729.5	Yes	2.0	2.11664779161948	0.996	396.87		GetAnswer	Loss
79.0	3	396.894	0.024	1482.237	13.1	5.49	40.4826	4.0	955.0	2.22	Outcome1	13.1	10.98	2729.5	Yes		2.11664779161948				ShowChoice	Loss
79.0	3	400.906	0.012	1486.249	13.1	5.49	40.4826	1.0	955.0	2.22	Outcome1	13.1	10.98	2729.5	Yes		2.11664779161948				ShowResult	Loss
79.0	3	401.926	0.02	1487.269	13.1	5.49	40.4826	3.829	955.0	2.22	Outcome1	13.1	10.98	2729.5	Yes		2.11664779161948				ISITrial	Loss
79.0	3	408.529	0.028	1493.872	13.1	5.49	40.4826	2.063	955.0	2.22	Outcome1	13.1	10.98	2729.5	Yes		2.11664779161948			920.0	TrialHappiness	Loss
79.0	3	412.541	4.012	1497.884	13.1	5.49	40.4826	2.918	955.0	2.22	Outcome1	13.1	10.98	2729.5	Yes		2.11664779161948				ISIRate	Loss
80.0	3	415.483	0.024	1500.826	7.1	2.22	41.3701	3.0	955.0	2.22	Outcome2	4.44	7.1	0.0	No	2.0	2.66364665911665	0.901	416.384		GetAnswer	Gain
80.0	3	416.403	0.019	1501.746	7.1	2.22	41.3701	4.0	955.0	2.22	Outcome2	4.44	7.1	0.0	No		2.66364665911665				ShowChoice	Gain
80.0	3	420.415	0.012	1505.758	7.1	2.22	41.3701	1.0	955.0	2.22	Outcome2	4.44	7.1	0.0	No		2.66364665911665				ShowResult	Gain
80.0	3	421.434	0.019	1506.777	7.1	2.22	41.3701	3.336	955.0	2.22	Outcome2	4.44	7.1	0.0	No		2.66364665911665				ISITrial	Gain
81.0	3	424.794	0.024	1510.137	11.5	4.4	42.8076	3.0	955.0	2.8	Outcome1	11.5	8.8	3923.75	Yes	2.0	2.70328425821065	0.98	425.774		GetAnswer	Loss
81.0	3	425.798	0.024	1511.141	11.5	4.4	42.8076	4.0	955.0	2.8	Outcome1	11.5	8.8	3923.75	Yes		2.70328425821065				ShowChoice	Loss
81.0	3	429.81	0.012	1515.153	11.5	4.4	42.8076	1.0	955.0	2.8	Outcome1	11.5	8.8	3923.75	Yes		2.70328425821065				ShowResult	Loss
81.0	3	430.829	0.019	1516.172	11.5	4.4	42.8076	3.919	955.0	2.8	Outcome1	11.5	8.8	3923.75	Yes		2.70328425821065				ISITrial	Loss
81.0	3	438.72	0.022	1524.063	11.5	4.4	42.8076	1.46	955.0	2.8	Outcome1	11.5	8.8	3923.75	Yes		2.70328425821065			952.0	TrialHappiness	Loss
81.0	3	442.732	4.012	1528.075	11.5	4.4	42.8076	7.695	955.0	2.8	Outcome1	11.5	8.8	3923.75	Yes		2.70328425821065				ISIRate	Loss
	3	450.455	0.028	1535.798				3.0													CurrentEarnings	
	3	453.481	0.026	1538.824				-0.001								4.0		1.032	454.513		Goodbye	
