trial_number	block	onset	onset_delay	onset_unadjusted	amount_change	certain_amount	current_amount	duration	mood_target	multiplier	outcome	outcome1_amount	outcome2_amount	question_duration	rating	response	rpe	rt	rt_time	slider_response	trial_phase	trial_type
	0	-31.165	0.021	24.975				-0.001								{SPACE}		1.636	-29.529		Welcome	
	0	-29.508	0.021	26.632				5.0													LifeHappyPreview	
	0	-24.477	0.031	31.663				2.431												688.0	LifeHappiness	
	0	-15.399	0.018	40.741				4.0													BlockHappyPreview	
	0	-11.387	0.012	44.753				2.044												572.0	BlockStartHappiness	
	0	-5.085	0.029	51.055				-0.001								5.0					ScanWait	
	1	0.013	0.013	56.153				10.0													GetReady	
1.0	1	10.043	0.03	66.183	4.55	2.28	10.5688	3.0	955.0	4.2	Outcome1	4.55	6.1	0.0	No	2.0	-1.5542657606644	0.853	10.896		GetAnswer	Gain
1.0	1	10.913	0.017	67.053	4.55	2.28	10.5688	4.0	955.0	4.2	Outcome1	4.55	6.1	0.0	No		-1.5542657606644				ShowChoice	Gain
1.0	1	14.925	0.012	71.065	4.55	2.28	10.5688	1.0	955.0	4.2	Outcome1	4.55	6.1	0.0	No		-1.5542657606644				ShowResult	Gain
1.0	1	15.944	0.019	72.084	4.55	2.28	10.5688	2.431	955.0	4.2	Outcome1	4.55	6.1	0.0	No		-1.5542657606644				ISITrial	Gain
2.0	1	18.402	0.027	74.542	-1.3	-5.0	10.4063	3.0	955.0	0.3	Outcome2	-8.24	-1.3	0.0	No	2.0	6.939977349943369	1.488	19.89		GetAnswer	Mixed
2.0	1	19.906	0.016	76.046	-1.3	-5.0	10.4063	4.0	955.0	0.3	Outcome2	-8.24	-1.3	0.0	No		6.939977349943369				ShowChoice	Mixed
2.0	1	23.935	0.029	80.075	-1.3	-5.0	10.4063	1.0	955.0	0.3	Outcome2	-8.24	-1.3	0.0	No		6.939977349943369				ShowResult	Mixed
2.0	1	24.955	0.02	81.095	-1.3	-5.0	10.4063	4.568	955.0	0.3	Outcome2	-8.24	-1.3	0.0	No		6.939977349943369				ISITrial	Mixed
3.0	1	29.552	0.029	85.692	-1.1	-5.0	10.2688	3.0	955.0	0.4	Outcome1	-1.1	-8.47	2868.0	Yes	2.0	7.37372593431484	1.356	30.908		GetAnswer	Mixed
3.0	1	30.922	0.014	87.062	-1.1	-5.0	10.2688	4.0	955.0	0.4	Outcome1	-1.1	-8.47	2868.0	Yes		7.37372593431484				ShowChoice	Mixed
3.0	1	34.934	0.012	91.074	-1.1	-5.0	10.2688	1.0	955.0	0.4	Outcome1	-1.1	-8.47	2868.0	Yes		7.37372593431484				ShowResult	Mixed
3.0	1	35.954	0.02	92.094	-1.1	-5.0	10.2688	3.243	955.0	0.4	Outcome1	-1.1	-8.47	2868.0	Yes		7.37372593431484				ISITrial	Mixed
3.0	1	42.106	0.024	98.246	-1.1	-5.0	10.2688	1.896	955.0	0.4	Outcome1	-1.1	-8.47	2868.0	Yes		7.37372593431484			768.0	TrialHappiness	Mixed
3.0	1	46.135	4.029	102.275	-1.1	-5.0	10.2688	3.472	955.0	0.4	Outcome1	-1.1	-8.47	2868.0	Yes		7.37372593431484				ISIRate	Mixed
4.0	1	49.628	0.021	105.768	0.9	-1.0	10.3813	3.0	955.0	0.4	Outcome1	0.9	-3.58	0.0	No	2.0	4.47791619479049	1.127	50.755		GetAnswer	Mixed
4.0	1	50.782	0.027	106.922	0.9	-1.0	10.3813	4.0	955.0	0.4	Outcome1	0.9	-3.58	0.0	No		4.47791619479049				ShowChoice	Mixed
4.0	1	54.794	0.012	110.934	0.9	-1.0	10.3813	1.0	955.0	0.4	Outcome1	0.9	-3.58	0.0	No		4.47791619479049				ShowResult	Mixed
4.0	1	55.813	0.019	111.953	0.9	-1.0	10.3813	2.011	955.0	0.4	Outcome1	0.9	-3.58	0.0	No		4.47791619479049				ISITrial	Mixed
5.0	1	57.853	0.029	113.993	2.0	2.0	10.6313	3.0	955.0	2.0	Certain	0.21	4.9	2582.5	Yes	4.0	4.689694224235559	0.754	58.607		GetAnswer	Gain
5.0	1	58.622	0.015	114.762	2.0	2.0	10.6313	4.0	955.0	2.0	Certain	0.21	4.9	2582.5	Yes		4.689694224235559				ShowChoice	Gain
5.0	1	62.634	0.012	118.774	2.0	2.0	10.6313	1.0	955.0	2.0	Certain	0.21	4.9	2582.5	Yes		4.689694224235559				ShowResult	Gain
5.0	1	63.654	0.02	119.794	2.0	2.0	10.6313	5.129	955.0	2.0	Certain	0.21	4.9	2582.5	Yes		4.689694224235559				ISITrial	Gain
5.0	1	71.41	0.026	127.55	2.0	2.0	10.6313	1.143	955.0	2.0	Certain	0.21	4.9	2582.5	Yes		4.689694224235559			824.0	TrialHappiness	Gain
5.0	1	75.439	4.029	131.579	2.0	2.0	10.6313	2.33	955.0	2.0	Certain	0.21	4.9	2582.5	Yes		4.689694224235559				ISIRate	Gain
6.0	1	77.796	0.027	133.936	-1.0	-1.0	10.5063	3.0	955.0	0.2	Certain	-3.45	0.5	0.0	No	4.0	3.9501698754246894	2.428	80.224		GetAnswer	Mixed
6.0	1	80.253	0.029	136.393	-1.0	-1.0	10.5063	4.0	955.0	0.2	Certain	-3.45	0.5	0.0	No		3.9501698754246894				ShowChoice	Mixed
6.0	1	84.282	0.029	140.422	-1.0	-1.0	10.5063	1.0	955.0	0.2	Certain	-3.45	0.5	0.0	No		3.9501698754246894				ShowResult	Mixed
6.0	1	85.302	0.02	141.442	-1.0	-1.0	10.5063	6.232	955.0	0.2	Certain	-3.45	0.5	0.0	No		3.9501698754246894				ISITrial	Mixed
7.0	1	91.554	0.02	147.694	2.0	2.0	10.7563	3.0	955.0	4.2	Certain	8.1	4.0	0.0	No	4.0	4.098527746319371	0.718	92.272		GetAnswer	Gain
7.0	1	92.289	0.017	148.429	2.0	2.0	10.7563	4.0	955.0	4.2	Certain	8.1	4.0	0.0	No		4.098527746319371				ShowChoice	Gain
7.0	1	96.318	0.029	152.458	2.0	2.0	10.7563	1.0	955.0	4.2	Certain	8.1	4.0	0.0	No		4.098527746319371				ShowResult	Gain
7.0	1	97.338	0.02	153.478	2.0	2.0	10.7563	2.305	955.0	4.2	Certain	8.1	4.0	0.0	No		4.098527746319371				ISITrial	Gain
8.0	1	99.661	0.018	155.801	7.3	1.52	11.6688	3.0	955.0	2.48	Outcome2	3.05	7.3	3112.5	Yes	2.0	4.246885617214041	0.959	100.62		GetAnswer	Gain
8.0	1	100.647	0.027	156.787	7.3	1.52	11.6688	4.0	955.0	2.48	Outcome2	3.05	7.3	3112.5	Yes		4.246885617214041				ShowChoice	Gain
8.0	1	104.659	0.012	160.799	7.3	1.52	11.6688	1.0	955.0	2.48	Outcome2	3.05	7.3	3112.5	Yes		4.246885617214041				ShowResult	Gain
8.0	1	105.679	0.02	161.819	7.3	1.52	11.6688	3.506	955.0	2.48	Outcome2	3.05	7.3	3112.5	Yes		4.246885617214041				ISITrial	Gain
8.0	1	112.349	0.031	168.489	7.3	1.52	11.6688	3.267	955.0	2.48	Outcome2	3.05	7.3	3112.5	Yes		4.246885617214041			760.0	TrialHappiness	Gain
8.0	1	116.361	4.012	172.501	7.3	1.52	11.6688	4.45	955.0	2.48	Outcome2	3.05	7.3	3112.5	Yes		4.246885617214041				ISIRate	Gain
9.0	1	120.841	0.03	176.981	1.0	1.0	11.7938	3.0	955.0	1.5	Certain	-1.38	4.1	0.0	No	4.0	5.48244620611552	1.126	121.967		GetAnswer	Mixed
9.0	1	121.978	0.011	178.118	1.0	1.0	11.7938	4.0	955.0	1.5	Certain	-1.38	4.1	0.0	No		5.48244620611552				ShowChoice	Mixed
9.0	1	125.99	0.012	182.13	1.0	1.0	11.7938	1.0	955.0	1.5	Certain	-1.38	4.1	0.0	No		5.48244620611552				ShowResult	Mixed
9.0	1	127.01	0.02	183.15	1.0	1.0	11.7938	2.0	955.0	1.5	Certain	-1.38	4.1	0.0	No		5.48244620611552				ISITrial	Mixed
10.0	1	129.032	0.022	185.172	-0.9	-4.0	11.6813	3.0	955.0	0.52	Outcome1	-0.9	-6.6	4000.0	Yes	2.0	5.70328425821064	1.775	130.807		GetAnswer	Mixed
10.0	1	130.821	0.014	186.961	-0.9	-4.0	11.6813	4.0	955.0	0.52	Outcome1	-0.9	-6.6	4000.0	Yes		5.70328425821064				ShowChoice	Mixed
10.0	1	134.833	0.012	190.973	-0.9	-4.0	11.6813	1.0	955.0	0.52	Outcome1	-0.9	-6.6	4000.0	Yes		5.70328425821064				ShowResult	Mixed
10.0	1	135.853	0.02	191.993	-0.9	-4.0	11.6813	2.0	955.0	0.52	Outcome1	-0.9	-6.6	4000.0	Yes		5.70328425821064				ISITrial	Mixed
10.0	1	141.904	0.029	198.044	-0.9	-4.0	11.6813	3.786	955.0	0.52	Outcome1	-0.9	-6.6	4000.0	Yes		5.70328425821064			820.0	TrialHappiness	Mixed
10.0	1	145.916	4.012	202.056	-0.9	-4.0	11.6813	8.0	955.0	0.52	Outcome1	-0.9	-6.6	4000.0	Yes		5.70328425821064				ISIRate	Mixed
11.0	1	153.94	0.024	210.08	3.0	3.0	12.0563	3.0	955.0	2.0	Certain	6.0	10.9	0.0	No	4.0	4.90486976217441	0.73	154.67		GetAnswer	Loss
11.0	1	154.692	0.022	210.832	3.0	3.0	12.0563	4.0	955.0	2.0	Certain	6.0	10.9	0.0	No		4.90486976217441				ShowChoice	Loss
11.0	1	158.704	0.012	214.844	3.0	3.0	12.0563	1.0	955.0	2.0	Certain	6.0	10.9	0.0	No		4.90486976217441				ShowResult	Loss
11.0	1	159.724	0.02	215.864	3.0	3.0	12.0563	3.324	955.0	2.0	Certain	6.0	10.9	0.0	No		4.90486976217441				ISITrial	Loss
12.0	1	163.067	0.019	219.207	-0.48	0.0	11.9963	3.0	955.0	2.0	Outcome2	0.3	-0.48	2618.75	Yes	2.0	-0.778218195545489	0.834	163.901		GetAnswer	Mixed
12.0	1	163.92	0.018	220.06	-0.48	0.0	11.9963	4.0	955.0	2.0	Outcome2	0.3	-0.48	2618.75	Yes		-0.778218195545489				ShowChoice	Mixed
12.0	1	167.932	0.012	224.072	-0.48	0.0	11.9963	1.0	955.0	2.0	Outcome2	0.3	-0.48	2618.75	Yes		-0.778218195545489				ShowResult	Mixed
12.0	1	168.952	0.02	225.092	-0.48	0.0	11.9963	6.642	955.0	2.0	Outcome2	0.3	-0.48	2618.75	Yes		-0.778218195545489				ISITrial	Mixed
12.0	1	178.246	0.022	234.386	-0.48	0.0	11.9963	2.414	955.0	2.0	Outcome2	0.3	-0.48	2618.75	Yes		-0.778218195545489			712.0	TrialHappiness	Mixed
12.0	1	182.258	4.012	238.398	-0.48	0.0	11.9963	2.475	955.0	2.0	Outcome2	0.3	-0.48	2618.75	Yes		-0.778218195545489				ISIRate	Mixed
13.0	1	184.749	0.016	240.889	13.9	3.42	13.7338	3.0	955.0	3.6	Outcome2	6.85	13.9	0.0	No	2.0	7.04530011325028	1.051	185.8		GetAnswer	Loss
13.0	1	185.819	0.019	241.959	13.9	3.42	13.7338	4.0	955.0	3.6	Outcome2	6.85	13.9	0.0	No		7.04530011325028				ShowChoice	Loss
13.0	1	189.831	0.012	245.971	13.9	3.42	13.7338	1.0	955.0	3.6	Outcome2	6.85	13.9	0.0	No		7.04530011325028				ShowResult	Loss
13.0	1	190.851	0.02	246.991	13.9	3.42	13.7338	3.48	955.0	3.6	Outcome2	6.85	13.9	0.0	No		7.04530011325028				ISITrial	Loss
14.0	1	194.361	0.03	250.501	6.3	2.0	14.5213	3.0	955.0	5.0	Outcome2	-1.02	6.3	0.0	No	2.0	7.32049830124575	1.255	195.616		GetAnswer	Gain
14.0	1	195.631	0.015	251.771	6.3	2.0	14.5213	4.0	955.0	5.0	Outcome2	-1.02	6.3	0.0	No		7.32049830124575				ShowChoice	Gain
14.0	1	199.643	0.012	255.783	6.3	2.0	14.5213	1.0	955.0	5.0	Outcome2	-1.02	6.3	0.0	No		7.32049830124575				ShowResult	Gain
14.0	1	200.663	0.02	256.803	6.3	2.0	14.5213	5.019	955.0	5.0	Outcome2	-1.02	6.3	0.0	No		7.32049830124575				ISITrial	Gain
15.0	1	205.712	0.03	261.852	1.0	1.0	14.6463	3.0	955.0	2.48	Certain	5.3	-2.3	3348.5	Yes	4.0	7.595696489241219	1.176	206.888		GetAnswer	Gain
15.0	1	206.899	0.011	263.039	1.0	1.0	14.6463	4.0	955.0	2.48	Certain	5.3	-2.3	3348.5	Yes		7.595696489241219				ShowChoice	Gain
15.0	1	210.911	0.012	267.051	1.0	1.0	14.6463	1.0	955.0	2.48	Certain	5.3	-2.3	3348.5	Yes		7.595696489241219				ShowResult	Gain
15.0	1	211.93	0.019	268.07	1.0	1.0	14.6463	7.614	955.0	2.48	Certain	5.3	-2.3	3348.5	Yes		7.595696489241219				ISITrial	Gain
15.0	1	222.946	0.028	279.086	1.0	1.0	14.6463	1.092	955.0	2.48	Certain	5.3	-2.3	3348.5	Yes		7.595696489241219			664.0	TrialHappiness	Gain
15.0	1	226.958	4.012	283.098	1.0	1.0	14.6463	5.394	955.0	2.48	Certain	5.3	-2.3	3348.5	Yes		7.595696489241219				ISIRate	Gain
16.0	1	232.375	0.023	288.515	10.3	0.8	15.9338	3.0	955.0	5.0	Outcome1	10.3	1.61	0.0	No	2.0	8.68629671574179	1.141	233.516		GetAnswer	Gain
16.0	1	233.528	0.012	289.668	10.3	0.8	15.9338	4.0	955.0	5.0	Outcome1	10.3	1.61	0.0	No		8.68629671574179				ShowChoice	Gain
16.0	1	237.54	0.012	293.68	10.3	0.8	15.9338	1.0	955.0	5.0	Outcome1	10.3	1.61	0.0	No		8.68629671574179				ShowResult	Gain
16.0	1	238.56	0.02	294.7	10.3	0.8	15.9338	3.008	955.0	5.0	Outcome1	10.3	1.61	0.0	No		8.68629671574179				ISITrial	Gain
17.0	1	241.586	0.018	297.726	3.5	-1.0	16.3713	3.0	955.0	0.82	Outcome2	-5.52	3.5	3041.5	Yes	2.0	9.0158550396376	1.535	243.121		GetAnswer	Mixed
17.0	1	243.14	0.019	299.28	3.5	-1.0	16.3713	4.0	955.0	0.82	Outcome2	-5.52	3.5	3041.5	Yes		9.0158550396376				ShowChoice	Mixed
17.0	1	247.152	0.012	303.292	3.5	-1.0	16.3713	1.0	955.0	0.82	Outcome2	-5.52	3.5	3041.5	Yes		9.0158550396376				ShowResult	Mixed
17.0	1	248.172	0.02	304.312	3.5	-1.0	16.3713	3.566	955.0	0.82	Outcome2	-5.52	3.5	3041.5	Yes		9.0158550396376				ISITrial	Mixed
17.0	1	254.808	0.017	310.948	3.5	-1.0	16.3713	3.761	955.0	0.82	Outcome2	-5.52	3.5	3041.5	Yes		9.0158550396376			864.0	TrialHappiness	Mixed
17.0	1	258.837	4.029	314.977	3.5	-1.0	16.3713	4.166	955.0	0.82	Outcome2	-5.52	3.5	3041.5	Yes		9.0158550396376				ISIRate	Mixed
18.0	1	263.033	0.03	319.173	3.3	0.0	16.7838	3.0	955.0	0.66	Outcome1	3.3	-2.65	0.0	No	2.0	5.94790486976217	1.164	264.197		GetAnswer	Mixed
18.0	1	264.22	0.023	320.36	3.3	0.0	16.7838	4.0	955.0	0.66	Outcome1	3.3	-2.65	0.0	No		5.94790486976217				ShowChoice	Mixed
18.0	1	268.232	0.012	324.372	3.3	0.0	16.7838	1.0	955.0	0.66	Outcome1	3.3	-2.65	0.0	No		5.94790486976217				ShowResult	Mixed
18.0	1	269.252	0.02	325.392	3.3	0.0	16.7838	6.787	955.0	0.66	Outcome1	3.3	-2.65	0.0	No		5.94790486976217				ISITrial	Mixed
19.0	1	276.055	0.016	332.195	2.16	2.0	17.0538	3.0	955.0	0.4	Outcome2	2.9	2.16	0.0	No	2.0	-0.744714986787467	0.925	276.98		GetAnswer	Mixed
19.0	1	276.991	0.011	333.131	2.16	2.0	17.0538	4.0	955.0	0.4	Outcome2	2.9	2.16	0.0	No		-0.744714986787467				ShowChoice	Mixed
19.0	1	281.003	0.012	337.143	2.16	2.0	17.0538	1.0	955.0	0.4	Outcome2	2.9	2.16	0.0	No		-0.744714986787467				ShowResult	Mixed
19.0	1	282.023	0.02	338.163	2.16	2.0	17.0538	2.0	955.0	0.4	Outcome2	2.9	2.16	0.0	No		-0.744714986787467				ISITrial	Mixed
20.0	1	284.046	0.023	340.186	7.1	0.48	17.9413	3.0	955.0	2.22	Outcome2	0.95	7.1	2921.25	Yes	2.0	6.154020385050959	1.095	285.141		GetAnswer	Gain
20.0	1	285.166	0.025	341.306	7.1	0.48	17.9413	4.0	955.0	2.22	Outcome2	0.95	7.1	2921.25	Yes		6.154020385050959				ShowChoice	Gain
20.0	1	289.178	0.012	345.318	7.1	0.48	17.9413	1.0	955.0	2.22	Outcome2	0.95	7.1	2921.25	Yes		6.154020385050959				ShowResult	Gain
20.0	1	290.198	0.02	346.338	7.1	0.48	17.9413	8.0	955.0	2.22	Outcome2	0.95	7.1	2921.25	Yes		6.154020385050959				ISITrial	Gain
20.0	1	301.164	0.021	357.304	7.1	0.48	17.9413	3.048	955.0	2.22	Outcome2	0.95	7.1	2921.25	Yes		6.154020385050959			776.0	TrialHappiness	Gain
20.0	1	305.176	4.012	361.316	7.1	0.48	17.9413	3.685	955.0	2.22	Outcome2	0.95	7.1	2921.25	Yes		6.154020385050959				ISIRate	Gain
21.0	1	308.887	0.026	365.027	3.1	-1.0	18.3288	3.0	955.0	0.52	Outcome1	3.1	-4.65	0.0	No	2.0	7.751981879954701	1.18	310.067		GetAnswer	Mixed
21.0	1	310.09	0.023	366.23	3.1	-1.0	18.3288	4.0	955.0	0.52	Outcome1	3.1	-4.65	0.0	No		7.751981879954701				ShowChoice	Mixed
21.0	1	314.102	0.012	370.242	3.1	-1.0	18.3288	1.0	955.0	0.52	Outcome1	3.1	-4.65	0.0	No		7.751981879954701				ShowResult	Mixed
21.0	1	315.122	0.02	371.262	3.1	-1.0	18.3288	3.555	955.0	0.52	Outcome1	3.1	-4.65	0.0	No		7.751981879954701				ISITrial	Mixed
22.0	1	318.699	0.022	374.839	-4.0	-4.0	17.8288	3.0	955.0	0.66	Certain	-8.65	-0.7	3219.5	Yes	4.0	7.95469988674972	1.178	319.877		GetAnswer	Mixed
22.0	1	319.903	0.026	376.043	-4.0	-4.0	17.8288	4.0	955.0	0.66	Certain	-8.65	-0.7	3219.5	Yes		7.95469988674972				ShowChoice	Mixed
22.0	1	323.915	0.012	380.055	-4.0	-4.0	17.8288	1.0	955.0	0.66	Certain	-8.65	-0.7	3219.5	Yes		7.95469988674972				ShowResult	Mixed
22.0	1	324.935	0.02	381.075	-4.0	-4.0	17.8288	6.793	955.0	0.66	Certain	-8.65	-0.7	3219.5	Yes		7.95469988674972				ISITrial	Mixed
22.0	1	334.998	0.023	391.138	-4.0	-4.0	17.8288	1.31	955.0	0.66	Certain	-8.65	-0.7	3219.5	Yes		7.95469988674972			640.0	TrialHappiness	Mixed
22.0	1	339.01	4.012	395.15	-4.0	-4.0	17.8288	4.878	955.0	0.66	Certain	-8.65	-0.7	3219.5	Yes		7.95469988674972				ISIRate	Mixed
23.0	1	343.908	0.02	400.048	11.5	0.52	19.2663	3.0	955.0	2.8	Outcome1	11.5	1.03	0.0	No	2.0	10.4677236693092	1.047	344.955		GetAnswer	Loss
23.0	1	344.978	0.023	401.118	11.5	0.52	19.2663	4.0	955.0	2.8	Outcome1	11.5	1.03	0.0	No		10.4677236693092				ShowChoice	Loss
23.0	1	348.99	0.012	405.13	11.5	0.52	19.2663	1.0	955.0	2.8	Outcome1	11.5	1.03	0.0	No		10.4677236693092				ShowResult	Loss
23.0	1	350.01	0.02	406.15	11.5	0.52	19.2663	8.0	955.0	2.8	Outcome1	11.5	1.03	0.0	No		10.4677236693092				ISITrial	Loss
24.0	1	358.034	0.024	414.174	5.77	2.88	19.9876	3.0	955.0	2.8	Outcome1	5.77	7.5	3255.0	Yes	2.0	-1.73442808607022	1.14	359.174		GetAnswer	Gain
24.0	1	359.187	0.013	415.327	5.77	2.88	19.9876	4.0	955.0	2.8	Outcome1	5.77	7.5	3255.0	Yes		-1.73442808607022				ShowChoice	Gain
24.0	1	363.199	0.012	419.339	5.77	2.88	19.9876	1.0	955.0	2.8	Outcome1	5.77	7.5	3255.0	Yes		-1.73442808607022				ShowResult	Gain
24.0	1	364.219	0.02	420.359	5.77	2.88	19.9876	2.0	955.0	2.8	Outcome1	5.77	7.5	3255.0	Yes		-1.73442808607022				ISITrial	Gain
24.0	1	369.518	0.021	425.658	5.77	2.88	19.9876	1.861	955.0	2.8	Outcome1	5.77	7.5	3255.0	Yes		-1.73442808607022			816.0	TrialHappiness	Gain
24.0	1	373.53	4.012	429.67	5.77	2.88	19.9876	5.02	955.0	2.8	Outcome1	5.77	7.5	3255.0	Yes		-1.73442808607022				ISIRate	Gain
25.0	1	378.578	0.028	434.718	6.85	3.42	20.8438	3.0	955.0	3.6	Outcome1	6.85	7.9	0.0	No	2.0	-1.04992449981125	0.93	379.508		GetAnswer	Gain
25.0	1	379.531	0.022	435.671	6.85	3.42	20.8438	4.0	955.0	3.6	Outcome1	6.85	7.9	0.0	No		-1.04992449981125				ShowChoice	Gain
25.0	1	383.543	0.012	439.683	6.85	3.42	20.8438	1.0	955.0	3.6	Outcome1	6.85	7.9	0.0	No		-1.04992449981125				ShowResult	Gain
25.0	1	384.563	0.02	440.703	6.85	3.42	20.8438	3.749	955.0	3.6	Outcome1	6.85	7.9	0.0	No		-1.04992449981125				ISITrial	Gain
26.0	1	388.341	0.029	444.481	-2.0	-2.0	20.5938	3.0	955.0	0.2	Certain	-1.5	-2.56	0.0	No	4.0	-1.06304265760664	1.854	390.195		GetAnswer	Mixed
26.0	1	390.213	0.018	446.353	-2.0	-2.0	20.5938	4.0	955.0	0.2	Certain	-1.5	-2.56	0.0	No		-1.06304265760664				ShowChoice	Mixed
26.0	1	394.225	0.012	450.365	-2.0	-2.0	20.5938	1.0	955.0	0.2	Certain	-1.5	-2.56	0.0	No		-1.06304265760664				ShowResult	Mixed
26.0	1	395.245	0.02	451.385	-2.0	-2.0	20.5938	7.834	955.0	0.2	Certain	-1.5	-2.56	0.0	No		-1.06304265760664				ISITrial	Mixed
27.0	1	403.102	0.023	459.242	1.1	-3.0	20.7313	3.0	955.0	0.52	Outcome2	-7.41	1.1	2549.75	Yes	2.0	8.50622876557191	1.435	404.537		GetAnswer	Mixed
27.0	1	404.556	0.019	460.696	1.1	-3.0	20.7313	4.0	955.0	0.52	Outcome2	-7.41	1.1	2549.75	Yes		8.50622876557191				ShowChoice	Mixed
27.0	1	408.568	0.012	464.708	1.1	-3.0	20.7313	1.0	955.0	0.52	Outcome2	-7.41	1.1	2549.75	Yes		8.50622876557191				ShowResult	Mixed
27.0	1	409.588	0.02	465.728	1.1	-3.0	20.7313	4.225	955.0	0.52	Outcome2	-7.41	1.1	2549.75	Yes		8.50622876557191				ISITrial	Mixed
27.0	1	416.408	0.024	472.548	1.1	-3.0	20.7313	1.109	955.0	0.52	Outcome2	-7.41	1.1	2549.75	Yes		8.50622876557191			776.0	TrialHappiness	Mixed
27.0	1	420.42	4.012	476.56	1.1	-3.0	20.7313	2.199	955.0	0.52	Outcome2	-7.41	1.1	2549.75	Yes		8.50622876557191				ISIRate	Mixed
	1	422.644	0.025	478.784				-0.001								{SPACE}		36.328	458.972		Rest	
	1	458.986	0.014	515.126				4.0													BlockHappyPreview	
	1	462.998	0.012	519.138				2.312												784.0	BlockStartHappiness	
	1	468.514	0.023	524.654				-0.001								5.0		3.624	472.138		ScanWait	
	2	0.02	0.02	528.298				10.0													GetReady	
28.0	2	10.034	0.014	538.312	-10.04	-4.0	19.4763	3.0	70.0	1.5	Outcome2	2.1	-10.04	0.0	No	2.0	-12.142857142857098	1.095	11.129		GetAnswer	Mixed
28.0	2	11.154	0.025	539.432	-10.04	-4.0	19.4763	4.0	70.0	1.5	Outcome2	2.1	-10.04	0.0	No		-12.142857142857098				ShowChoice	Mixed
28.0	2	15.166	0.012	543.444	-10.04	-4.0	19.4763	1.0	70.0	1.5	Outcome2	2.1	-10.04	0.0	No		-12.142857142857098				ShowResult	Mixed
28.0	2	16.185	0.019	544.463	-10.04	-4.0	19.4763	3.575	70.0	1.5	Outcome2	2.1	-10.04	0.0	No		-12.142857142857098				ISITrial	Mixed
29.0	2	19.779	0.019	548.057	3.28	2.0	19.8863	3.0	70.0	2.22	Outcome1	3.28	0.31	3529.0	Yes	2.0	2.96825396825397	1.179	20.958		GetAnswer	Loss
29.0	2	20.983	0.025	549.261	3.28	2.0	19.8863	4.0	70.0	2.22	Outcome1	3.28	0.31	3529.0	Yes		2.96825396825397				ShowChoice	Loss
29.0	2	24.995	0.012	553.273	3.28	2.0	19.8863	1.0	70.0	2.22	Outcome1	3.28	0.31	3529.0	Yes		2.96825396825397				ShowResult	Loss
29.0	2	26.015	0.02	554.293	3.28	2.0	19.8863	3.955	70.0	2.22	Outcome1	3.28	0.31	3529.0	Yes		2.96825396825397				ISITrial	Loss
29.0	2	33.554	0.032	561.832	3.28	2.0	19.8863	1.008	70.0	2.22	Outcome1	3.28	0.31	3529.0	Yes		2.96825396825397			768.0	TrialHappiness	Loss
29.0	2	37.583	4.029	565.861	3.28	2.0	19.8863	6.116	70.0	2.22	Outcome1	3.28	0.31	3529.0	Yes		2.96825396825397				ISIRate	Loss
30.0	2	43.718	0.019	571.996	-2.0	-2.0	19.6363	3.0	70.0	1.68	Certain	-8.99	4.5	0.0	No	4.0	-13.4897959183673	1.567	45.285		GetAnswer	Gain
30.0	2	45.306	0.021	573.584	-2.0	-2.0	19.6363	4.0	70.0	1.68	Certain	-8.99	4.5	0.0	No		-13.4897959183673				ShowChoice	Gain
30.0	2	49.318	0.012	577.596	-2.0	-2.0	19.6363	1.0	70.0	1.68	Certain	-8.99	4.5	0.0	No		-13.4897959183673				ShowResult	Gain
30.0	2	50.337	0.019	578.615	-2.0	-2.0	19.6363	4.453	70.0	1.68	Certain	-8.99	4.5	0.0	No		-13.4897959183673				ISITrial	Gain
31.0	2	54.817	0.027	583.095	-0.08	-1.0	19.6263	3.0	70.0	1.0	Outcome2	-3.12	-0.08	2503.25	Yes	2.0	3.0366591080876804	0.892	55.709		GetAnswer	Mixed
31.0	2	55.737	0.028	584.015	-0.08	-1.0	19.6263	4.0	70.0	1.0	Outcome2	-3.12	-0.08	2503.25	Yes		3.0366591080876804				ShowChoice	Mixed
31.0	2	59.749	0.012	588.027	-0.08	-1.0	19.6263	1.0	70.0	1.0	Outcome2	-3.12	-0.08	2503.25	Yes		3.0366591080876804				ShowResult	Mixed
31.0	2	60.769	0.02	589.047	-0.08	-1.0	19.6263	4.786	70.0	1.0	Outcome2	-3.12	-0.08	2503.25	Yes		3.0366591080876804				ISITrial	Mixed
31.0	2	68.107	0.021	596.385	-0.08	-1.0	19.6263	3.118	70.0	1.0	Outcome2	-3.12	-0.08	2503.25	Yes		3.0366591080876804			792.0	TrialHappiness	Mixed
31.0	2	72.119	4.012	600.397	-0.08	-1.0	19.6263	2.013	70.0	1.0	Outcome2	-3.12	-0.08	2503.25	Yes		3.0366591080876804				ISIRate	Mixed
32.0	2	74.159	0.027	602.437	-1.78	-0.89	19.4038	3.0	70.0	3.16	Outcome1	-1.78	13.7	0.0	No	2.0	-15.480725623582801	1.602	75.761		GetAnswer	Loss
32.0	2	75.78	0.019	604.058	-1.78	-0.89	19.4038	4.0	70.0	3.16	Outcome1	-1.78	13.7	0.0	No		-15.480725623582801				ShowChoice	Loss
32.0	2	79.792	0.012	608.07	-1.78	-0.89	19.4038	1.0	70.0	3.16	Outcome1	-1.78	13.7	0.0	No		-15.480725623582801				ShowResult	Loss
32.0	2	80.812	0.02	609.09	-1.78	-0.89	19.4038	2.0	70.0	3.16	Outcome1	-1.78	13.7	0.0	No		-15.480725623582801				ISITrial	Loss
33.0	2	82.835	0.023	611.113	-6.8	1.0	18.5538	3.0	70.0	2.8	Outcome1	-6.8	9.5	0.0	No	2.0	-16.2993197278912	1.536	84.371		GetAnswer	Gain
33.0	2	84.389	0.018	612.667	-6.8	1.0	18.5538	4.0	70.0	2.8	Outcome1	-6.8	9.5	0.0	No		-16.2993197278912				ShowChoice	Gain
33.0	2	88.401	0.012	616.679	-6.8	1.0	18.5538	1.0	70.0	2.8	Outcome1	-6.8	9.5	0.0	No		-16.2993197278912				ShowResult	Gain
33.0	2	89.421	0.02	617.699	-6.8	1.0	18.5538	5.099	70.0	2.8	Outcome1	-6.8	9.5	0.0	No		-16.2993197278912				ISITrial	Gain
34.0	2	94.553	0.033	622.831	-7.02	1.0	17.6763	3.0	70.0	4.2	Outcome1	-7.02	10.1	3231.5	Yes	2.0	-17.1179138321995	1.734	96.287		GetAnswer	Gain
34.0	2	96.308	0.021	624.586	-7.02	1.0	17.6763	4.0	70.0	4.2	Outcome1	-7.02	10.1	3231.5	Yes		-17.1179138321995				ShowChoice	Gain
34.0	2	100.32	0.012	628.598	-7.02	1.0	17.6763	1.0	70.0	4.2	Outcome1	-7.02	10.1	3231.5	Yes		-17.1179138321995				ShowResult	Gain
34.0	2	101.34	0.02	629.618	-7.02	1.0	17.6763	4.784	70.0	4.2	Outcome1	-7.02	10.1	3231.5	Yes		-17.1179138321995				ISITrial	Gain
34.0	2	109.397	0.027	637.675	-7.02	1.0	17.6763	0.0	70.0	4.2	Outcome1	-7.02	10.1	3231.5	Yes		-17.1179138321995			512.0	TrialHappiness	Gain
34.0	2	113.409	4.012	641.687	-7.02	1.0	17.6763	4.926	70.0	4.2	Outcome1	-7.02	10.1	3231.5	Yes		-17.1179138321995				ISIRate	Gain
35.0	2	118.357	0.022	646.635	2.0	2.0	17.9263	3.0	70.0	1.82	Certain	-4.47	8.7	0.0	No	4.0	-13.1746031746032	0.909	119.266		GetAnswer	Gain
35.0	2	119.277	0.011	647.555	2.0	2.0	17.9263	4.0	70.0	1.82	Certain	-4.47	8.7	0.0	No		-13.1746031746032				ShowChoice	Gain
35.0	2	123.289	0.012	651.567	2.0	2.0	17.9263	1.0	70.0	1.82	Certain	-4.47	8.7	0.0	No		-13.1746031746032				ShowResult	Gain
35.0	2	124.309	0.02	652.587	2.0	2.0	17.9263	2.098	70.0	1.82	Certain	-4.47	8.7	0.0	No		-13.1746031746032				ISITrial	Gain
36.0	2	126.432	0.025	654.71	-1.18	-0.59	17.7788	3.0	70.0	1.68	Outcome2	12.5	-1.18	3335.75	Yes	2.0	-13.675736961451198	1.51	127.942		GetAnswer	Loss
36.0	2	127.97	0.028	656.248	-1.18	-0.59	17.7788	4.0	70.0	1.68	Outcome2	12.5	-1.18	3335.75	Yes		-13.675736961451198				ShowChoice	Loss
36.0	2	131.981	0.011	660.259	-1.18	-0.59	17.7788	1.0	70.0	1.68	Outcome2	12.5	-1.18	3335.75	Yes		-13.675736961451198				ShowResult	Loss
36.0	2	133.001	0.02	661.279	-1.18	-0.59	17.7788	5.156	70.0	1.68	Outcome2	12.5	-1.18	3335.75	Yes		-13.675736961451198				ISITrial	Loss
36.0	2	141.543	0.024	669.821	-1.18	-0.59	17.7788	3.166	70.0	1.68	Outcome2	12.5	-1.18	3335.75	Yes	2{-2}4{-4}2{-2}2{-2}2{-2}2{-2}	-13.675736961451198	3.166	144.709	644.0	TrialHappiness	Loss
36.0	2	145.555	4.012	673.833	-1.18	-0.59	17.7788	5.343	70.0	1.68	Outcome2	12.5	-1.18	3335.75	Yes		-13.675736961451198				ISIRate	Loss
37.0	2	150.921	0.023	679.199	-0.12	-1.0	17.7638	3.0	70.0	0.82	Outcome1	-0.12	-3.01	0.0	No	2.0	2.8869992441421	1.521	152.442		GetAnswer	Mixed
37.0	2	152.459	0.017	680.737	-0.12	-1.0	17.7638	4.0	70.0	0.82	Outcome1	-0.12	-3.01	0.0	No		2.8869992441421				ShowChoice	Mixed
37.0	2	156.471	0.012	684.749	-0.12	-1.0	17.7638	1.0	70.0	0.82	Outcome1	-0.12	-3.01	0.0	No		2.8869992441421				ShowResult	Mixed
37.0	2	157.491	0.02	685.769	-0.12	-1.0	17.7638	3.598	70.0	0.82	Outcome1	-0.12	-3.01	0.0	No		2.8869992441421				ISITrial	Mixed
38.0	2	161.119	0.03	689.397	-6.0	-6.0	17.0138	3.0	70.0	1.2	Certain	1.9	-15.17	0.0	No	4.0	-17.0725623582766	1.889	163.008		GetAnswer	Mixed
38.0	2	163.024	0.016	691.302	-6.0	-6.0	17.0138	4.0	70.0	1.2	Certain	1.9	-15.17	0.0	No		-17.0725623582766				ShowChoice	Mixed
38.0	2	167.036	0.012	695.314	-6.0	-6.0	17.0138	1.0	70.0	1.2	Certain	1.9	-15.17	0.0	No		-17.0725623582766				ShowResult	Mixed
38.0	2	168.056	0.02	696.334	-6.0	-6.0	17.0138	4.787	70.0	1.2	Certain	1.9	-15.17	0.0	No		-17.0725623582766				ISITrial	Mixed
39.0	2	172.87	0.027	701.148	-9.42	0.0	15.8363	3.0	70.0	5.0	Outcome1	-9.42	8.3	2864.25	Yes	2.0	-17.7233560090703	1.398	174.268		GetAnswer	Gain
39.0	2	174.291	0.023	702.569	-9.42	0.0	15.8363	4.0	70.0	5.0	Outcome1	-9.42	8.3	2864.25	Yes		-17.7233560090703				ShowChoice	Gain
39.0	2	178.303	0.012	706.581	-9.42	0.0	15.8363	1.0	70.0	5.0	Outcome1	-9.42	8.3	2864.25	Yes		-17.7233560090703				ShowResult	Gain
39.0	2	179.323	0.02	707.601	-9.42	0.0	15.8363	2.348	70.0	5.0	Outcome1	-9.42	8.3	2864.25	Yes		-17.7233560090703				ISITrial	Gain
39.0	2	184.589	0.028	712.867	-9.42	0.0	15.8363	0.658	70.0	5.0	Outcome1	-9.42	8.3	2864.25	Yes		-17.7233560090703			584.0	TrialHappiness	Gain
39.0	2	188.601	4.012	716.879	-9.42	0.0	15.8363	3.457	70.0	5.0	Outcome1	-9.42	8.3	2864.25	Yes		-17.7233560090703				ISIRate	Gain
40.0	2	192.078	0.02	720.356	-6.65	2.0	15.0051	3.0	70.0	1.82	Outcome1	-6.65	10.7	0.0	No	2.0	-17.353741496598598	1.119	193.197		GetAnswer	Loss
40.0	2	193.215	0.018	721.493	-6.65	2.0	15.0051	4.0	70.0	1.82	Outcome1	-6.65	10.7	0.0	No		-17.353741496598598				ShowChoice	Loss
40.0	2	197.227	0.012	725.505	-6.65	2.0	15.0051	1.0	70.0	1.82	Outcome1	-6.65	10.7	0.0	No		-17.353741496598598				ShowResult	Loss
40.0	2	198.246	0.019	726.524	-6.65	2.0	15.0051	3.158	70.0	1.82	Outcome1	-6.65	10.7	0.0	No		-17.353741496598598				ISITrial	Loss
41.0	2	201.422	0.018	729.7	-1.0	-1.0	14.8801	3.0	70.0	1.2	Certain	-0.02	-2.87	4000.0	Yes	4.0	2.85449735449735	1.317	202.739		GetAnswer	Mixed
41.0	2	202.76	0.021	731.038	-1.0	-1.0	14.8801	4.0	70.0	1.2	Certain	-0.02	-2.87	4000.0	Yes		2.85449735449735				ShowChoice	Mixed
41.0	2	206.772	0.012	735.05	-1.0	-1.0	14.8801	1.0	70.0	1.2	Certain	-0.02	-2.87	4000.0	Yes		2.85449735449735				ShowResult	Mixed
41.0	2	207.791	0.019	736.069	-1.0	-1.0	14.8801	4.506	70.0	1.2	Certain	-0.02	-2.87	4000.0	Yes		2.85449735449735				ISITrial	Mixed
41.0	2	216.35	0.028	744.628	-1.0	-1.0	14.8801	0.741	70.0	1.2	Certain	-0.02	-2.87	4000.0	Yes		2.85449735449735			632.0	TrialHappiness	Mixed
41.0	2	220.362	4.012	748.64	-1.0	-1.0	14.8801	8.0	70.0	1.2	Certain	-0.02	-2.87	4000.0	Yes		2.85449735449735				ISIRate	Mixed
42.0	2	228.386	0.024	756.664	-8.0	-8.0	13.8801	3.0	70.0	1.0	Certain	1.7	-17.64	0.0	No	4.0	-19.3356009070295	1.735	230.121		GetAnswer	Mixed
42.0	2	230.142	0.021	758.42	-8.0	-8.0	13.8801	4.0	70.0	1.0	Certain	1.7	-17.64	0.0	No		-19.3356009070295				ShowChoice	Mixed
42.0	2	234.17	0.028	762.448	-8.0	-8.0	13.8801	1.0	70.0	1.0	Certain	1.7	-17.64	0.0	No		-19.3356009070295				ShowResult	Mixed
42.0	2	235.19	0.02	763.468	-8.0	-8.0	13.8801	6.248	70.0	1.0	Certain	1.7	-17.64	0.0	No		-19.3356009070295				ISITrial	Mixed
43.0	2	241.459	0.021	769.737	-11.07	-1.0	12.4963	3.0	70.0	2.0	Outcome2	8.9	-11.07	2775.75	Yes	2.0	-19.9727891156463	1.1	242.559		GetAnswer	Gain
43.0	2	242.579	0.02	770.857	-11.07	-1.0	12.4963	4.0	70.0	2.0	Outcome2	8.9	-11.07	2775.75	Yes		-19.9727891156463				ShowChoice	Gain
43.0	2	246.591	0.012	774.869	-11.07	-1.0	12.4963	1.0	70.0	2.0	Outcome2	8.9	-11.07	2775.75	Yes		-19.9727891156463				ShowResult	Gain
43.0	2	247.611	0.02	775.889	-11.07	-1.0	12.4963	4.596	70.0	2.0	Outcome2	8.9	-11.07	2775.75	Yes		-19.9727891156463				ISITrial	Gain
43.0	2	255.016	0.016	783.294	-11.07	-1.0	12.4963	0.743	70.0	2.0	Outcome2	8.9	-11.07	2775.75	Yes		-19.9727891156463			616.0	TrialHappiness	Gain
43.0	2	259.028	4.012	787.306	-11.07	-1.0	12.4963	3.103	70.0	2.0	Outcome2	8.9	-11.07	2775.75	Yes		-19.9727891156463				ISIRate	Gain
44.0	2	262.154	0.023	790.432	-8.04	2.0	11.4913	3.0	70.0	5.0	Outcome2	12.3	-8.04	0.0	No	2.0	-20.3378684807256	1.721	263.875		GetAnswer	Loss
44.0	2	263.893	0.018	792.171	-8.04	2.0	11.4913	4.0	70.0	5.0	Outcome2	12.3	-8.04	0.0	No		-20.3378684807256				ShowChoice	Loss
44.0	2	267.905	0.012	796.183	-8.04	2.0	11.4913	1.0	70.0	5.0	Outcome2	12.3	-8.04	0.0	No		-20.3378684807256				ShowResult	Loss
44.0	2	268.924	0.019	797.202	-8.04	2.0	11.4913	2.42	70.0	5.0	Outcome2	12.3	-8.04	0.0	No		-20.3378684807256				ISITrial	Loss
45.0	2	271.365	0.021	799.643	-3.0	-3.0	11.1163	3.0	70.0	2.0	Certain	6.9	-14.06	0.0	No	4.0	-20.9569160997732	2.437	273.802		GetAnswer	Gain
45.0	2	273.822	0.02	802.1	-3.0	-3.0	11.1163	4.0	70.0	2.0	Certain	6.9	-14.06	0.0	No		-20.9569160997732				ShowChoice	Gain
45.0	2	277.834	0.012	806.112	-3.0	-3.0	11.1163	1.0	70.0	2.0	Certain	6.9	-14.06	0.0	No		-20.9569160997732				ShowResult	Gain
45.0	2	278.854	0.02	807.132	-3.0	-3.0	11.1163	3.144	70.0	2.0	Certain	6.9	-14.06	0.0	No		-20.9569160997732				ISITrial	Gain
46.0	2	282.013	0.015	810.291	-19.08	-8.0	8.7313	3.0	70.0	0.2	Outcome2	2.5	-19.08	3841.25	Yes	2.0	-21.575963718820898	1.953	283.966		GetAnswer	Mixed
46.0	2	283.986	0.02	812.264	-19.08	-8.0	8.7313	4.0	70.0	0.2	Outcome2	2.5	-19.08	3841.25	Yes		-21.575963718820898				ShowChoice	Mixed
46.0	2	287.998	0.012	816.276	-19.08	-8.0	8.7313	1.0	70.0	0.2	Outcome2	2.5	-19.08	3841.25	Yes		-21.575963718820898				ShowResult	Mixed
46.0	2	289.018	0.02	817.296	-19.08	-8.0	8.7313	2.246	70.0	0.2	Outcome2	2.5	-19.08	3841.25	Yes		-21.575963718820898				ISITrial	Mixed
46.0	2	295.153	0.021	823.431	-19.08	-8.0	8.7313	1.428	70.0	0.2	Outcome2	2.5	-19.08	3841.25	Yes		-21.575963718820898			424.0	TrialHappiness	Mixed
46.0	2	299.165	4.012	827.443	-19.08	-8.0	8.7313	7.365	70.0	0.2	Outcome2	2.5	-19.08	3841.25	Yes		-21.575963718820898				ISIRate	Mixed
47.0	2	306.553	0.023	834.831	-9.63	0.0	7.5275	3.0	70.0	2.48	Outcome2	9.3	-9.63	0.0	No	2.0	-18.9297052154195	2.091	308.644		GetAnswer	Gain
47.0	2	308.66	0.016	836.938	-9.63	0.0	7.5275	4.0	70.0	2.48	Outcome2	9.3	-9.63	0.0	No		-18.9297052154195				ShowChoice	Gain
47.0	2	312.672	0.012	840.95	-9.63	0.0	7.5275	1.0	70.0	2.48	Outcome2	9.3	-9.63	0.0	No		-18.9297052154195				ShowResult	Gain
47.0	2	313.691	0.019	841.969	-9.63	0.0	7.5275	2.0	70.0	2.48	Outcome2	9.3	-9.63	0.0	No		-18.9297052154195				ISITrial	Gain
48.0	2	315.714	0.023	843.992	1.0	1.0	7.6525	3.0	70.0	1.68	Certain	10.5	-8.83	2831.75	Yes	4.0	-19.331065759637198	1.683	317.397		GetAnswer	Loss
48.0	2	317.419	0.022	845.697	1.0	1.0	7.6525	4.0	70.0	1.68	Certain	10.5	-8.83	2831.75	Yes		-19.331065759637198				ShowChoice	Loss
48.0	2	321.431	0.012	849.709	1.0	1.0	7.6525	1.0	70.0	1.68	Certain	10.5	-8.83	2831.75	Yes		-19.331065759637198				ShowResult	Loss
48.0	2	322.451	0.02	850.729	1.0	1.0	7.6525	3.692	70.0	1.68	Certain	10.5	-8.83	2831.75	Yes		-19.331065759637198				ISITrial	Loss
48.0	2	329.021	0.027	857.299	1.0	1.0	7.6525	1.728	70.0	1.68	Certain	10.5	-8.83	2831.75	Yes		-19.331065759637198			624.0	TrialHappiness	Loss
48.0	2	333.033	4.012	861.311	1.0	1.0	7.6525	3.327	70.0	1.68	Certain	10.5	-8.83	2831.75	Yes		-19.331065759637198				ISIRate	Loss
49.0	2	336.376	0.016	864.654	2.98	1.0	8.025	3.0	70.0	3.6	Outcome1	2.98	-0.41	0.0	No	2.0	3.3934240362811803	1.672	338.048		GetAnswer	Loss
49.0	2	338.064	0.015	866.342	2.98	1.0	8.025	4.0	70.0	3.6	Outcome1	2.98	-0.41	0.0	No		3.3934240362811803				ShowChoice	Loss
49.0	2	342.076	0.012	870.354	2.98	1.0	8.025	1.0	70.0	3.6	Outcome1	2.98	-0.41	0.0	No		3.3934240362811803				ShowResult	Loss
49.0	2	343.096	0.02	871.374	2.98	1.0	8.025	8.0	70.0	3.6	Outcome1	2.98	-0.41	0.0	No		3.3934240362811803				ISITrial	Loss
50.0	2	351.12	0.024	879.398	-13.86	-2.0	6.2925	3.0	70.0	3.6	Outcome1	-13.86	9.9	3547.25	Yes	2.0	-23.761904761904802	1.929	353.049		GetAnswer	Gain
50.0	2	353.076	0.027	881.354	-13.86	-2.0	6.2925	4.0	70.0	3.6	Outcome1	-13.86	9.9	3547.25	Yes		-23.761904761904802				ShowChoice	Gain
50.0	2	357.088	0.012	885.366	-13.86	-2.0	6.2925	1.0	70.0	3.6	Outcome1	-13.86	9.9	3547.25	Yes		-23.761904761904802				ShowResult	Gain
50.0	2	358.108	0.02	886.386	-13.86	-2.0	6.2925	7.537	70.0	3.6	Outcome1	-13.86	9.9	3547.25	Yes		-23.761904761904802				ISITrial	Gain
50.0	2	369.241	0.03	897.519	-13.86	-2.0	6.2925	3.94	70.0	3.6	Outcome1	-13.86	9.9	3547.25	Yes	4{-4}2{-2}4{-4}2{-2}2{-2}2{-2}2{-2}	-23.761904761904802	3.94	373.181	416.0	TrialHappiness	Gain
50.0	2	373.253	4.012	901.531	-13.86	-2.0	6.2925	6.189	70.0	3.6	Outcome1	-13.86	9.9	3547.25	Yes		-23.761904761904802				ISIRate	Gain
51.0	2	379.471	0.029	907.749	-7.35	-3.68	5.3737	3.0	70.0	2.8	Outcome1	-7.35	13.5	0.0	No	2.0	-20.852607709750604	1.279	380.75		GetAnswer	Loss
51.0	2	380.775	0.025	909.053	-7.35	-3.68	5.3737	4.0	70.0	2.8	Outcome1	-7.35	13.5	0.0	No		-20.852607709750604				ShowChoice	Loss
51.0	2	384.787	0.012	913.065	-7.35	-3.68	5.3737	1.0	70.0	2.8	Outcome1	-7.35	13.5	0.0	No		-20.852607709750604				ShowResult	Loss
51.0	2	385.807	0.02	914.085	-7.35	-3.68	5.3737	5.508	70.0	2.8	Outcome1	-7.35	13.5	0.0	No		-20.852607709750604				ISITrial	Loss
52.0	2	391.34	0.025	919.618	1.68	0.0	5.5837	3.0	70.0	1.82	Outcome2	-1.01	1.68	0.0	No	2.0	2.6857520786092204	1.567	392.907		GetAnswer	Gain
52.0	2	392.928	0.021	921.206	1.68	0.0	5.5837	4.0	70.0	1.82	Outcome2	-1.01	1.68	0.0	No		2.6857520786092204				ShowChoice	Gain
52.0	2	396.94	0.012	925.218	1.68	0.0	5.5837	1.0	70.0	1.82	Outcome2	-1.01	1.68	0.0	No		2.6857520786092204				ShowResult	Gain
52.0	2	397.96	0.02	926.238	1.68	0.0	5.5837	5.913	70.0	1.82	Outcome2	-1.01	1.68	0.0	No		2.6857520786092204				ISITrial	Gain
53.0	2	403.894	0.021	932.172	0.0	0.0	5.5837	3.0	70.0	2.8	Certain	1.38	-1.34	2996.75	Yes	4.0	2.71844293272865	1.23	405.124		GetAnswer	Gain
53.0	2	405.148	0.024	933.426	0.0	0.0	5.5837	4.0	70.0	2.8	Certain	1.38	-1.34	2996.75	Yes		2.71844293272865				ShowChoice	Gain
53.0	2	409.16	0.012	937.438	0.0	0.0	5.5837	1.0	70.0	2.8	Certain	1.38	-1.34	2996.75	Yes		2.71844293272865				ShowResult	Gain
53.0	2	410.18	0.02	938.458	0.0	0.0	5.5837	3.66	70.0	2.8	Certain	1.38	-1.34	2996.75	Yes		2.71844293272865				ISITrial	Gain
53.0	2	416.883	0.028	945.161	0.0	0.0	5.5837	1.963	70.0	2.8	Certain	1.38	-1.34	2996.75	Yes		2.71844293272865			736.0	TrialHappiness	Gain
53.0	2	420.895	4.012	949.173	0.0	0.0	5.5837	3.987	70.0	2.8	Certain	1.38	-1.34	2996.75	Yes		2.71844293272865				ISIRate	Gain
54.0	2	424.907	0.025	953.185	-18.37	-4.0	3.2875	3.0	70.0	2.22	Outcome1	-18.37	9.1	0.0	No	2.0	-27.4716553287982	1.614	426.521		GetAnswer	Gain
54.0	2	426.546	0.025	954.824	-18.37	-4.0	3.2875	4.0	70.0	2.22	Outcome1	-18.37	9.1	0.0	No		-27.4716553287982				ShowChoice	Gain
54.0	2	430.558	0.012	958.836	-18.37	-4.0	3.2875	1.0	70.0	2.22	Outcome1	-18.37	9.1	0.0	No		-27.4716553287982				ShowResult	Gain
54.0	2	431.577	0.019	959.855	-18.37	-4.0	3.2875	8.0	70.0	2.22	Outcome1	-18.37	9.1	0.0	No		-27.4716553287982				ISITrial	Gain
	2	439.601	0.024	967.879				-0.001								{SPACE}		55.669	495.27		Rest	
	2	495.284	0.014	1023.562				4.0													BlockHappyPreview	
	2	499.296	0.012	1027.574				2.284												668.0	BlockStartHappiness	
	2	504.763	0.021	1033.041				-0.001								5.0		2.463	507.226		ScanWait	
	3	0.011	0.011	1035.515				10.0													GetReady	
55.0	3	10.041	0.03	1045.545	12.14	6.07	4.805	3.0	955.0	2.48	Outcome1	12.14	13.3	2533.25	Yes	2.0	-1.16468478671197	1.377	11.418		GetAnswer	Loss
55.0	3	11.445	0.027	1046.949	12.14	6.07	4.805	4.0	955.0	2.48	Outcome1	12.14	13.3	2533.25	Yes		-1.16468478671197				ShowChoice	Loss
55.0	3	15.457	0.012	1050.961	12.14	6.07	4.805	1.0	955.0	2.48	Outcome1	12.14	13.3	2533.25	Yes		-1.16468478671197				ShowResult	Loss
55.0	3	16.477	0.02	1051.981	12.14	6.07	4.805	7.709	955.0	2.48	Outcome1	12.14	13.3	2533.25	Yes		-1.16468478671197				ISITrial	Loss
55.0	3	26.757	0.024	1062.261	12.14	6.07	4.805	3.59	955.0	2.48	Outcome1	12.14	13.3	2533.25	Yes		-1.16468478671197			568.0	TrialHappiness	Loss
55.0	3	30.786	4.029	1066.29	12.14	6.07	4.805	2.133	955.0	2.48	Outcome1	12.14	13.3	2533.25	Yes		-1.16468478671197				ISIRate	Loss
56.0	3	32.943	0.024	1068.447	0.0	0.0	4.805	3.0	955.0	1.2	Certain	3.9	-3.0	0.0	No	4.0	6.89920724801812	1.898	34.841		GetAnswer	Mixed
56.0	3	34.865	0.024	1070.369	0.0	0.0	4.805	4.0	955.0	1.2	Certain	3.9	-3.0	0.0	No		6.89920724801812				ShowChoice	Mixed
56.0	3	38.877	0.012	1074.381	0.0	0.0	4.805	1.0	955.0	1.2	Certain	3.9	-3.0	0.0	No		6.89920724801812				ShowResult	Mixed
56.0	3	39.897	0.02	1075.401	0.0	0.0	4.805	4.697	955.0	1.2	Certain	3.9	-3.0	0.0	No		6.89920724801812				ISITrial	Mixed
57.0	3	44.611	0.017	1080.115	4.3	0.0	5.3425	3.0	955.0	2.0	Outcome1	4.3	-3.04	0.0	No	2.0	7.33748584371461	1.368	45.979		GetAnswer	Mixed
57.0	3	45.998	0.019	1081.502	4.3	0.0	5.3425	4.0	955.0	2.0	Outcome1	4.3	-3.04	0.0	No		7.33748584371461				ShowChoice	Mixed
57.0	3	50.01	0.012	1085.514	4.3	0.0	5.3425	1.0	955.0	2.0	Outcome1	4.3	-3.04	0.0	No		7.33748584371461				ShowResult	Mixed
57.0	3	51.03	0.02	1086.534	4.3	0.0	5.3425	4.291	955.0	2.0	Outcome1	4.3	-3.04	0.0	No		7.33748584371461				ISITrial	Mixed
58.0	3	55.343	0.022	1090.847	3.7	0.0	5.805	3.0	955.0	1.0	Outcome1	3.7	-4.08	3045.75	Yes	2.0	7.7757644394111	1.507	56.85		GetAnswer	Mixed
58.0	3	56.864	0.014	1092.368	3.7	0.0	5.805	4.0	955.0	1.0	Outcome1	3.7	-4.08	3045.75	Yes		7.7757644394111				ShowChoice	Mixed
58.0	3	60.876	0.012	1096.38	3.7	0.0	5.805	1.0	955.0	1.0	Outcome1	3.7	-4.08	3045.75	Yes		7.7757644394111				ShowResult	Mixed
58.0	3	61.896	0.02	1097.4	3.7	0.0	5.805	2.037	955.0	1.0	Outcome1	3.7	-4.08	3045.75	Yes		7.7757644394111				ISITrial	Mixed
58.0	3	67.028	0.03	1102.532	3.7	0.0	5.805	0.808	955.0	1.0	Outcome1	3.7	-4.08	3045.75	Yes		7.7757644394111			672.0	TrialHappiness	Mixed
58.0	3	71.057	4.029	1106.561	3.7	0.0	5.805	4.183	955.0	1.0	Outcome1	3.7	-4.08	3045.75	Yes		7.7757644394111				ISIRate	Mixed
59.0	3	75.269	0.029	1110.773	11.3	2.42	7.2175	3.0	955.0	2.48	Outcome2	4.85	11.3	0.0	No	2.0	6.447338618346549	1.125	76.394		GetAnswer	Loss
59.0	3	76.423	0.029	1111.927	11.3	2.42	7.2175	4.0	955.0	2.48	Outcome2	4.85	11.3	0.0	No		6.447338618346549				ShowChoice	Loss
59.0	3	80.435	0.012	1115.939	11.3	2.42	7.2175	1.0	955.0	2.48	Outcome2	4.85	11.3	0.0	No		6.447338618346549				ShowResult	Loss
59.0	3	81.454	0.019	1116.958	11.3	2.42	7.2175	5.064	955.0	2.48	Outcome2	4.85	11.3	0.0	No		6.447338618346549				ISITrial	Loss
60.0	3	86.536	0.018	1122.04	5.1	1.0	7.855	3.0	955.0	2.22	Outcome2	-1.67	5.1	3562.5	Yes	2.0	6.767836919592299	1.393	87.929		GetAnswer	Gain
60.0	3	87.957	0.028	1123.461	5.1	1.0	7.855	4.0	955.0	2.22	Outcome2	-1.67	5.1	3562.5	Yes		6.767836919592299				ShowChoice	Gain
60.0	3	91.969	0.012	1127.473	5.1	1.0	7.855	1.0	955.0	2.22	Outcome2	-1.67	5.1	3562.5	Yes		6.767836919592299				ShowResult	Gain
60.0	3	92.989	0.02	1128.493	5.1	1.0	7.855	8.0	955.0	2.22	Outcome2	-1.67	5.1	3562.5	Yes		6.767836919592299				ISITrial	Gain
60.0	3	104.59	0.015	1140.094	5.1	1.0	7.855	1.561	955.0	2.22	Outcome2	-1.67	5.1	3562.5	Yes		6.767836919592299			768.0	TrialHappiness	Gain
60.0	3	108.602	4.012	1144.106	5.1	1.0	7.855	6.25	955.0	2.22	Outcome2	-1.67	5.1	3562.5	Yes		6.767836919592299				ISIRate	Gain
61.0	3	114.871	0.019	1150.375	12.9	3.72	9.4675	3.0	955.0	2.0	Outcome2	7.44	12.9	0.0	No	2.0	5.45753114382786	1.226	116.097		GetAnswer	Loss
61.0	3	116.108	0.011	1151.612	12.9	3.72	9.4675	4.0	955.0	2.0	Outcome2	7.44	12.9	0.0	No		5.45753114382786				ShowChoice	Loss
61.0	3	120.12	0.012	1155.624	12.9	3.72	9.4675	1.0	955.0	2.0	Outcome2	7.44	12.9	0.0	No		5.45753114382786				ShowResult	Loss
61.0	3	121.14	0.02	1156.644	12.9	3.72	9.4675	4.586	955.0	2.0	Outcome2	7.44	12.9	0.0	No		5.45753114382786				ISITrial	Loss
62.0	3	125.753	0.027	1161.257	-1.0	-1.0	9.3425	3.0	955.0	0.82	Certain	-4.17	1.5	3748.75	Yes	4.0	5.6693091732729295	1.507	127.26		GetAnswer	Mixed
62.0	3	127.275	0.015	1162.779	-1.0	-1.0	9.3425	4.0	955.0	0.82	Certain	-4.17	1.5	3748.75	Yes		5.6693091732729295				ShowChoice	Mixed
62.0	3	131.287	0.012	1166.791	-1.0	-1.0	9.3425	1.0	955.0	0.82	Certain	-4.17	1.5	3748.75	Yes		5.6693091732729295				ShowResult	Mixed
62.0	3	132.306	0.019	1167.81	-1.0	-1.0	9.3425	5.212	955.0	0.82	Certain	-4.17	1.5	3748.75	Yes		5.6693091732729295				ISITrial	Mixed
62.0	3	141.317	0.029	1176.821	-1.0	-1.0	9.3425	2.43	955.0	0.82	Certain	-4.17	1.5	3748.75	Yes		5.6693091732729295			704.0	TrialHappiness	Mixed
62.0	3	145.329	4.012	1180.833	-1.0	-1.0	9.3425	6.995	955.0	0.82	Certain	-4.17	1.5	3748.75	Yes		5.6693091732729295				ISIRate	Mixed
63.0	3	152.35	0.026	1187.854	5.7	2.0	10.055	3.0	955.0	3.16	Outcome2	-1.27	5.7	0.0	No	2.0	6.9682899207248	1.215	153.565		GetAnswer	Gain
63.0	3	153.587	0.022	1189.091	5.7	2.0	10.055	4.0	955.0	3.16	Outcome2	-1.27	5.7	0.0	No		6.9682899207248				ShowChoice	Gain
63.0	3	157.599	0.012	1193.103	5.7	2.0	10.055	1.0	955.0	3.16	Outcome2	-1.27	5.7	0.0	No		6.9682899207248				ShowResult	Gain
63.0	3	158.618	0.019	1194.122	5.7	2.0	10.055	5.595	955.0	3.16	Outcome2	-1.27	5.7	0.0	No		6.9682899207248				ISITrial	Gain
64.0	3	164.235	0.022	1199.739	6.5	-0.38	10.8675	3.0	955.0	1.68	Outcome1	6.5	-0.75	0.0	No	2.0	7.25254813137033	1.08	165.315		GetAnswer	Gain
64.0	3	165.338	0.023	1200.842	6.5	-0.38	10.8675	4.0	955.0	1.68	Outcome1	6.5	-0.75	0.0	No		7.25254813137033				ShowChoice	Gain
64.0	3	169.35	0.012	1204.854	6.5	-0.38	10.8675	1.0	955.0	1.68	Outcome1	6.5	-0.75	0.0	No		7.25254813137033				ShowResult	Gain
64.0	3	170.37	0.02	1205.874	6.5	-0.38	10.8675	5.47	955.0	1.68	Outcome1	6.5	-0.75	0.0	No		7.25254813137033				ISITrial	Gain
65.0	3	175.87	0.03	1211.374	-3.0	-3.0	10.4925	3.0	955.0	1.5	Certain	-7.44	0.1	2996.75	Yes	4.0	7.53680634201586	1.744	177.614		GetAnswer	Mixed
65.0	3	177.625	0.011	1213.129	-3.0	-3.0	10.4925	4.0	955.0	1.5	Certain	-7.44	0.1	2996.75	Yes		7.53680634201586				ShowChoice	Mixed
65.0	3	181.637	0.012	1217.141	-3.0	-3.0	10.4925	1.0	955.0	1.5	Certain	-7.44	0.1	2996.75	Yes		7.53680634201586				ShowResult	Mixed
65.0	3	182.657	0.02	1218.161	-3.0	-3.0	10.4925	3.344	955.0	1.5	Certain	-7.44	0.1	2996.75	Yes		7.53680634201586				ISITrial	Mixed
65.0	3	189.043	0.029	1224.547	-3.0	-3.0	10.4925	0.96	955.0	1.5	Certain	-7.44	0.1	2996.75	Yes		7.53680634201586			568.0	TrialHappiness	Mixed
65.0	3	193.055	4.012	1228.559	-3.0	-3.0	10.4925	3.987	955.0	1.5	Certain	-7.44	0.1	2996.75	Yes		7.53680634201586				ISIRate	Mixed
66.0	3	197.067	0.025	1232.571	0.0	0.0	10.4925	3.0	955.0	1.82	Certain	4.7	-5.43	0.0	No	4.0	10.1313703284258	1.827	198.894		GetAnswer	Gain
66.0	3	198.905	0.011	1234.409	0.0	0.0	10.4925	4.0	955.0	1.82	Certain	4.7	-5.43	0.0	No		10.1313703284258				ShowChoice	Gain
66.0	3	202.917	0.012	1238.421	0.0	0.0	10.4925	1.0	955.0	1.82	Certain	4.7	-5.43	0.0	No		10.1313703284258				ShowResult	Gain
66.0	3	203.937	0.02	1239.441	0.0	0.0	10.4925	3.959	955.0	1.82	Certain	4.7	-5.43	0.0	No		10.1313703284258				ISITrial	Gain
67.0	3	207.916	0.02	1243.42	7.7	2.0	11.455	3.0	955.0	3.16	Outcome1	7.7	-2.87	2918.5	Yes	2.0	10.569648924122301	1.485	209.401		GetAnswer	Gain
67.0	3	209.42	0.019	1244.924	7.7	2.0	11.455	4.0	955.0	3.16	Outcome1	7.7	-2.87	2918.5	Yes		10.569648924122301				ShowChoice	Gain
67.0	3	213.432	0.012	1248.936	7.7	2.0	11.455	1.0	955.0	3.16	Outcome1	7.7	-2.87	2918.5	Yes		10.569648924122301				ShowResult	Gain
67.0	3	214.452	0.02	1249.956	7.7	2.0	11.455	4.199	955.0	3.16	Outcome1	7.7	-2.87	2918.5	Yes		10.569648924122301				ISITrial	Gain
67.0	3	221.607	0.024	1257.111	7.7	2.0	11.455	1.36	955.0	3.16	Outcome1	7.7	-2.87	2918.5	Yes	2{-2}	10.569648924122301	1.36	222.967	688.0	TrialHappiness	Gain
67.0	3	225.619	4.012	1261.123	7.7	2.0	11.455	3.674	955.0	3.16	Outcome1	7.7	-2.87	2918.5	Yes		10.569648924122301				ISIRate	Gain
68.0	3	229.313	0.02	1264.817	8.5	-0.24	12.5175	3.0	955.0	1.68	Outcome2	-0.47	8.5	0.0	No	2.0	8.969422423556061	1.661	230.974		GetAnswer	Gain
68.0	3	231.001	0.027	1266.505	8.5	-0.24	12.5175	4.0	955.0	1.68	Outcome2	-0.47	8.5	0.0	No		8.969422423556061				ShowChoice	Gain
68.0	3	235.013	0.012	1270.517	8.5	-0.24	12.5175	1.0	955.0	1.68	Outcome2	-0.47	8.5	0.0	No		8.969422423556061				ShowResult	Gain
68.0	3	236.033	0.02	1271.537	8.5	-0.24	12.5175	2.185	955.0	1.68	Outcome2	-0.47	8.5	0.0	No		8.969422423556061				ISITrial	Gain
69.0	3	238.24	0.022	1273.744	0.7	-4.0	12.605	3.0	955.0	0.3	Outcome2	-8.57	0.7	0.0	No	2.0	9.2718006795017	1.977	240.217		GetAnswer	Mixed
69.0	3	240.229	0.012	1275.733	0.7	-4.0	12.605	4.0	955.0	0.3	Outcome2	-8.57	0.7	0.0	No		9.2718006795017				ShowChoice	Mixed
69.0	3	244.241	0.012	1279.745	0.7	-4.0	12.605	1.0	955.0	0.3	Outcome2	-8.57	0.7	0.0	No		9.2718006795017				ShowResult	Mixed
69.0	3	245.261	0.02	1280.765	0.7	-4.0	12.605	2.0	955.0	0.3	Outcome2	-8.57	0.7	0.0	No		9.2718006795017				ISITrial	Mixed
70.0	3	247.283	0.022	1282.787	-2.0	-2.0	12.355	3.0	955.0	2.0	Certain	-7.27	2.3	3651.25	Yes	4.0	9.57417893544734	1.806	249.089		GetAnswer	Mixed
70.0	3	249.106	0.017	1284.61	-2.0	-2.0	12.355	4.0	955.0	2.0	Certain	-7.27	2.3	3651.25	Yes		9.57417893544734				ShowChoice	Mixed
70.0	3	253.118	0.012	1288.622	-2.0	-2.0	12.355	1.0	955.0	2.0	Certain	-7.27	2.3	3651.25	Yes		9.57417893544734				ShowResult	Mixed
70.0	3	254.137	0.019	1289.641	-2.0	-2.0	12.355	2.623	955.0	2.0	Certain	-7.27	2.3	3651.25	Yes		9.57417893544734				ISITrial	Mixed
70.0	3	260.456	0.026	1295.96	-2.0	-2.0	12.355	0.959	955.0	2.0	Certain	-7.27	2.3	3651.25	Yes		9.57417893544734			672.0	TrialHappiness	Mixed
70.0	3	264.468	4.012	1299.972	-2.0	-2.0	12.355	6.605	955.0	2.0	Certain	-7.27	2.3	3651.25	Yes		9.57417893544734				ISIRate	Mixed
71.0	3	271.105	0.032	1306.609	2.7	-2.0	12.6925	3.0	955.0	0.3	Outcome2	-7.45	2.7	0.0	No	2.0	10.1483578708947	1.998	273.103		GetAnswer	Mixed
71.0	3	273.127	0.024	1308.631	2.7	-2.0	12.6925	4.0	955.0	0.3	Outcome2	-7.45	2.7	0.0	No		10.1483578708947				ShowChoice	Mixed
71.0	3	277.139	0.012	1312.643	2.7	-2.0	12.6925	1.0	955.0	0.3	Outcome2	-7.45	2.7	0.0	No		10.1483578708947				ShowResult	Mixed
71.0	3	278.159	0.02	1313.663	2.7	-2.0	12.6925	5.499	955.0	0.3	Outcome2	-7.45	2.7	0.0	No		10.1483578708947				ISITrial	Mixed
72.0	3	283.676	0.018	1319.18	11.08	5.54	14.0775	3.0	955.0	1.82	Outcome1	11.08	12.7	3080.5	Yes	2.0	-1.6202340505851298	1.443	285.119		GetAnswer	Loss
72.0	3	285.147	0.028	1320.651	11.08	5.54	14.0775	4.0	955.0	1.82	Outcome1	11.08	12.7	3080.5	Yes		-1.6202340505851298				ShowChoice	Loss
72.0	3	289.159	0.012	1324.663	11.08	5.54	14.0775	1.0	955.0	1.82	Outcome1	11.08	12.7	3080.5	Yes		-1.6202340505851298				ShowResult	Loss
72.0	3	290.178	0.019	1325.682	11.08	5.54	14.0775	5.672	955.0	1.82	Outcome1	11.08	12.7	3080.5	Yes		-1.6202340505851298				ISITrial	Loss
72.0	3	298.971	0.029	1334.475	11.08	5.54	14.0775	3.457	955.0	1.82	Outcome1	11.08	12.7	3080.5	Yes		-1.6202340505851298			748.0	TrialHappiness	Loss
72.0	3	302.983	4.012	1338.487	11.08	5.54	14.0775	4.322	955.0	1.82	Outcome1	11.08	12.7	3080.5	Yes		-1.6202340505851298				ISIRate	Loss
73.0	3	307.33	0.025	1342.834	1.0	1.0	14.2025	3.0	955.0	3.6	Certain	5.9	-3.6	0.0	No	4.0	9.498301245753119	2.013	309.343		GetAnswer	Gain
73.0	3	309.369	0.026	1344.873	1.0	1.0	14.2025	4.0	955.0	3.6	Certain	5.9	-3.6	0.0	No		9.498301245753119				ShowChoice	Gain
73.0	3	313.381	0.012	1348.885	1.0	1.0	14.2025	1.0	955.0	3.6	Certain	5.9	-3.6	0.0	No		9.498301245753119				ShowResult	Gain
73.0	3	314.401	0.02	1349.905	1.0	1.0	14.2025	4.616	955.0	3.6	Certain	5.9	-3.6	0.0	No		9.498301245753119				ISITrial	Gain
74.0	3	319.048	0.031	1354.552	9.7	-0.02	15.415	3.0	955.0	3.16	Outcome1	9.7	-0.03	3056.25	Yes	2.0	9.73272933182333	1.117	320.165		GetAnswer	Gain
74.0	3	320.185	0.02	1355.689	9.7	-0.02	15.415	4.0	955.0	3.16	Outcome1	9.7	-0.03	3056.25	Yes		9.73272933182333				ShowChoice	Gain
74.0	3	324.197	0.012	1359.701	9.7	-0.02	15.415	1.0	955.0	3.16	Outcome1	9.7	-0.03	3056.25	Yes		9.73272933182333				ShowResult	Gain
74.0	3	325.216	0.019	1360.72	9.7	-0.02	15.415	3.909	955.0	3.16	Outcome1	9.7	-0.03	3056.25	Yes		9.73272933182333				ISITrial	Gain
74.0	3	332.221	0.02	1367.725	9.7	-0.02	15.415	2.465	955.0	3.16	Outcome1	9.7	-0.03	3056.25	Yes	2{-2}2{-2}4{-4}	9.73272933182333	2.465	334.686	704.0	TrialHappiness	Gain
74.0	3	336.233	4.012	1371.737	9.7	-0.02	15.415	4.225	955.0	3.16	Outcome1	9.7	-0.03	3056.25	Yes		9.73272933182333				ISIRate	Gain
75.0	3	340.479	0.021	1375.983	11.1	0.2	16.8025	3.0	955.0	2.22	Outcome1	11.1	0.39	0.0	No	2.0	10.7146092865232	1.443	341.922		GetAnswer	Loss
75.0	3	341.933	0.011	1377.437	11.1	0.2	16.8025	4.0	955.0	2.22	Outcome1	11.1	0.39	0.0	No		10.7146092865232				ShowChoice	Loss
75.0	3	345.945	0.012	1381.449	11.1	0.2	16.8025	1.0	955.0	2.22	Outcome1	11.1	0.39	0.0	No		10.7146092865232				ShowResult	Loss
75.0	3	346.965	0.02	1382.469	11.1	0.2	16.8025	4.979	955.0	2.22	Outcome1	11.1	0.39	0.0	No		10.7146092865232				ISITrial	Loss
76.0	3	351.963	0.019	1387.467	11.7	0.35	18.265	3.0	955.0	3.16	Outcome1	11.7	0.7	0.0	No	2.0	10.998867497168698	1.593	353.556		GetAnswer	Loss
76.0	3	353.568	0.012	1389.072	11.7	0.35	18.265	4.0	955.0	3.16	Outcome1	11.7	0.7	0.0	No		10.998867497168698				ShowChoice	Loss
76.0	3	357.58	0.012	1393.084	11.7	0.35	18.265	1.0	955.0	3.16	Outcome1	11.7	0.7	0.0	No		10.998867497168698				ShowResult	Loss
76.0	3	358.6	0.02	1394.104	11.7	0.35	18.265	3.931	955.0	3.16	Outcome1	11.7	0.7	0.0	No		10.998867497168698				ISITrial	Loss
77.0	3	362.561	0.03	1398.065	12.1	0.41	19.7775	3.0	955.0	4.2	Outcome2	0.82	12.1	4000.0	Yes	2.0	11.2831257078143	1.719	364.28		GetAnswer	Loss
77.0	3	364.3	0.02	1399.804	12.1	0.41	19.7775	4.0	955.0	4.2	Outcome2	0.82	12.1	4000.0	Yes		11.2831257078143				ShowChoice	Loss
77.0	3	368.312	0.012	1403.816	12.1	0.41	19.7775	1.0	955.0	4.2	Outcome2	0.82	12.1	4000.0	Yes		11.2831257078143				ShowResult	Loss
77.0	3	369.332	0.02	1404.836	12.1	0.41	19.7775	7.022	955.0	4.2	Outcome2	0.82	12.1	4000.0	Yes		11.2831257078143				ISITrial	Loss
77.0	3	380.398	0.029	1415.902	12.1	0.41	19.7775	1.595	955.0	4.2	Outcome2	0.82	12.1	4000.0	Yes		11.2831257078143			720.0	TrialHappiness	Loss
77.0	3	384.41	4.012	1419.914	12.1	0.41	19.7775	8.0	955.0	4.2	Outcome2	0.82	12.1	4000.0	Yes		11.2831257078143				ISIRate	Loss
78.0	3	392.434	0.024	1427.938	-4.0	-4.0	19.2775	3.0	955.0	0.66	Certain	1.3	-10.0	0.0	No	4.0	11.295583238958098	1.3	393.734		GetAnswer	Mixed
78.0	3	393.755	0.021	1429.259	-4.0	-4.0	19.2775	4.0	955.0	0.66	Certain	1.3	-10.0	0.0	No		11.295583238958098				ShowChoice	Mixed
78.0	3	397.767	0.012	1433.271	-4.0	-4.0	19.2775	1.0	955.0	0.66	Certain	1.3	-10.0	0.0	No		11.295583238958098				ShowResult	Mixed
78.0	3	398.786	0.019	1434.29	-4.0	-4.0	19.2775	2.078	955.0	0.66	Certain	1.3	-10.0	0.0	No		11.295583238958098				ISITrial	Mixed
79.0	3	400.893	0.029	1436.397	10.5	-0.53	20.59	3.0	955.0	1.68	Outcome2	-1.06	10.5	2729.5	Yes	2.0	11.561721404303501	1.736	402.629		GetAnswer	Loss
79.0	3	402.648	0.019	1438.152	10.5	-0.53	20.59	4.0	955.0	1.68	Outcome2	-1.06	10.5	2729.5	Yes		11.561721404303501				ShowChoice	Loss
79.0	3	406.66	0.012	1442.164	10.5	-0.53	20.59	1.0	955.0	1.68	Outcome2	-1.06	10.5	2729.5	Yes		11.561721404303501				ShowResult	Loss
79.0	3	407.68	0.02	1443.184	10.5	-0.53	20.59	3.829	955.0	1.68	Outcome2	-1.06	10.5	2729.5	Yes		11.561721404303501				ISITrial	Loss
79.0	3	414.283	0.028	1449.787	10.5	-0.53	20.59	1.276	955.0	1.68	Outcome2	-1.06	10.5	2729.5	Yes	2{-2}	11.561721404303501	1.276	415.559	792.0	TrialHappiness	Loss
79.0	3	418.295	4.012	1453.799	10.5	-0.53	20.59	2.918	955.0	1.68	Outcome2	-1.06	10.5	2729.5	Yes		11.561721404303501				ISIRate	Loss
80.0	3	421.237	0.024	1456.741	-2.0	-2.0	20.34	3.0	955.0	0.82	Certain	-7.1	3.5	0.0	No	4.0	10.604756511891301	1.661	422.898		GetAnswer	Mixed
80.0	3	422.909	0.011	1458.413	-2.0	-2.0	20.34	4.0	955.0	0.82	Certain	-7.1	3.5	0.0	No		10.604756511891301				ShowChoice	Mixed
80.0	3	426.921	0.012	1462.425	-2.0	-2.0	20.34	1.0	955.0	0.82	Certain	-7.1	3.5	0.0	No		10.604756511891301				ShowResult	Mixed
80.0	3	427.94	0.019	1463.444	-2.0	-2.0	20.34	3.336	955.0	0.82	Certain	-7.1	3.5	0.0	No		10.604756511891301				ISITrial	Mixed
81.0	3	431.3	0.024	1466.804	-5.0	-5.0	19.715	3.0	955.0	0.2	Certain	0.5	-10.29	3923.75	Yes	4.0	10.789354473386199	1.447	432.747		GetAnswer	Mixed
81.0	3	432.771	0.023	1468.275	-5.0	-5.0	19.715	4.0	955.0	0.2	Certain	0.5	-10.29	3923.75	Yes		10.789354473386199				ShowChoice	Mixed
81.0	3	436.783	0.012	1472.287	-5.0	-5.0	19.715	1.0	955.0	0.2	Certain	0.5	-10.29	3923.75	Yes		10.789354473386199				ShowResult	Mixed
81.0	3	437.803	0.02	1473.307	-5.0	-5.0	19.715	3.919	955.0	0.2	Certain	0.5	-10.29	3923.75	Yes		10.789354473386199				ISITrial	Mixed
81.0	3	445.693	0.021	1481.197	-5.0	-5.0	19.715	1.828	955.0	0.2	Certain	0.5	-10.29	3923.75	Yes		10.789354473386199			760.0	TrialHappiness	Mixed
81.0	3	449.705	4.012	1485.209	-5.0	-5.0	19.715	7.695	955.0	0.2	Certain	0.5	-10.29	3923.75	Yes		10.789354473386199				ISIRate	Mixed
	3	457.428	0.028	1492.932				3.0													CurrentEarnings	
	3	460.454	0.026	1495.958				-0.001								{SPACE}		1.723	462.177		Goodbye	
