trial_number	block	onset	onset_delay	onset_unadjusted	amount_change	certain_amount	current_amount	duration	mood_target	multiplier	outcome	outcome1_amount	outcome2_amount	question_duration	rating	response	rpe	rt	rt_time	slider_response	trial_phase	trial_type
	0	-47.533	0.022	14.309				-0.001								{SPACE}		4.392	-43.141		Welcome	
	0	-43.12	0.021	18.722				5.0													LifeHappyPreview	
	0	-38.088	0.032	23.754				3.719								2{-2}4{-4}		3.719	-34.369	848.0	LifeHappiness	
	0	-13.632	0.021	48.21				4.0													BlockHappyPreview	
	0	-9.62	0.012	52.222				2.006								2{-2}2{-2}		2.006	-7.614	688.0	BlockStartHappiness	
	0	-1.094	0.016	60.748				-0.001								5.0					ScanWait	
	1	0.026	0.026	61.868				10.0													GetReady	
1.0	1	10.056	0.03	71.898	-1.0	-1.0	9.875	3.0	955.0	0.4	Certain	-2.18	-1.1	0.0	No	4.0	-1.08352208380521	2.679	12.735		GetAnswer	Mixed
1.0	1	12.747	0.012	74.589	-1.0	-1.0	9.875	4.0	955.0	0.4	Certain	-2.18	-1.1	0.0	No		-1.08352208380521				ShowChoice	Mixed
1.0	1	16.759	0.012	78.601	-1.0	-1.0	9.875	1.0	955.0	0.4	Certain	-2.18	-1.1	0.0	No		-1.08352208380521				ShowResult	Mixed
1.0	1	17.779	0.02	79.621	-1.0	-1.0	9.875	2.431	955.0	0.4	Certain	-2.18	-1.1	0.0	No		-1.08352208380521				ISITrial	Mixed
2.0	1	20.236	0.026	82.078	-1.0	-1.0	9.75	3.0	955.0	0.52	Certain	-3.74	1.1	0.0	No	4.0	4.83805209513024	1.907	22.143		GetAnswer	Mixed
2.0	1	22.159	0.016	84.001	-1.0	-1.0	9.75	4.0	955.0	0.52	Certain	-3.74	1.1	0.0	No		4.83805209513024				ShowChoice	Mixed
2.0	1	26.171	0.012	88.013	-1.0	-1.0	9.75	1.0	955.0	0.52	Certain	-3.74	1.1	0.0	No		4.83805209513024				ShowResult	Mixed
2.0	1	27.191	0.02	89.033	-1.0	-1.0	9.75	4.568	955.0	0.52	Certain	-3.74	1.1	0.0	No		4.83805209513024				ISITrial	Mixed
3.0	1	31.788	0.029	93.63	-0.3	-3.0	9.7125	3.0	955.0	1.0	Outcome1	-0.3	-5.44	2868.0	Yes	2.0	5.14043035107588	2.915	34.703		GetAnswer	Mixed
3.0	1	34.73	0.027	96.572	-0.3	-3.0	9.7125	4.0	955.0	1.0	Outcome1	-0.3	-5.44	2868.0	Yes		5.14043035107588				ShowChoice	Mixed
3.0	1	38.742	0.012	100.584	-0.3	-3.0	9.7125	1.0	955.0	1.0	Outcome1	-0.3	-5.44	2868.0	Yes		5.14043035107588				ShowResult	Mixed
3.0	1	39.762	0.02	101.604	-0.3	-3.0	9.7125	3.243	955.0	1.0	Outcome1	-0.3	-5.44	2868.0	Yes		5.14043035107588				ISITrial	Mixed
3.0	1	45.913	0.024	107.755	-0.3	-3.0	9.7125	3.685	955.0	1.0	Outcome1	-0.3	-5.44	2868.0	Yes		5.14043035107588			712.0	TrialHappiness	Mixed
3.0	1	49.925	4.012	111.767	-0.3	-3.0	9.7125	3.472	955.0	1.0	Outcome1	-0.3	-5.44	2868.0	Yes		5.14043035107588				ISIRate	Mixed
4.0	1	53.419	0.022	115.261	5.5	0.23	10.4	3.0	955.0	2.8	Outcome1	5.5	0.46	0.0	No	2.0	5.0351075877689695	1.884	55.303		GetAnswer	Gain
4.0	1	55.325	0.022	117.167	5.5	0.23	10.4	4.0	955.0	2.8	Outcome1	5.5	0.46	0.0	No		5.0351075877689695				ShowChoice	Gain
4.0	1	59.337	0.012	121.179	5.5	0.23	10.4	1.0	955.0	2.8	Outcome1	5.5	0.46	0.0	No		5.0351075877689695				ShowResult	Gain
4.0	1	60.357	0.02	122.199	5.5	0.23	10.4	2.011	955.0	2.8	Outcome1	5.5	0.46	0.0	No		5.0351075877689695				ISITrial	Gain
5.0	1	62.396	0.028	124.238	13.3	4.0	12.0625	3.0	955.0	2.48	Outcome2	7.99	13.3	2582.5	Yes	2.0	5.310305775764441	1.69	64.086		GetAnswer	Loss
5.0	1	64.101	0.015	125.943	13.3	4.0	12.0625	4.0	955.0	2.48	Outcome2	7.99	13.3	2582.5	Yes		5.310305775764441				ShowChoice	Loss
5.0	1	68.113	0.012	129.955	13.3	4.0	12.0625	1.0	955.0	2.48	Outcome2	7.99	13.3	2582.5	Yes		5.310305775764441				ShowResult	Loss
5.0	1	69.133	0.02	130.975	13.3	4.0	12.0625	5.129	955.0	2.48	Outcome2	7.99	13.3	2582.5	Yes		5.310305775764441				ISITrial	Loss
5.0	1	76.889	0.025	138.731	13.3	4.0	12.0625	1.411	955.0	2.48	Outcome2	7.99	13.3	2582.5	Yes		5.310305775764441			768.0	TrialHappiness	Loss
5.0	1	80.901	4.012	142.743	13.3	4.0	12.0625	2.33	955.0	2.48	Outcome2	7.99	13.3	2582.5	Yes		5.310305775764441				ISIRate	Loss
6.0	1	83.258	0.027	145.1	12.1	3.74	13.575	3.0	955.0	4.2	Outcome1	12.1	7.47	0.0	No	2.0	4.63420158550396	0.975	84.233		GetAnswer	Loss
6.0	1	84.245	0.012	146.087	12.1	3.74	13.575	4.0	955.0	4.2	Outcome1	12.1	7.47	0.0	No		4.63420158550396				ShowChoice	Loss
6.0	1	88.257	0.012	150.099	12.1	3.74	13.575	1.0	955.0	4.2	Outcome1	12.1	7.47	0.0	No		4.63420158550396				ShowResult	Loss
6.0	1	89.276	0.019	151.118	12.1	3.74	13.575	6.232	955.0	4.2	Outcome1	12.1	7.47	0.0	No		4.63420158550396				ISITrial	Loss
7.0	1	95.528	0.02	157.37	11.9	3.52	15.0625	3.0	955.0	3.6	Outcome2	7.05	11.9	0.0	No	2.0	4.84597961494904	1.333	96.861		GetAnswer	Loss
7.0	1	96.883	0.022	158.725	11.9	3.52	15.0625	4.0	955.0	3.6	Outcome2	7.05	11.9	0.0	No		4.84597961494904				ShowChoice	Loss
7.0	1	100.895	0.012	162.737	11.9	3.52	15.0625	1.0	955.0	3.6	Outcome2	7.05	11.9	0.0	No		4.84597961494904				ShowResult	Loss
7.0	1	101.914	0.019	163.756	11.9	3.52	15.0625	2.305	955.0	3.6	Outcome2	7.05	11.9	0.0	No		4.84597961494904				ISITrial	Loss
8.0	1	104.238	0.019	166.08	-3.0	-3.0	14.6875	3.0	955.0	0.66	Certain	-0.7	-5.76	3112.5	Yes	4.0	5.05775764439411	2.392	106.63		GetAnswer	Mixed
8.0	1	106.645	0.015	168.487	-3.0	-3.0	14.6875	4.0	955.0	0.66	Certain	-0.7	-5.76	3112.5	Yes		5.05775764439411				ShowChoice	Mixed
8.0	1	110.657	0.012	172.499	-3.0	-3.0	14.6875	1.0	955.0	0.66	Certain	-0.7	-5.76	3112.5	Yes		5.05775764439411				ShowResult	Mixed
8.0	1	111.677	0.02	173.519	-3.0	-3.0	14.6875	3.506	955.0	0.66	Certain	-0.7	-5.76	3112.5	Yes		5.05775764439411				ISITrial	Mixed
8.0	1	118.33	0.014	180.172	-3.0	-3.0	14.6875	1.478	955.0	0.66	Certain	-0.7	-5.76	3112.5	Yes		5.05775764439411			768.0	TrialHappiness	Mixed
8.0	1	122.342	4.012	184.184	-3.0	-3.0	14.6875	4.45	955.0	0.66	Certain	-0.7	-5.76	3112.5	Yes		5.05775764439411				ISIRate	Mixed
9.0	1	126.822	0.03	188.664	13.9	4.32	16.425	3.0	955.0	3.6	Outcome1	13.9	8.63	0.0	No	2.0	5.26953567383918	1.01	127.832		GetAnswer	Loss
9.0	1	127.859	0.027	189.701	13.9	4.32	16.425	4.0	955.0	3.6	Outcome1	13.9	8.63	0.0	No		5.26953567383918				ShowChoice	Loss
9.0	1	131.871	0.012	193.713	13.9	4.32	16.425	1.0	955.0	3.6	Outcome1	13.9	8.63	0.0	No		5.26953567383918				ShowResult	Loss
9.0	1	132.89	0.019	194.732	13.9	4.32	16.425	2.0	955.0	3.6	Outcome1	13.9	8.63	0.0	No		5.26953567383918				ISITrial	Loss
10.0	1	134.913	0.023	196.755	8.1	1.31	17.4375	3.0	955.0	4.2	Outcome1	8.1	2.62	4000.0	Yes	2.0	5.48131370328426	1.428	136.341		GetAnswer	Gain
10.0	1	136.367	0.025	198.209	8.1	1.31	17.4375	4.0	955.0	4.2	Outcome1	8.1	2.62	4000.0	Yes		5.48131370328426				ShowChoice	Gain
10.0	1	140.379	0.012	202.221	8.1	1.31	17.4375	1.0	955.0	4.2	Outcome1	8.1	2.62	4000.0	Yes		5.48131370328426				ShowResult	Gain
10.0	1	141.399	0.02	203.241	8.1	1.31	17.4375	2.0	955.0	4.2	Outcome1	8.1	2.62	4000.0	Yes		5.48131370328426				ISITrial	Gain
10.0	1	147.451	0.029	209.293	8.1	1.31	17.4375	2.163	955.0	4.2	Outcome1	8.1	2.62	4000.0	Yes	2{-2}2{-2}2{-2}	5.48131370328426	2.163	149.614	736.0	TrialHappiness	Gain
10.0	1	151.479	4.028	213.321	8.1	1.31	17.4375	8.0	955.0	4.2	Outcome1	8.1	2.62	4000.0	Yes		5.48131370328426				ISIRate	Gain
11.0	1	159.503	0.024	221.345	8.5	1.13	18.5	3.0	955.0	1.68	Outcome1	8.5	2.26	0.0	No	2.0	6.236693091732731	1.136	160.639		GetAnswer	Gain
11.0	1	160.657	0.018	222.499	8.5	1.13	18.5	4.0	955.0	1.68	Outcome1	8.5	2.26	0.0	No		6.236693091732731				ShowChoice	Gain
11.0	1	164.685	0.028	226.527	8.5	1.13	18.5	1.0	955.0	1.68	Outcome1	8.5	2.26	0.0	No		6.236693091732731				ShowResult	Gain
11.0	1	165.705	0.02	227.547	8.5	1.13	18.5	3.324	955.0	1.68	Outcome1	8.5	2.26	0.0	No		6.236693091732731				ISITrial	Gain
12.0	1	169.049	0.02	230.891	5.3	2.0	19.1625	3.0	955.0	2.48	Outcome1	5.3	-1.18	2618.75	Yes	2.0	6.484711211778031	1.571	170.62		GetAnswer	Gain
12.0	1	170.637	0.017	232.479	5.3	2.0	19.1625	4.0	955.0	2.48	Outcome1	5.3	-1.18	2618.75	Yes		6.484711211778031				ShowChoice	Gain
12.0	1	174.665	0.028	236.507	5.3	2.0	19.1625	1.0	955.0	2.48	Outcome1	5.3	-1.18	2618.75	Yes		6.484711211778031				ShowResult	Gain
12.0	1	175.685	0.02	237.527	5.3	2.0	19.1625	6.642	955.0	2.48	Outcome1	5.3	-1.18	2618.75	Yes		6.484711211778031				ISITrial	Gain
12.0	1	184.996	0.022	246.838	5.3	2.0	19.1625	2.23	955.0	2.48	Outcome1	5.3	-1.18	2618.75	Yes		6.484711211778031			788.0	TrialHappiness	Gain
12.0	1	189.025	4.029	250.867	5.3	2.0	19.1625	2.475	955.0	2.48	Outcome1	5.3	-1.18	2618.75	Yes		6.484711211778031				ISIRate	Gain
13.0	1	191.532	0.032	253.374	6.37	3.18	19.9587	3.0	955.0	2.48	Outcome2	7.3	6.37	0.0	No	2.0	-0.928746696866742	1.007	192.539		GetAnswer	Gain
13.0	1	192.569	0.03	254.411	6.37	3.18	19.9587	4.0	955.0	2.48	Outcome2	7.3	6.37	0.0	No		-0.928746696866742				ShowChoice	Gain
13.0	1	196.598	0.029	258.44	6.37	3.18	19.9587	1.0	955.0	2.48	Outcome2	7.3	6.37	0.0	No		-0.928746696866742				ShowResult	Gain
13.0	1	197.617	0.019	259.459	6.37	3.18	19.9587	3.48	955.0	2.48	Outcome2	7.3	6.37	0.0	No		-0.928746696866742				ISITrial	Gain
14.0	1	201.128	0.031	262.97	-4.0	-4.0	19.4587	3.0	955.0	0.2	Certain	-7.54	-1.5	0.0	No	4.0	6.03850509626274	2.126	203.254		GetAnswer	Mixed
14.0	1	203.268	0.014	265.11	-4.0	-4.0	19.4587	4.0	955.0	0.2	Certain	-7.54	-1.5	0.0	No		6.03850509626274				ShowChoice	Mixed
14.0	1	207.296	0.028	269.138	-4.0	-4.0	19.4587	1.0	955.0	0.2	Certain	-7.54	-1.5	0.0	No		6.03850509626274				ShowResult	Mixed
14.0	1	208.316	0.02	270.158	-4.0	-4.0	19.4587	5.019	955.0	0.2	Certain	-7.54	-1.5	0.0	No		6.03850509626274				ISITrial	Mixed
15.0	1	213.365	0.03	275.207	4.1	1.0	19.9712	3.0	955.0	1.5	Outcome2	-2.13	4.1	3348.5	Yes	2.0	6.22763306908267	2.225	215.59		GetAnswer	Mixed
15.0	1	215.605	0.015	277.447	4.1	1.0	19.9712	4.0	955.0	1.5	Outcome2	-2.13	4.1	3348.5	Yes		6.22763306908267				ShowChoice	Mixed
15.0	1	219.633	0.028	281.475	4.1	1.0	19.9712	1.0	955.0	1.5	Outcome2	-2.13	4.1	3348.5	Yes		6.22763306908267				ShowResult	Mixed
15.0	1	220.653	0.02	282.495	4.1	1.0	19.9712	7.614	955.0	1.5	Outcome2	-2.13	4.1	3348.5	Yes		6.22763306908267				ISITrial	Mixed
15.0	1	231.669	0.028	293.511	4.1	1.0	19.9712	3.104	955.0	1.5	Outcome2	-2.13	4.1	3348.5	Yes		6.22763306908267			788.0	TrialHappiness	Mixed
15.0	1	235.681	4.012	297.523	4.1	1.0	19.9712	5.394	955.0	1.5	Outcome2	-2.13	4.1	3348.5	Yes		6.22763306908267				ISIRate	Mixed
16.0	1	241.098	0.023	302.94	0.0	0.0	19.9712	3.0	955.0	1.5	Certain	-0.88	0.1	0.0	No	4.0	-0.976028690071725	1.856	242.954		GetAnswer	Mixed
16.0	1	242.97	0.016	304.812	0.0	0.0	19.9712	4.0	955.0	1.5	Certain	-0.88	0.1	0.0	No		-0.976028690071725				ShowChoice	Mixed
16.0	1	246.982	0.012	308.824	0.0	0.0	19.9712	1.0	955.0	1.5	Certain	-0.88	0.1	0.0	No		-0.976028690071725				ShowResult	Mixed
16.0	1	248.002	0.02	309.844	0.0	0.0	19.9712	3.008	955.0	1.5	Certain	-0.88	0.1	0.0	No		-0.976028690071725				ISITrial	Mixed
17.0	1	251.027	0.017	312.869	-4.0	-4.0	19.4712	3.0	955.0	0.52	Certain	-0.9	-7.51	3041.5	Yes	4.0	6.60588901472254	2.992	254.019		GetAnswer	Mixed
17.0	1	254.036	0.017	315.878	-4.0	-4.0	19.4712	4.0	955.0	0.52	Certain	-0.9	-7.51	3041.5	Yes		6.60588901472254				ShowChoice	Mixed
17.0	1	258.048	0.012	319.89	-4.0	-4.0	19.4712	1.0	955.0	0.52	Certain	-0.9	-7.51	3041.5	Yes		6.60588901472254				ShowResult	Mixed
17.0	1	259.068	0.02	320.91	-4.0	-4.0	19.4712	3.566	955.0	0.52	Certain	-0.9	-7.51	3041.5	Yes		6.60588901472254				ISITrial	Mixed
17.0	1	265.705	0.018	327.547	-4.0	-4.0	19.4712	2.581	955.0	0.52	Certain	-0.9	-7.51	3041.5	Yes	2{-2}4{-4}4{-4}	6.60588901472254	2.581	268.286	752.0	TrialHappiness	Mixed
17.0	1	269.717	4.012	331.559	-4.0	-4.0	19.4712	4.166	955.0	0.52	Certain	-0.9	-7.51	3041.5	Yes		6.60588901472254				ISIRate	Mixed
18.0	1	273.912	0.029	335.754	1.55	2.0	19.665	3.0	955.0	0.3	Outcome2	2.7	1.55	0.0	No	2.0	-1.15364288410721	1.087	274.999		GetAnswer	Mixed
18.0	1	275.016	0.017	336.858	1.55	2.0	19.665	4.0	955.0	0.3	Outcome2	2.7	1.55	0.0	No		-1.15364288410721				ShowChoice	Mixed
18.0	1	279.028	0.012	340.87	1.55	2.0	19.665	1.0	955.0	0.3	Outcome2	2.7	1.55	0.0	No		-1.15364288410721				ShowResult	Mixed
18.0	1	280.047	0.019	341.889	1.55	2.0	19.665	6.787	955.0	0.3	Outcome2	2.7	1.55	0.0	No		-1.15364288410721				ISITrial	Mixed
19.0	1	286.851	0.017	348.693	0.13	0.0	19.6812	3.0	955.0	0.66	Outcome2	1.3	0.13	0.0	No	2.0	-1.17280105700264	1.359	288.21		GetAnswer	Mixed
19.0	1	288.222	0.011	350.064	0.13	0.0	19.6812	4.0	955.0	0.66	Outcome2	1.3	0.13	0.0	No		-1.17280105700264				ShowChoice	Mixed
19.0	1	292.234	0.012	354.076	0.13	0.0	19.6812	1.0	955.0	0.66	Outcome2	1.3	0.13	0.0	No		-1.17280105700264				ShowResult	Mixed
19.0	1	293.254	0.02	355.096	0.13	0.0	19.6812	2.0	955.0	0.66	Outcome2	1.3	0.13	0.0	No		-1.17280105700264				ISITrial	Mixed
20.0	1	295.276	0.022	357.118	12.9	2.52	21.2937	3.0	955.0	2.0	Outcome2	5.03	12.9	2921.25	Yes	2.0	7.86636466591167	1.39	296.666		GetAnswer	Loss
20.0	1	296.681	0.015	358.523	12.9	2.52	21.2937	4.0	955.0	2.0	Outcome2	5.03	12.9	2921.25	Yes		7.86636466591167				ShowChoice	Loss
20.0	1	300.693	0.012	362.535	12.9	2.52	21.2937	1.0	955.0	2.0	Outcome2	5.03	12.9	2921.25	Yes		7.86636466591167				ShowResult	Loss
20.0	1	301.712	0.019	363.554	12.9	2.52	21.2937	8.0	955.0	2.0	Outcome2	5.03	12.9	2921.25	Yes		7.86636466591167				ISITrial	Loss
20.0	1	312.678	0.021	374.52	12.9	2.52	21.2937	2.967	955.0	2.0	Outcome2	5.03	12.9	2921.25	Yes	2{-2}2{-2}2{-2}2{-2}	7.86636466591167	2.967	315.645	736.0	TrialHappiness	Loss
20.0	1	316.69	4.012	378.532	12.9	2.52	21.2937	3.685	955.0	2.0	Outcome2	5.03	12.9	2921.25	Yes		7.86636466591167				ISIRate	Loss
21.0	1	320.402	0.027	382.244	6.7	2.0	22.1312	3.0	955.0	1.82	Outcome1	6.7	-1.67	0.0	No	2.0	8.368063420158549	1.857	322.259		GetAnswer	Gain
21.0	1	322.274	0.015	384.116	6.7	2.0	22.1312	4.0	955.0	1.82	Outcome1	6.7	-1.67	0.0	No		8.368063420158549				ShowChoice	Gain
21.0	1	326.286	0.012	388.128	6.7	2.0	22.1312	1.0	955.0	1.82	Outcome1	6.7	-1.67	0.0	No		8.368063420158549				ShowResult	Gain
21.0	1	327.306	0.02	389.148	6.7	2.0	22.1312	3.555	955.0	1.82	Outcome1	6.7	-1.67	0.0	No		8.368063420158549				ISITrial	Gain
22.0	1	330.883	0.022	392.725	5.8	2.9	22.8562	3.0	955.0	2.22	Outcome2	7.1	5.8	3219.5	Yes	2.0	-1.29671574178935	1.026	331.909		GetAnswer	Gain
22.0	1	331.936	0.027	393.778	5.8	2.9	22.8562	4.0	955.0	2.22	Outcome2	7.1	5.8	3219.5	Yes		-1.29671574178935				ShowChoice	Gain
22.0	1	335.948	0.012	397.79	5.8	2.9	22.8562	1.0	955.0	2.22	Outcome2	7.1	5.8	3219.5	Yes		-1.29671574178935				ShowResult	Gain
22.0	1	336.968	0.02	398.81	5.8	2.9	22.8562	6.793	955.0	2.22	Outcome2	7.1	5.8	3219.5	Yes		-1.29671574178935				ISITrial	Gain
22.0	1	347.015	0.023	408.857	5.8	2.9	22.8562	2.765	955.0	2.22	Outcome2	7.1	5.8	3219.5	Yes		-1.29671574178935			792.0	TrialHappiness	Gain
22.0	1	351.027	4.012	412.869	5.8	2.9	22.8562	4.878	955.0	2.22	Outcome2	7.1	5.8	3219.5	Yes		-1.29671574178935				ISIRate	Gain
23.0	1	355.925	0.02	417.767	-2.0	-2.0	22.6062	3.0	955.0	0.82	Certain	-6.41	1.5	0.0	No	4.0	7.91279728199321	2.484	358.409		GetAnswer	Mixed
23.0	1	358.432	0.023	420.274	-2.0	-2.0	22.6062	4.0	955.0	0.82	Certain	-6.41	1.5	0.0	No		7.91279728199321				ShowChoice	Mixed
23.0	1	362.444	0.012	424.286	-2.0	-2.0	22.6062	1.0	955.0	0.82	Certain	-6.41	1.5	0.0	No		7.91279728199321				ShowResult	Mixed
23.0	1	363.464	0.02	425.306	-2.0	-2.0	22.6062	8.0	955.0	0.82	Certain	-6.41	1.5	0.0	No		7.91279728199321				ISITrial	Mixed
24.0	1	371.488	0.024	433.33	9.1	0.5	23.7437	3.0	955.0	2.22	Outcome2	1.0	9.1	3255.0	Yes	2.0	8.09739524348811	1.114	372.602		GetAnswer	Gain
24.0	1	372.625	0.023	434.467	9.1	0.5	23.7437	4.0	955.0	2.22	Outcome2	1.0	9.1	3255.0	Yes		8.09739524348811				ShowChoice	Gain
24.0	1	376.637	0.012	438.479	9.1	0.5	23.7437	1.0	955.0	2.22	Outcome2	1.0	9.1	3255.0	Yes		8.09739524348811				ShowResult	Gain
24.0	1	377.656	0.019	439.498	9.1	0.5	23.7437	2.0	955.0	2.22	Outcome2	1.0	9.1	3255.0	Yes		8.09739524348811				ISITrial	Gain
24.0	1	382.955	0.021	444.797	9.1	0.5	23.7437	3.434	955.0	2.22	Outcome2	1.0	9.1	3255.0	Yes		8.09739524348811			776.0	TrialHappiness	Gain
24.0	1	386.967	4.012	448.809	9.1	0.5	23.7437	5.02	955.0	2.22	Outcome2	1.0	9.1	3255.0	Yes		8.09739524348811				ISIRate	Gain
25.0	1	392.016	0.029	453.858	3.5	-1.0	24.1812	3.0	955.0	0.82	Outcome1	3.5	-5.05	0.0	No		8.55379388448471				GetAnswer	Mixed
25.0	1	395.042	0.026	456.884	3.5	-1.0	24.1812	4.0	955.0	0.82	Outcome1	3.5	-5.05	0.0	No		8.55379388448471				ShowChoice	Mixed
25.0	1	399.054	0.012	460.896	3.5	-1.0	24.1812	1.0	955.0	0.82	Outcome1	3.5	-5.05	0.0	No		8.55379388448471				ShowResult	Mixed
25.0	1	400.073	0.019	461.915	3.5	-1.0	24.1812	3.749	955.0	0.82	Outcome1	3.5	-5.05	0.0	No		8.55379388448471				ISITrial	Mixed
26.0	1	403.851	0.029	465.693	-3.0	-3.0	23.8062	3.0	955.0	0.4	Certain	0.9	-7.86	0.0	No	4.0	8.75651189127973	2.34	406.191		GetAnswer	Mixed
26.0	1	406.208	0.017	468.05	-3.0	-3.0	23.8062	4.0	955.0	0.4	Certain	0.9	-7.86	0.0	No		8.75651189127973				ShowChoice	Mixed
26.0	1	410.22	0.012	472.062	-3.0	-3.0	23.8062	1.0	955.0	0.4	Certain	0.9	-7.86	0.0	No		8.75651189127973				ShowResult	Mixed
26.0	1	411.24	0.02	473.082	-3.0	-3.0	23.8062	7.834	955.0	0.4	Certain	0.9	-7.86	0.0	No		8.75651189127973				ISITrial	Mixed
27.0	1	419.097	0.023	480.939	13.7	2.37	25.5187	3.0	955.0	3.16	Outcome1	13.7	4.74	2549.75	Yes	2.0	8.95922989807474	1.027	420.124		GetAnswer	Loss
27.0	1	420.15	0.026	481.992	13.7	2.37	25.5187	4.0	955.0	3.16	Outcome1	13.7	4.74	2549.75	Yes		8.95922989807474				ShowChoice	Loss
27.0	1	424.162	0.012	486.004	13.7	2.37	25.5187	1.0	955.0	3.16	Outcome1	13.7	4.74	2549.75	Yes		8.95922989807474				ShowResult	Loss
27.0	1	425.182	0.02	487.024	13.7	2.37	25.5187	4.225	955.0	3.16	Outcome1	13.7	4.74	2549.75	Yes		8.95922989807474				ISITrial	Loss
27.0	1	432.002	0.024	493.844	13.7	2.37	25.5187	3.417	955.0	3.16	Outcome1	13.7	4.74	2549.75	Yes		8.95922989807474			808.0	TrialHappiness	Loss
27.0	1	436.014	4.012	497.856	13.7	2.37	25.5187	2.199	955.0	3.16	Outcome1	13.7	4.74	2549.75	Yes		8.95922989807474				ISIRate	Loss
	1	438.238	0.025	500.08				-0.001								{SPACE}		25.011	463.249		Rest	
	1	463.263	0.014	525.105				4.0													BlockHappyPreview	
	1	467.275	0.012	529.117				1.676												776.0	BlockStartHappiness	
	1	475.232	0.015	537.074				-0.001								5.0		3.075	478.307		ScanWait	
	2	0.017	0.017	540.166				10.0													GetReady	
28.0	2	10.031	0.014	550.18	-1.71	-0.86	25.3049	3.0	70.0	5.0	Outcome2	10.3	-1.71	0.0	No	2.0	-12.0068027210884	2.272	12.303		GetAnswer	Gain
28.0	2	12.321	0.018	552.47	-1.71	-0.86	25.3049	4.0	70.0	5.0	Outcome2	10.3	-1.71	0.0	No		-12.0068027210884				ShowChoice	Gain
28.0	2	16.333	0.012	556.482	-1.71	-0.86	25.3049	1.0	70.0	5.0	Outcome2	10.3	-1.71	0.0	No		-12.0068027210884				ShowResult	Gain
28.0	2	17.353	0.02	557.502	-1.71	-0.86	25.3049	3.575	70.0	5.0	Outcome2	10.3	-1.71	0.0	No		-12.0068027210884				ISITrial	Gain
29.0	2	20.947	0.019	561.096	-9.91	-3.0	24.0661	3.0	70.0	0.4	Outcome1	-9.91	2.9	3529.0	Yes	2.0	-12.8072562358277	2.733	23.68		GetAnswer	Mixed
29.0	2	23.705	0.025	563.854	-9.91	-3.0	24.0661	4.0	70.0	0.4	Outcome1	-9.91	2.9	3529.0	Yes		-12.8072562358277				ShowChoice	Mixed
29.0	2	27.717	0.012	567.866	-9.91	-3.0	24.0661	1.0	70.0	0.4	Outcome1	-9.91	2.9	3529.0	Yes		-12.8072562358277				ShowResult	Mixed
29.0	2	28.737	0.02	568.886	-9.91	-3.0	24.0661	3.955	70.0	0.4	Outcome1	-9.91	2.9	3529.0	Yes		-12.8072562358277				ISITrial	Mixed
29.0	2	36.259	0.015	576.408	-9.91	-3.0	24.0661	2.497	70.0	0.4	Outcome1	-9.91	2.9	3529.0	Yes		-12.8072562358277			636.0	TrialHappiness	Mixed
29.0	2	40.271	4.012	580.42	-9.91	-3.0	24.0661	6.116	70.0	0.4	Outcome1	-9.91	2.9	3529.0	Yes		-12.8072562358277				ISIRate	Mixed
30.0	2	46.406	0.019	586.555	-11.33	-5.0	22.6499	3.0	70.0	1.2	Outcome1	-11.33	-0.1	0.0	No	2.0	-11.226757369614502	2.694	49.1		GetAnswer	Mixed
30.0	2	49.114	0.014	589.263	-11.33	-5.0	22.6499	4.0	70.0	1.2	Outcome1	-11.33	-0.1	0.0	No		-11.226757369614502				ShowChoice	Mixed
30.0	2	53.126	0.012	593.275	-11.33	-5.0	22.6499	1.0	70.0	1.2	Outcome1	-11.33	-0.1	0.0	No		-11.226757369614502				ShowResult	Mixed
30.0	2	54.146	0.02	594.295	-11.33	-5.0	22.6499	4.453	70.0	1.2	Outcome1	-11.33	-0.1	0.0	No		-11.226757369614502				ISITrial	Mixed
31.0	2	58.626	0.027	598.775	-8.17	-2.0	21.6287	3.0	70.0	1.0	Outcome1	-8.17	3.7	2503.25	Yes		-11.8684807256236				GetAnswer	Mixed
31.0	2	61.652	0.026	601.801	-8.17	-2.0	21.6287	4.0	70.0	1.0	Outcome1	-8.17	3.7	2503.25	Yes		-11.8684807256236				ShowChoice	Mixed
31.0	2	65.664	0.012	605.813	-8.17	-2.0	21.6287	1.0	70.0	1.0	Outcome1	-8.17	3.7	2503.25	Yes		-11.8684807256236				ShowResult	Mixed
31.0	2	66.683	0.019	606.832	-8.17	-2.0	21.6287	4.786	70.0	1.0	Outcome1	-8.17	3.7	2503.25	Yes		-11.8684807256236				ISITrial	Mixed
31.0	2	74.005	0.021	614.154	-8.17	-2.0	21.6287	1.328	70.0	1.0	Outcome1	-8.17	3.7	2503.25	Yes		-11.8684807256236			624.0	TrialHappiness	Mixed
31.0	2	78.017	4.012	618.166	-8.17	-2.0	21.6287	2.013	70.0	1.0	Outcome1	-8.17	3.7	2503.25	Yes		-11.8684807256236				ISIRate	Mixed
32.0	2	80.057	0.027	620.206	-10.01	-4.0	20.3775	3.0	70.0	2.0	Outcome2	2.3	-10.01	0.0	No	2.0	-12.306122448979599	2.396	82.453		GetAnswer	Mixed
32.0	2	82.481	0.028	622.63	-10.01	-4.0	20.3775	4.0	70.0	2.0	Outcome2	2.3	-10.01	0.0	No		-12.306122448979599				ShowChoice	Mixed
32.0	2	86.493	0.012	626.642	-10.01	-4.0	20.3775	1.0	70.0	2.0	Outcome2	2.3	-10.01	0.0	No		-12.306122448979599				ShowResult	Mixed
32.0	2	87.513	0.02	627.662	-10.01	-4.0	20.3775	2.0	70.0	2.0	Outcome2	2.3	-10.01	0.0	No		-12.306122448979599				ISITrial	Mixed
33.0	2	89.535	0.022	629.684	-1.0	-1.0	20.2525	3.0	70.0	2.0	Certain	4.9	-8.03	0.0	No	4.0	-12.934240362811801	1.903	91.438		GetAnswer	Gain
33.0	2	91.458	0.02	631.607	-1.0	-1.0	20.2525	4.0	70.0	2.0	Certain	4.9	-8.03	0.0	No		-12.934240362811801				ShowChoice	Gain
33.0	2	95.47	0.012	635.619	-1.0	-1.0	20.2525	1.0	70.0	2.0	Certain	4.9	-8.03	0.0	No		-12.934240362811801				ShowResult	Gain
33.0	2	96.489	0.019	636.638	-1.0	-1.0	20.2525	5.099	70.0	2.0	Certain	4.9	-8.03	0.0	No		-12.934240362811801				ISITrial	Gain
34.0	2	101.605	0.017	641.754	-7.46	0.0	19.32	3.0	70.0	4.2	Outcome2	6.1	-7.46	3231.5	Yes	2.0	-13.562358276644002	1.146	102.751		GetAnswer	Gain
34.0	2	102.775	0.024	642.924	-7.46	0.0	19.32	4.0	70.0	4.2	Outcome2	6.1	-7.46	3231.5	Yes		-13.562358276644002				ShowChoice	Gain
34.0	2	106.787	0.012	646.936	-7.46	0.0	19.32	1.0	70.0	4.2	Outcome2	6.1	-7.46	3231.5	Yes		-13.562358276644002				ShowResult	Gain
34.0	2	107.807	0.02	647.956	-7.46	0.0	19.32	4.784	70.0	4.2	Outcome2	6.1	-7.46	3231.5	Yes		-13.562358276644002				ISITrial	Gain
34.0	2	115.864	0.028	656.013	-7.46	0.0	19.32	1.913	70.0	4.2	Outcome2	6.1	-7.46	3231.5	Yes		-13.562358276644002			584.0	TrialHappiness	Gain
34.0	2	119.876	4.012	660.025	-7.46	0.0	19.32	4.926	70.0	4.2	Outcome2	6.1	-7.46	3231.5	Yes		-13.562358276644002				ISIRate	Gain
35.0	2	124.824	0.022	664.973	-1.0	-1.0	19.195	3.0	70.0	0.82	Certain	-2.61	-0.12	0.0	No	4.0	2.4856386999244102	1.968	126.792		GetAnswer	Mixed
35.0	2	126.813	0.021	666.962	-1.0	-1.0	19.195	4.0	70.0	0.82	Certain	-2.61	-0.12	0.0	No		2.4856386999244102				ShowChoice	Mixed
35.0	2	130.826	0.013	670.975	-1.0	-1.0	19.195	1.0	70.0	0.82	Certain	-2.61	-0.12	0.0	No		2.4856386999244102				ShowResult	Mixed
35.0	2	131.845	0.019	671.994	-1.0	-1.0	19.195	2.098	70.0	0.82	Certain	-2.61	-0.12	0.0	No		2.4856386999244102				ISITrial	Mixed
36.0	2	133.968	0.025	674.117	2.78	1.0	19.5425	3.0	70.0	2.22	Outcome2	0.25	2.78	3335.75	Yes	2.0	2.53420256991686	2.017	135.985		GetAnswer	Loss
36.0	2	136.008	0.023	676.157	2.78	1.0	19.5425	4.0	70.0	2.22	Outcome2	0.25	2.78	3335.75	Yes		2.53420256991686				ShowChoice	Loss
36.0	2	140.02	0.012	680.169	2.78	1.0	19.5425	1.0	70.0	2.22	Outcome2	0.25	2.78	3335.75	Yes		2.53420256991686				ShowResult	Loss
36.0	2	141.039	0.019	681.188	2.78	1.0	19.5425	5.156	70.0	2.22	Outcome2	0.25	2.78	3335.75	Yes		2.53420256991686				ISITrial	Loss
36.0	2	149.582	0.024	689.731	2.78	1.0	19.5425	2.641	70.0	2.22	Outcome2	0.25	2.78	3335.75	Yes		2.53420256991686			612.0	TrialHappiness	Loss
36.0	2	153.594	4.012	693.743	2.78	1.0	19.5425	5.343	70.0	2.22	Outcome2	0.25	2.78	3335.75	Yes		2.53420256991686				ISIRate	Loss
37.0	2	158.96	0.023	699.109	3.38	2.0	19.965	3.0	70.0	2.8	Outcome2	0.68	3.38	0.0	No	2.0	2.6965230536659104	1.405	160.365		GetAnswer	Loss
37.0	2	160.381	0.016	700.53	3.38	2.0	19.965	4.0	70.0	2.8	Outcome2	0.68	3.38	0.0	No		2.6965230536659104				ShowChoice	Loss
37.0	2	164.393	0.012	704.542	3.38	2.0	19.965	1.0	70.0	2.8	Outcome2	0.68	3.38	0.0	No		2.6965230536659104				ShowResult	Loss
37.0	2	165.412	0.019	705.561	3.38	2.0	19.965	3.598	70.0	2.8	Outcome2	0.68	3.38	0.0	No		2.6965230536659104				ISITrial	Loss
38.0	2	169.04	0.03	709.189	0.0	0.0	19.965	3.0	70.0	5.0	Certain	8.3	-7.47	0.0	No	4.0	-15.7664399092971	1.503	170.543		GetAnswer	Gain
38.0	2	170.561	0.018	710.71	0.0	0.0	19.965	4.0	70.0	5.0	Certain	8.3	-7.47	0.0	No		-15.7664399092971				ShowChoice	Gain
38.0	2	174.573	0.012	714.722	0.0	0.0	19.965	1.0	70.0	5.0	Certain	8.3	-7.47	0.0	No		-15.7664399092971				ShowResult	Gain
38.0	2	175.593	0.02	715.742	0.0	0.0	19.965	4.787	70.0	5.0	Certain	8.3	-7.47	0.0	No		-15.7664399092971				ISITrial	Gain
39.0	2	180.407	0.027	720.556	0.0	0.0	19.965	3.0	70.0	2.8	Certain	-8.88	7.5	2864.25	Yes	4.0	-16.3809523809524	1.781	182.188		GetAnswer	Gain
39.0	2	182.213	0.025	722.362	0.0	0.0	19.965	4.0	70.0	2.8	Certain	-8.88	7.5	2864.25	Yes		-16.3809523809524				ShowChoice	Gain
39.0	2	186.225	0.012	726.374	0.0	0.0	19.965	1.0	70.0	2.8	Certain	-8.88	7.5	2864.25	Yes		-16.3809523809524				ShowResult	Gain
39.0	2	187.244	0.019	727.393	0.0	0.0	19.965	2.348	70.0	2.8	Certain	-8.88	7.5	2864.25	Yes		-16.3809523809524				ISITrial	Gain
39.0	2	192.51	0.028	732.659	0.0	0.0	19.965	2.313	70.0	2.8	Certain	-8.88	7.5	2864.25	Yes		-16.3809523809524			648.0	TrialHappiness	Gain
39.0	2	196.522	4.012	736.671	0.0	0.0	19.965	3.457	70.0	2.8	Certain	-8.88	7.5	2864.25	Yes		-16.3809523809524				ISIRate	Gain
40.0	2	199.999	0.02	740.148	1.12	0.0	20.105	3.0	70.0	1.68	Outcome1	1.12	-1.88	0.0	No	2.0	2.9964096749811	2.266	202.265		GetAnswer	Gain
40.0	2	202.289	0.024	742.438	1.12	0.0	20.105	4.0	70.0	1.68	Outcome1	1.12	-1.88	0.0	No		2.9964096749811				ShowChoice	Gain
40.0	2	206.301	0.012	746.45	1.12	0.0	20.105	1.0	70.0	1.68	Outcome1	1.12	-1.88	0.0	No		2.9964096749811				ShowResult	Gain
40.0	2	207.321	0.02	747.47	1.12	0.0	20.105	3.158	70.0	1.68	Outcome1	1.12	-1.88	0.0	No		2.9964096749811				ISITrial	Gain
41.0	2	210.497	0.018	750.646	-17.96	-9.0	17.86	3.0	70.0	2.0	Outcome1	-17.96	0.3	4000.0	Yes		-18.263038548752803				GetAnswer	Mixed
41.0	2	213.523	0.026	753.672	-17.96	-9.0	17.86	4.0	70.0	2.0	Outcome1	-17.96	0.3	4000.0	Yes		-18.263038548752803				ShowChoice	Mixed
41.0	2	217.535	0.012	757.684	-17.96	-9.0	17.86	1.0	70.0	2.0	Outcome1	-17.96	0.3	4000.0	Yes		-18.263038548752803				ShowResult	Mixed
41.0	2	218.555	0.02	758.704	-17.96	-9.0	17.86	4.506	70.0	2.0	Outcome1	-17.96	0.3	4000.0	Yes		-18.263038548752803				ISITrial	Mixed
41.0	2	227.114	0.029	767.263	-17.96	-9.0	17.86	0.0	70.0	2.0	Outcome1	-17.96	0.3	4000.0	Yes		-18.263038548752803			512.0	TrialHappiness	Mixed
41.0	2	231.126	4.012	771.275	-17.96	-9.0	17.86	8.0	70.0	2.0	Outcome1	-17.96	0.3	4000.0	Yes		-18.263038548752803				ISIRate	Mixed
42.0	2	239.15	0.024	779.299	0.0	0.0	17.86	3.0	70.0	1.82	Certain	8.7	-7.91	0.0	No	4.0	-16.6054421768707	1.489	240.639		GetAnswer	Gain
42.0	2	240.654	0.015	780.803	0.0	0.0	17.86	4.0	70.0	1.82	Certain	8.7	-7.91	0.0	No		-16.6054421768707				ShowChoice	Gain
42.0	2	244.666	0.012	784.815	0.0	0.0	17.86	1.0	70.0	1.82	Certain	8.7	-7.91	0.0	No		-16.6054421768707				ShowResult	Gain
42.0	2	245.686	0.02	785.835	0.0	0.0	17.86	6.248	70.0	1.82	Certain	8.7	-7.91	0.0	No		-16.6054421768707				ISITrial	Gain
43.0	2	251.955	0.021	792.104	-8.0	-8.0	16.86	3.0	70.0	0.2	Certain	-16.61	0.5	2775.75	Yes	4.0	-17.1065759637188	2.199	254.154		GetAnswer	Mixed
43.0	2	254.178	0.024	794.327	-8.0	-8.0	16.86	4.0	70.0	0.2	Certain	-16.61	0.5	2775.75	Yes		-17.1065759637188				ShowChoice	Mixed
43.0	2	258.19	0.012	798.339	-8.0	-8.0	16.86	1.0	70.0	0.2	Certain	-16.61	0.5	2775.75	Yes		-17.1065759637188				ShowResult	Mixed
43.0	2	259.21	0.02	799.359	-8.0	-8.0	16.86	4.596	70.0	0.2	Certain	-16.61	0.5	2775.75	Yes		-17.1065759637188				ISITrial	Mixed
43.0	2	266.615	0.015	806.764	-8.0	-8.0	16.86	0.0	70.0	0.2	Certain	-16.61	0.5	2775.75	Yes		-17.1065759637188			512.0	TrialHappiness	Mixed
43.0	2	270.627	4.012	810.776	-8.0	-8.0	16.86	3.103	70.0	0.2	Certain	-16.61	0.5	2775.75	Yes		-17.1065759637188				ISIRate	Mixed
44.0	2	273.753	0.023	813.902	-6.0	-6.0	16.11	3.0	70.0	0.2	Certain	-15.11	2.5	0.0	No	4.0	-17.607709750566897	2.445	276.198		GetAnswer	Mixed
44.0	2	276.211	0.013	816.36	-6.0	-6.0	16.11	4.0	70.0	0.2	Certain	-15.11	2.5	0.0	No		-17.607709750566897				ShowChoice	Mixed
44.0	2	280.239	0.028	820.388	-6.0	-6.0	16.11	1.0	70.0	0.2	Certain	-15.11	2.5	0.0	No		-17.607709750566897				ShowResult	Mixed
44.0	2	281.259	0.02	821.408	-6.0	-6.0	16.11	2.42	70.0	0.2	Certain	-15.11	2.5	0.0	No		-17.607709750566897				ISITrial	Mixed
45.0	2	283.7	0.021	823.849	-8.81	0.0	15.0088	3.0	70.0	2.48	Outcome2	9.3	-8.81	0.0	No	2.0	-18.108843537414998	2.273	285.973		GetAnswer	Gain
45.0	2	285.99	0.017	826.139	-8.81	0.0	15.0088	4.0	70.0	2.48	Outcome2	9.3	-8.81	0.0	No		-18.108843537414998				ShowChoice	Gain
45.0	2	290.002	0.012	830.151	-8.81	0.0	15.0088	1.0	70.0	2.48	Outcome2	9.3	-8.81	0.0	No		-18.108843537414998				ShowResult	Gain
45.0	2	291.022	0.02	831.171	-8.81	0.0	15.0088	3.144	70.0	2.48	Outcome2	9.3	-8.81	0.0	No		-18.108843537414998				ISITrial	Gain
46.0	2	294.198	0.032	834.347	-7.91	1.0	14.02	3.0	70.0	1.82	Outcome1	-7.91	10.7	3841.25	Yes	2.0	-18.609977324263	2.662	296.86		GetAnswer	Loss
46.0	2	296.873	0.013	837.022	-7.91	1.0	14.02	4.0	70.0	1.82	Outcome1	-7.91	10.7	3841.25	Yes		-18.609977324263				ShowChoice	Loss
46.0	2	300.885	0.012	841.034	-7.91	1.0	14.02	1.0	70.0	1.82	Outcome1	-7.91	10.7	3841.25	Yes		-18.609977324263				ShowResult	Loss
46.0	2	301.904	0.019	842.053	-7.91	1.0	14.02	2.246	70.0	1.82	Outcome1	-7.91	10.7	3841.25	Yes		-18.609977324263				ISITrial	Loss
46.0	2	308.023	0.021	848.172	-7.91	1.0	14.02	1.462	70.0	1.82	Outcome1	-7.91	10.7	3841.25	Yes		-18.609977324263			532.0	TrialHappiness	Loss
46.0	2	312.035	4.012	852.184	-7.91	1.0	14.02	7.365	70.0	1.82	Outcome1	-7.91	10.7	3841.25	Yes		-18.609977324263				ISIRate	Loss
47.0	2	319.423	0.023	859.572	-5.0	-5.0	13.395	3.0	70.0	1.82	Certain	-14.75	4.7	0.0	No	4.0	-19.451247165532898	2.263	321.686		GetAnswer	Gain
47.0	2	321.714	0.028	861.863	-5.0	-5.0	13.395	4.0	70.0	1.82	Certain	-14.75	4.7	0.0	No		-19.451247165532898				ShowChoice	Gain
47.0	2	325.726	0.012	865.875	-5.0	-5.0	13.395	1.0	70.0	1.82	Certain	-14.75	4.7	0.0	No		-19.451247165532898				ShowResult	Gain
47.0	2	326.745	0.019	866.894	-5.0	-5.0	13.395	2.0	70.0	1.82	Certain	-14.75	4.7	0.0	No		-19.451247165532898				ISITrial	Gain
48.0	2	328.768	0.023	868.917	-3.0	-3.0	13.02	3.0	70.0	5.0	Certain	-13.68	6.3	2831.75	Yes	4.0	-19.9750566893424	1.912	330.68		GetAnswer	Gain
48.0	2	330.707	0.027	870.856	-3.0	-3.0	13.02	4.0	70.0	5.0	Certain	-13.68	6.3	2831.75	Yes		-19.9750566893424				ShowChoice	Gain
48.0	2	334.719	0.012	874.868	-3.0	-3.0	13.02	1.0	70.0	5.0	Certain	-13.68	6.3	2831.75	Yes		-19.9750566893424				ShowResult	Gain
48.0	2	335.739	0.02	875.888	-3.0	-3.0	13.02	3.692	70.0	5.0	Certain	-13.68	6.3	2831.75	Yes		-19.9750566893424				ISITrial	Gain
48.0	2	342.309	0.027	882.458	-3.0	-3.0	13.02	2.008	70.0	5.0	Certain	-13.68	6.3	2831.75	Yes		-19.9750566893424			552.0	TrialHappiness	Gain
48.0	2	346.321	4.012	886.47	-3.0	-3.0	13.02	3.327	70.0	5.0	Certain	-13.68	6.3	2831.75	Yes		-19.9750566893424				ISIRate	Gain
49.0	2	349.681	0.033	889.83	1.0	1.0	13.145	3.0	70.0	2.8	Certain	-9.34	11.5	0.0	No	4.0	-20.8390022675737	1.693	351.374		GetAnswer	Loss
49.0	2	351.402	0.028	891.551	1.0	1.0	13.145	4.0	70.0	2.8	Certain	-9.34	11.5	0.0	No		-20.8390022675737				ShowChoice	Loss
49.0	2	355.414	0.012	895.563	1.0	1.0	13.145	1.0	70.0	2.8	Certain	-9.34	11.5	0.0	No		-20.8390022675737				ShowResult	Loss
49.0	2	356.434	0.02	896.583	1.0	1.0	13.145	8.0	70.0	2.8	Certain	-9.34	11.5	0.0	No		-20.8390022675737				ISITrial	Loss
50.0	2	364.458	0.024	904.607	2.0	2.0	13.395	3.0	70.0	2.22	Certain	-8.29	13.1	3547.25	Yes	4.0	-21.3854875283447	2.443	366.901		GetAnswer	Loss
50.0	2	366.916	0.015	907.065	2.0	2.0	13.395	4.0	70.0	2.22	Certain	-8.29	13.1	3547.25	Yes		-21.3854875283447				ShowChoice	Loss
50.0	2	370.944	0.028	911.093	2.0	2.0	13.395	1.0	70.0	2.22	Certain	-8.29	13.1	3547.25	Yes		-21.3854875283447				ShowResult	Loss
50.0	2	371.964	0.02	912.113	2.0	2.0	13.395	7.537	70.0	2.22	Certain	-8.29	13.1	3547.25	Yes		-21.3854875283447				ISITrial	Loss
50.0	2	383.097	0.03	923.246	2.0	2.0	13.395	2.815	70.0	2.22	Certain	-8.29	13.1	3547.25	Yes		-21.3854875283447			576.0	TrialHappiness	Loss
50.0	2	387.126	4.029	927.275	2.0	2.0	13.395	6.189	70.0	2.22	Certain	-8.29	13.1	3547.25	Yes		-21.3854875283447				ISIRate	Loss
51.0	2	393.345	0.03	933.494	-1.0	-1.0	13.27	3.0	70.0	2.8	Certain	9.5	-12.84	0.0	No	4.0	-22.3401360544218	1.618	394.963		GetAnswer	Gain
51.0	2	394.983	0.02	935.132	-1.0	-1.0	13.27	4.0	70.0	2.8	Certain	9.5	-12.84	0.0	No		-22.3401360544218				ShowChoice	Gain
51.0	2	399.012	0.029	939.161	-1.0	-1.0	13.27	1.0	70.0	2.8	Certain	9.5	-12.84	0.0	No		-22.3401360544218				ShowResult	Gain
51.0	2	400.031	0.019	940.18	-1.0	-1.0	13.27	5.508	70.0	2.8	Certain	9.5	-12.84	0.0	No		-22.3401360544218				ISITrial	Gain
52.0	2	405.565	0.026	945.714	-4.0	-4.0	12.77	3.0	70.0	3.16	Certain	-15.21	7.7	0.0	No	4.0	-22.913832199546498	1.937	407.502		GetAnswer	Gain
52.0	2	407.52	0.018	947.669	-4.0	-4.0	12.77	4.0	70.0	3.16	Certain	-15.21	7.7	0.0	No		-22.913832199546498				ShowChoice	Gain
52.0	2	411.549	0.029	951.698	-4.0	-4.0	12.77	1.0	70.0	3.16	Certain	-15.21	7.7	0.0	No		-22.913832199546498				ShowResult	Gain
52.0	2	412.569	0.02	952.718	-4.0	-4.0	12.77	5.913	70.0	3.16	Certain	-15.21	7.7	0.0	No		-22.913832199546498				ISITrial	Gain
53.0	2	418.503	0.021	958.652	0.0	0.0	12.77	3.0	70.0	1.2	Certain	0.98	-2.32	2996.75	Yes	4.0	3.29591836734694	1.677	420.18		GetAnswer	Mixed
53.0	2	420.208	0.028	960.357	0.0	0.0	12.77	4.0	70.0	1.2	Certain	0.98	-2.32	2996.75	Yes		3.29591836734694				ShowChoice	Mixed
53.0	2	424.22	0.012	964.369	0.0	0.0	12.77	1.0	70.0	1.2	Certain	0.98	-2.32	2996.75	Yes		3.29591836734694				ShowResult	Mixed
53.0	2	425.24	0.02	965.389	0.0	0.0	12.77	3.66	70.0	1.2	Certain	0.98	-2.32	2996.75	Yes		3.29591836734694				ISITrial	Mixed
53.0	2	431.944	0.029	972.093	0.0	0.0	12.77	1.444	70.0	1.2	Certain	0.98	-2.32	2996.75	Yes		3.29591836734694			568.0	TrialHappiness	Mixed
53.0	2	435.972	4.028	976.121	0.0	0.0	12.77	3.987	70.0	1.2	Certain	0.98	-2.32	2996.75	Yes		3.29591836734694				ISIRate	Mixed
54.0	2	439.984	0.025	980.133	0.0	0.0	12.77	3.0	70.0	2.48	Certain	11.3	-12.63	0.0	No	4.0	-23.9251700680272	1.694	441.678		GetAnswer	Loss
54.0	2	441.706	0.028	981.855	0.0	0.0	12.77	4.0	70.0	2.48	Certain	11.3	-12.63	0.0	No		-23.9251700680272				ShowChoice	Loss
54.0	2	445.735	0.029	985.884	0.0	0.0	12.77	1.0	70.0	2.48	Certain	11.3	-12.63	0.0	No		-23.9251700680272				ShowResult	Loss
54.0	2	446.755	0.02	986.904	0.0	0.0	12.77	8.0	70.0	2.48	Certain	11.3	-12.63	0.0	No		-23.9251700680272				ISITrial	Loss
	2	454.779	0.024	994.928				-0.001								{SPACE}		21.481	476.26		Rest	
	2	476.276	0.016	1016.425				4.0													BlockHappyPreview	
	2	480.288	0.012	1020.437				2.615												592.0	BlockStartHappiness	
	2	489.817	0.021	1029.966				-0.001								5.0		3.798	493.615		ScanWait	
	3	0.013	0.013	1033.777				10.0													GetReady	
55.0	3	10.043	0.03	1043.807	6.5	0.16	13.5825	3.0	955.0	1.68	Outcome2	0.33	6.5	2533.25	Yes	2.0	6.166477916194791	1.26	11.303		GetAnswer	Gain
55.0	3	11.33	0.027	1045.094	6.5	0.16	13.5825	4.0	955.0	1.68	Outcome2	0.33	6.5	2533.25	Yes		6.166477916194791				ShowChoice	Gain
55.0	3	15.342	0.012	1049.106	6.5	0.16	13.5825	1.0	955.0	1.68	Outcome2	0.33	6.5	2533.25	Yes		6.166477916194791				ShowResult	Gain
55.0	3	16.362	0.02	1050.126	6.5	0.16	13.5825	7.709	955.0	1.68	Outcome2	0.33	6.5	2533.25	Yes		6.166477916194791				ISITrial	Gain
55.0	3	26.643	0.025	1060.407	6.5	0.16	13.5825	3.864	955.0	1.68	Outcome2	0.33	6.5	2533.25	Yes		6.166477916194791			632.0	TrialHappiness	Gain
55.0	3	30.655	4.012	1064.419	6.5	0.16	13.5825	2.133	955.0	1.68	Outcome2	0.33	6.5	2533.25	Yes		6.166477916194791				ISIRate	Gain
56.0	3	32.811	0.023	1066.575	-1.0	-1.0	13.4575	3.0	955.0	1.2	Certain	1.9	-4.0	0.0	No	4.0	5.898074745186861	2.865	35.676		GetAnswer	Mixed
56.0	3	35.703	0.027	1069.467	-1.0	-1.0	13.4575	4.0	955.0	1.2	Certain	1.9	-4.0	0.0	No		5.898074745186861				ShowChoice	Mixed
56.0	3	39.715	0.012	1073.479	-1.0	-1.0	13.4575	1.0	955.0	1.2	Certain	1.9	-4.0	0.0	No		5.898074745186861				ShowResult	Mixed
56.0	3	40.735	0.02	1074.499	-1.0	-1.0	13.4575	4.697	955.0	1.2	Certain	1.9	-4.0	0.0	No		5.898074745186861				ISITrial	Mixed
57.0	3	45.449	0.017	1079.213	10.1	1.92	14.72	3.0	955.0	4.2	Outcome1	10.1	3.84	0.0	No	2.0	6.263873159682901	1.025	46.474		GetAnswer	Gain
57.0	3	46.486	0.012	1080.25	10.1	1.92	14.72	4.0	955.0	4.2	Outcome1	10.1	3.84	0.0	No		6.263873159682901				ShowChoice	Gain
57.0	3	50.498	0.012	1084.262	10.1	1.92	14.72	1.0	955.0	4.2	Outcome1	10.1	3.84	0.0	No		6.263873159682901				ShowResult	Gain
57.0	3	51.517	0.019	1085.281	10.1	1.92	14.72	4.291	955.0	4.2	Outcome1	10.1	3.84	0.0	No		6.263873159682901				ISITrial	Gain
58.0	3	55.83	0.022	1089.594	0.7	-2.0	14.8075	3.0	955.0	0.3	Outcome2	-5.93	0.7	3045.75	Yes	2.0	6.629671574178929	2.046	57.876		GetAnswer	Mixed
58.0	3	57.903	0.027	1091.667	0.7	-2.0	14.8075	4.0	955.0	0.3	Outcome2	-5.93	0.7	3045.75	Yes		6.629671574178929				ShowChoice	Mixed
58.0	3	61.915	0.012	1095.679	0.7	-2.0	14.8075	1.0	955.0	0.3	Outcome2	-5.93	0.7	3045.75	Yes		6.629671574178929				ShowResult	Mixed
58.0	3	62.935	0.02	1096.699	0.7	-2.0	14.8075	2.037	955.0	0.3	Outcome2	-5.93	0.7	3045.75	Yes		6.629671574178929				ISITrial	Mixed
58.0	3	68.067	0.03	1101.831	0.7	-2.0	14.8075	1.159	955.0	0.3	Outcome2	-5.93	0.7	3045.75	Yes		6.629671574178929			664.0	TrialHappiness	Mixed
58.0	3	72.079	4.012	1105.843	0.7	-2.0	14.8075	4.183	955.0	0.3	Outcome2	-5.93	0.7	3045.75	Yes		6.629671574178929				ISIRate	Mixed
59.0	3	76.291	0.029	1110.055	6.9	0.22	15.67	3.0	955.0	2.0	Outcome2	0.45	6.9	0.0	No	2.0	6.45186862967157	0.849	77.14		GetAnswer	Gain
59.0	3	77.161	0.021	1110.925	6.9	0.22	15.67	4.0	955.0	2.0	Outcome2	0.45	6.9	0.0	No		6.45186862967157				ShowChoice	Gain
59.0	3	81.173	0.012	1114.937	6.9	0.22	15.67	1.0	955.0	2.0	Outcome2	0.45	6.9	0.0	No		6.45186862967157				ShowResult	Gain
59.0	3	82.192	0.019	1115.956	6.9	0.22	15.67	5.064	955.0	2.0	Outcome2	0.45	6.9	0.0	No		6.45186862967157				ISITrial	Gain
60.0	3	87.274	0.018	1121.038	-1.0	-1.0	15.545	3.0	955.0	1.0	Certain	-5.08	1.7	3562.5	Yes	4.0	6.7814269535673795	2.243	89.517		GetAnswer	Mixed
60.0	3	89.531	0.014	1123.295	-1.0	-1.0	15.545	4.0	955.0	1.0	Certain	-5.08	1.7	3562.5	Yes		6.7814269535673795				ShowChoice	Mixed
60.0	3	93.543	0.012	1127.307	-1.0	-1.0	15.545	1.0	955.0	1.0	Certain	-5.08	1.7	3562.5	Yes		6.7814269535673795				ShowResult	Mixed
60.0	3	94.563	0.02	1128.327	-1.0	-1.0	15.545	8.0	955.0	1.0	Certain	-5.08	1.7	3562.5	Yes		6.7814269535673795				ISITrial	Mixed
60.0	3	106.164	0.015	1139.928	-1.0	-1.0	15.545	1.863	955.0	1.0	Certain	-5.08	1.7	3562.5	Yes		6.7814269535673795			672.0	TrialHappiness	Mixed
60.0	3	110.176	4.012	1143.94	-1.0	-1.0	15.545	6.25	955.0	1.0	Certain	-5.08	1.7	3562.5	Yes		6.7814269535673795				ISIRate	Mixed
61.0	3	116.445	0.019	1150.209	9.57	4.78	16.7412	3.0	955.0	2.0	Outcome2	10.9	9.57	0.0	No	2.0	-1.3290864477161202	1.583	118.028		GetAnswer	Loss
61.0	3	118.05	0.022	1151.814	9.57	4.78	16.7412	4.0	955.0	2.0	Outcome2	10.9	9.57	0.0	No		-1.3290864477161202				ShowChoice	Loss
61.0	3	122.062	0.012	1155.826	9.57	4.78	16.7412	1.0	955.0	2.0	Outcome2	10.9	9.57	0.0	No		-1.3290864477161202				ShowResult	Loss
61.0	3	123.082	0.02	1156.846	9.57	4.78	16.7412	4.586	955.0	2.0	Outcome2	10.9	9.57	0.0	No		-1.3290864477161202				ISITrial	Loss
62.0	3	127.695	0.027	1161.459	12.3	2.5	18.2787	3.0	955.0	5.0	Outcome2	5.0	12.3	3748.75	Yes	2.0	7.2955832389581	1.433	129.128		GetAnswer	Loss
62.0	3	129.15	0.022	1162.914	12.3	2.5	18.2787	4.0	955.0	5.0	Outcome2	5.0	12.3	3748.75	Yes		7.2955832389581				ShowChoice	Loss
62.0	3	133.162	0.012	1166.926	12.3	2.5	18.2787	1.0	955.0	5.0	Outcome2	5.0	12.3	3748.75	Yes		7.2955832389581				ShowResult	Loss
62.0	3	134.181	0.019	1167.945	12.3	2.5	18.2787	5.212	955.0	5.0	Outcome2	5.0	12.3	3748.75	Yes		7.2955832389581				ISITrial	Loss
62.0	3	143.192	0.029	1176.956	12.3	2.5	18.2787	0.958	955.0	5.0	Outcome2	5.0	12.3	3748.75	Yes		7.2955832389581			688.0	TrialHappiness	Loss
62.0	3	147.204	4.012	1180.968	12.3	2.5	18.2787	6.995	955.0	5.0	Outcome2	5.0	12.3	3748.75	Yes		7.2955832389581				ISIRate	Loss
63.0	3	154.225	0.026	1187.989	4.38	2.19	18.8262	3.0	955.0	3.16	Outcome1	4.38	5.7	0.0	No	2.0	-1.3175726689316698	1.013	155.238		GetAnswer	Gain
63.0	3	155.261	0.023	1189.025	4.38	2.19	18.8262	4.0	955.0	3.16	Outcome1	4.38	5.7	0.0	No		-1.3175726689316698				ShowChoice	Gain
63.0	3	159.273	0.012	1193.037	4.38	2.19	18.8262	1.0	955.0	3.16	Outcome1	4.38	5.7	0.0	No		-1.3175726689316698				ShowResult	Gain
63.0	3	160.293	0.02	1194.057	4.38	2.19	18.8262	5.595	955.0	3.16	Outcome1	4.38	5.7	0.0	No		-1.3175726689316698				ISITrial	Gain
64.0	3	165.91	0.022	1199.674	9.9	1.12	20.0637	3.0	955.0	3.6	Outcome1	9.9	2.25	0.0	No	2.0	7.64665911664779	0.742	166.652		GetAnswer	Gain
64.0	3	166.679	0.027	1200.443	9.9	1.12	20.0637	4.0	955.0	3.6	Outcome1	9.9	2.25	0.0	No		7.64665911664779				ShowChoice	Gain
64.0	3	170.691	0.012	1204.455	9.9	1.12	20.0637	1.0	955.0	3.6	Outcome1	9.9	2.25	0.0	No		7.64665911664779				ShowResult	Gain
64.0	3	171.71	0.019	1205.474	9.9	1.12	20.0637	5.47	955.0	3.6	Outcome1	9.9	2.25	0.0	No		7.64665911664779				ISITrial	Gain
65.0	3	177.21	0.03	1210.974	11.7	1.88	21.5262	3.0	955.0	3.16	Outcome2	3.75	11.7	2996.75	Yes	2.0	7.9490373725934305	0.78	177.99		GetAnswer	Loss
65.0	3	178.013	0.023	1211.777	11.7	1.88	21.5262	4.0	955.0	3.16	Outcome2	3.75	11.7	2996.75	Yes		7.9490373725934305				ShowChoice	Loss
65.0	3	182.025	0.012	1215.789	11.7	1.88	21.5262	1.0	955.0	3.16	Outcome2	3.75	11.7	2996.75	Yes		7.9490373725934305				ShowResult	Loss
65.0	3	183.044	0.019	1216.808	11.7	1.88	21.5262	3.344	955.0	3.16	Outcome2	3.75	11.7	2996.75	Yes		7.9490373725934305				ISITrial	Loss
65.0	3	189.43	0.029	1223.194	11.7	1.88	21.5262	2.649	955.0	3.16	Outcome2	3.75	11.7	2996.75	Yes		7.9490373725934305			692.0	TrialHappiness	Loss
65.0	3	193.442	4.012	1227.206	11.7	1.88	21.5262	3.987	955.0	3.16	Outcome2	3.75	11.7	2996.75	Yes		7.9490373725934305				ISIRate	Loss
66.0	3	197.454	0.025	1231.218	0.0	0.0	21.5262	3.0	955.0	2.0	Certain	-3.88	4.3	0.0	No	4.0	8.183465458663651	1.821	199.275		GetAnswer	Mixed
66.0	3	199.293	0.018	1233.057	0.0	0.0	21.5262	4.0	955.0	2.0	Certain	-3.88	4.3	0.0	No		8.183465458663651				ShowChoice	Mixed
66.0	3	203.305	0.012	1237.069	0.0	0.0	21.5262	1.0	955.0	2.0	Certain	-3.88	4.3	0.0	No		8.183465458663651				ShowResult	Mixed
66.0	3	204.325	0.02	1238.089	0.0	0.0	21.5262	3.959	955.0	2.0	Certain	-3.88	4.3	0.0	No		8.183465458663651				ISITrial	Mixed
67.0	3	208.303	0.019	1242.067	8.9	0.21	22.6387	3.0	955.0	2.0	Outcome2	0.42	8.9	2918.5	Yes	2.0	8.48131370328426	1.015	209.318		GetAnswer	Gain
67.0	3	209.34	0.022	1243.104	8.9	0.21	22.6387	4.0	955.0	2.0	Outcome2	0.42	8.9	2918.5	Yes		8.48131370328426				ShowChoice	Gain
67.0	3	213.352	0.012	1247.116	8.9	0.21	22.6387	1.0	955.0	2.0	Outcome2	0.42	8.9	2918.5	Yes		8.48131370328426				ShowResult	Gain
67.0	3	214.371	0.019	1248.135	8.9	0.21	22.6387	4.199	955.0	2.0	Outcome2	0.42	8.9	2918.5	Yes		8.48131370328426				ISITrial	Gain
67.0	3	221.526	0.024	1255.29	8.9	0.21	22.6387	3.63	955.0	2.0	Outcome2	0.42	8.9	2918.5	Yes		8.48131370328426			640.0	TrialHappiness	Gain
67.0	3	225.538	4.012	1259.302	8.9	0.21	22.6387	3.674	955.0	2.0	Outcome2	0.42	8.9	2918.5	Yes		8.48131370328426				ISIRate	Gain
68.0	3	229.233	0.021	1262.997	-0.88	-0.88	22.5287	3.0	955.0	3.6	Certain	-1.76	7.9	0.0	No	4.0	9.662514156285392	2.201	231.434		GetAnswer	Gain
68.0	3	231.456	0.022	1265.22	-0.88	-0.88	22.5287	4.0	955.0	3.6	Certain	-1.76	7.9	0.0	No		9.662514156285392				ShowChoice	Gain
68.0	3	235.468	0.012	1269.232	-0.88	-0.88	22.5287	1.0	955.0	3.6	Certain	-1.76	7.9	0.0	No		9.662514156285392				ShowResult	Gain
68.0	3	236.488	0.02	1270.252	-0.88	-0.88	22.5287	2.185	955.0	3.6	Certain	-1.76	7.9	0.0	No		9.662514156285392				ISITrial	Gain
69.0	3	238.694	0.021	1272.458	-1.0	-1.0	22.4037	3.0	955.0	0.66	Certain	-6.72	3.3	0.0	No	4.0	10.0192525481314	2.587	241.281		GetAnswer	Mixed
69.0	3	241.302	0.021	1275.066	-1.0	-1.0	22.4037	4.0	955.0	0.66	Certain	-6.72	3.3	0.0	No		10.0192525481314				ShowChoice	Mixed
69.0	3	245.314	0.012	1279.078	-1.0	-1.0	22.4037	1.0	955.0	0.66	Certain	-6.72	3.3	0.0	No		10.0192525481314				ShowResult	Mixed
69.0	3	246.334	0.02	1280.098	-1.0	-1.0	22.4037	2.0	955.0	0.66	Certain	-6.72	3.3	0.0	No		10.0192525481314				ISITrial	Mixed
70.0	3	248.357	0.023	1282.121	5.9	0.0	23.1412	3.0	955.0	3.6	Outcome2	-4.48	5.9	3651.25	Yes	2.0	10.375990939977301	1.981	250.338		GetAnswer	Gain
70.0	3	250.363	0.025	1284.127	5.9	0.0	23.1412	4.0	955.0	3.6	Outcome2	-4.48	5.9	3651.25	Yes		10.375990939977301				ShowChoice	Gain
70.0	3	254.375	0.012	1288.139	5.9	0.0	23.1412	1.0	955.0	3.6	Outcome2	-4.48	5.9	3651.25	Yes		10.375990939977301				ShowResult	Gain
70.0	3	255.394	0.019	1289.158	5.9	0.0	23.1412	2.623	955.0	3.6	Outcome2	-4.48	5.9	3651.25	Yes		10.375990939977301				ISITrial	Gain
70.0	3	261.713	0.027	1295.477	5.9	0.0	23.1412	2.614	955.0	3.6	Outcome2	-4.48	5.9	3651.25	Yes		10.375990939977301			712.0	TrialHappiness	Gain
70.0	3	265.725	4.012	1299.489	5.9	0.0	23.1412	6.605	955.0	3.6	Outcome2	-4.48	5.9	3651.25	Yes		10.375990939977301				ISIRate	Gain
71.0	3	272.362	0.032	1306.126	-2.0	-2.0	22.8912	3.0	955.0	1.5	Certain	-7.41	2.1	0.0	No	4.0	9.50962627406568	2.895	275.257		GetAnswer	Mixed
71.0	3	275.27	0.013	1309.034	-2.0	-2.0	22.8912	4.0	955.0	1.5	Certain	-7.41	2.1	0.0	No		9.50962627406568				ShowChoice	Mixed
71.0	3	279.282	0.012	1313.046	-2.0	-2.0	22.8912	1.0	955.0	1.5	Certain	-7.41	2.1	0.0	No		9.50962627406568				ShowResult	Mixed
71.0	3	280.302	0.02	1314.066	-2.0	-2.0	22.8912	5.499	955.0	1.5	Certain	-7.41	2.1	0.0	No		9.50962627406568				ISITrial	Mixed
72.0	3	285.819	0.018	1319.583	12.7	1.46	24.4787	3.0	955.0	1.82	Outcome2	2.92	12.7	3080.5	Yes	2.0	9.78482446206116	1.249	287.068		GetAnswer	Loss
72.0	3	287.089	0.021	1320.853	12.7	1.46	24.4787	4.0	955.0	1.82	Outcome2	2.92	12.7	3080.5	Yes		9.78482446206116				ShowChoice	Loss
72.0	3	291.101	0.012	1324.865	12.7	1.46	24.4787	1.0	955.0	1.82	Outcome2	2.92	12.7	3080.5	Yes		9.78482446206116				ShowResult	Loss
72.0	3	292.121	0.02	1325.885	12.7	1.46	24.4787	5.672	955.0	1.82	Outcome2	2.92	12.7	3080.5	Yes		9.78482446206116				ISITrial	Loss
72.0	3	300.914	0.029	1334.678	12.7	1.46	24.4787	1.663	955.0	1.82	Outcome2	2.92	12.7	3080.5	Yes		9.78482446206116			672.0	TrialHappiness	Loss
72.0	3	304.926	4.012	1338.69	12.7	1.46	24.4787	4.322	955.0	1.82	Outcome2	2.92	12.7	3080.5	Yes		9.78482446206116				ISIRate	Loss
73.0	3	309.272	0.024	1343.036	9.7	-0.52	25.6912	3.0	955.0	3.16	Outcome1	9.7	-1.04	0.0	No	2.0	10.7395243488109	1.522	310.794		GetAnswer	Gain
73.0	3	310.81	0.016	1344.574	9.7	-0.52	25.6912	4.0	955.0	3.16	Outcome1	9.7	-1.04	0.0	No		10.7395243488109				ShowChoice	Gain
73.0	3	314.822	0.012	1348.586	9.7	-0.52	25.6912	1.0	955.0	3.16	Outcome1	9.7	-1.04	0.0	No		10.7395243488109				ShowResult	Gain
73.0	3	315.842	0.02	1349.606	9.7	-0.52	25.6912	4.616	955.0	3.16	Outcome1	9.7	-1.04	0.0	No		10.7395243488109				ISITrial	Gain
74.0	3	320.489	0.031	1354.253	10.83	5.42	27.045	3.0	955.0	1.68	Outcome1	10.83	12.5	3056.25	Yes	2.0	-1.66949792374481	0.893	321.382		GetAnswer	Loss
74.0	3	321.409	0.027	1355.173	10.83	5.42	27.045	4.0	955.0	1.68	Outcome1	10.83	12.5	3056.25	Yes		-1.66949792374481				ShowChoice	Loss
74.0	3	325.421	0.012	1359.185	10.83	5.42	27.045	1.0	955.0	1.68	Outcome1	10.83	12.5	3056.25	Yes		-1.66949792374481				ShowResult	Loss
74.0	3	326.44	0.019	1360.204	10.83	5.42	27.045	3.909	955.0	1.68	Outcome1	10.83	12.5	3056.25	Yes		-1.66949792374481				ISITrial	Loss
74.0	3	333.445	0.02	1367.209	10.83	5.42	27.045	1.946	955.0	1.68	Outcome1	10.83	12.5	3056.25	Yes		-1.66949792374481			672.0	TrialHappiness	Loss
74.0	3	337.457	4.012	1371.221	10.83	5.42	27.045	4.225	955.0	1.68	Outcome1	10.83	12.5	3056.25	Yes		-1.66949792374481				ISIRate	Loss
75.0	3	341.703	0.021	1375.467	-2.0	-2.0	26.795	3.0	955.0	0.3	Certain	-1.3	-3.0	0.0	No	4.0	-1.6962061155152899	2.549	344.252		GetAnswer	Mixed
75.0	3	344.277	0.025	1378.041	-2.0	-2.0	26.795	4.0	955.0	0.3	Certain	-1.3	-3.0	0.0	No		-1.6962061155152899				ShowChoice	Mixed
75.0	3	348.289	0.012	1382.053	-2.0	-2.0	26.795	1.0	955.0	0.3	Certain	-1.3	-3.0	0.0	No		-1.6962061155152899				ShowResult	Mixed
75.0	3	349.309	0.02	1383.073	-2.0	-2.0	26.795	4.979	955.0	0.3	Certain	-1.3	-3.0	0.0	No		-1.6962061155152899				ISITrial	Mixed
76.0	3	354.307	0.019	1388.071	3.38	1.69	27.2175	3.0	955.0	2.22	Outcome2	5.1	3.38	0.0	No	2.0	-1.7229143072857698	1.518	355.825		GetAnswer	Gain
76.0	3	355.845	0.02	1389.609	3.38	1.69	27.2175	4.0	955.0	2.22	Outcome2	5.1	3.38	0.0	No		-1.7229143072857698				ShowChoice	Gain
76.0	3	359.857	0.012	1393.621	3.38	1.69	27.2175	1.0	955.0	2.22	Outcome2	5.1	3.38	0.0	No		-1.7229143072857698				ShowResult	Gain
76.0	3	360.877	0.02	1394.641	3.38	1.69	27.2175	3.931	955.0	2.22	Outcome2	5.1	3.38	0.0	No		-1.7229143072857698				ISITrial	Gain
77.0	3	364.839	0.031	1398.603	-3.0	-3.0	26.8425	3.0	955.0	0.52	Certain	3.1	-8.92	4000.0	Yes	4.0	12.0215175537939	2.529	367.368		GetAnswer	Mixed
77.0	3	367.379	0.011	1401.143	-3.0	-3.0	26.8425	4.0	955.0	0.52	Certain	3.1	-8.92	4000.0	Yes		12.0215175537939				ShowChoice	Mixed
77.0	3	371.391	0.012	1405.155	-3.0	-3.0	26.8425	1.0	955.0	0.52	Certain	3.1	-8.92	4000.0	Yes		12.0215175537939				ShowResult	Mixed
77.0	3	372.411	0.02	1406.175	-3.0	-3.0	26.8425	7.022	955.0	0.52	Certain	3.1	-8.92	4000.0	Yes		12.0215175537939				ISITrial	Mixed
77.0	3	383.478	0.029	1417.242	-3.0	-3.0	26.8425	1.644	955.0	0.52	Certain	3.1	-8.92	4000.0	Yes	{-2}2{-2}	12.0215175537939	1.644	385.122	720.0	TrialHappiness	Mixed
77.0	3	387.49	4.012	1421.254	-3.0	-3.0	26.8425	8.0	955.0	0.52	Certain	3.1	-8.92	4000.0	Yes		12.0215175537939				ISIRate	Mixed
78.0	3	395.514	0.024	1429.278	10.5	-0.52	28.155	3.0	955.0	1.68	Outcome1	10.5	-1.03	0.0	No	2.0	11.5266138165345	2.16	397.674		GetAnswer	Loss
78.0	3	397.687	0.013	1431.451	10.5	-0.52	28.155	4.0	955.0	1.68	Outcome1	10.5	-1.03	0.0	No		11.5266138165345				ShowChoice	Loss
78.0	3	401.699	0.012	1435.463	10.5	-0.52	28.155	1.0	955.0	1.68	Outcome1	10.5	-1.03	0.0	No		11.5266138165345				ShowResult	Loss
78.0	3	402.719	0.02	1436.483	10.5	-0.52	28.155	2.078	955.0	1.68	Outcome1	10.5	-1.03	0.0	No		11.5266138165345				ISITrial	Loss
79.0	3	404.825	0.028	1438.589	-3.0	-3.0	27.78	3.0	955.0	2.0	Certain	-9.49	2.3	2729.5	Yes	4.0	11.79275198188	1.841	406.666		GetAnswer	Mixed
79.0	3	406.68	0.014	1440.444	-3.0	-3.0	27.78	4.0	955.0	2.0	Certain	-9.49	2.3	2729.5	Yes		11.79275198188				ShowChoice	Mixed
79.0	3	410.692	0.012	1444.456	-3.0	-3.0	27.78	1.0	955.0	2.0	Certain	-9.49	2.3	2729.5	Yes		11.79275198188				ShowResult	Mixed
79.0	3	411.712	0.02	1445.476	-3.0	-3.0	27.78	3.829	955.0	2.0	Certain	-9.49	2.3	2729.5	Yes		11.79275198188				ISITrial	Mixed
79.0	3	418.315	0.028	1452.079	-3.0	-3.0	27.78	2.03	955.0	2.0	Certain	-9.49	2.3	2729.5	Yes		11.79275198188			760.0	TrialHappiness	Mixed
79.0	3	422.327	4.012	1456.091	-3.0	-3.0	27.78	2.918	955.0	2.0	Certain	-9.49	2.3	2729.5	Yes		11.79275198188				ISIRate	Mixed
80.0	3	425.269	0.024	1459.033	9.64	4.82	28.985	3.0	955.0	2.22	Outcome2	11.1	9.64	0.0	No	2.0	-1.4635711589279	1.064	426.333		GetAnswer	Loss
80.0	3	426.356	0.023	1460.12	9.64	4.82	28.985	4.0	955.0	2.22	Outcome2	11.1	9.64	0.0	No		-1.4635711589279				ShowChoice	Loss
80.0	3	430.368	0.012	1464.132	9.64	4.82	28.985	1.0	955.0	2.22	Outcome2	11.1	9.64	0.0	No		-1.4635711589279				ShowResult	Loss
80.0	3	431.388	0.02	1465.152	9.64	4.82	28.985	3.336	955.0	2.22	Outcome2	11.1	9.64	0.0	No		-1.4635711589279				ISITrial	Loss
81.0	3	434.748	0.024	1468.512	-1.0	-1.0	28.86	3.0	955.0	1.82	Certain	-6.9	4.7	3923.75	Yes	4.0	11.6002265005663	1.903	436.651		GetAnswer	Gain
81.0	3	436.67	0.019	1470.434	-1.0	-1.0	28.86	4.0	955.0	1.82	Certain	-6.9	4.7	3923.75	Yes		11.6002265005663				ShowChoice	Gain
81.0	3	440.682	0.012	1474.446	-1.0	-1.0	28.86	1.0	955.0	1.82	Certain	-6.9	4.7	3923.75	Yes		11.6002265005663				ShowResult	Gain
81.0	3	441.702	0.02	1475.466	-1.0	-1.0	28.86	3.919	955.0	1.82	Certain	-6.9	4.7	3923.75	Yes		11.6002265005663				ISITrial	Gain
81.0	3	449.592	0.021	1483.356	-1.0	-1.0	28.86	0.959	955.0	1.82	Certain	-6.9	4.7	3923.75	Yes		11.6002265005663			728.0	TrialHappiness	Gain
81.0	3	453.604	4.012	1487.368	-1.0	-1.0	28.86	7.695	955.0	1.82	Certain	-6.9	4.7	3923.75	Yes		11.6002265005663				ISIRate	Gain
	3	461.327	0.028	1495.091				3.0													CurrentEarnings	
	3	464.353	0.026	1498.117				-0.001								{SPACE}		13.258	477.611		Goodbye	
