trial_number	block	onset	onset_delay	onset_unadjusted	amount_change	certain_amount	current_amount	duration	mood_target	multiplier	outcome	outcome1_amount	outcome2_amount	question_duration	rating	response	rpe	rt	rt_time	slider_response	trial_phase	trial_type
	0	-45.325	0.022	27.367				-0.001								{SPACE}		3.295	-42.03		Welcome	
	0	-42.009	0.021	30.683				5.0													LifeHappyPreview	
	0	-36.978	0.031	35.714				3.087								2{-2}2{-2}2{-2}2{-2}2{-2}2{-2}2{-2}2{-2}2{-2}		3.087	-33.891	840.0	LifeHappiness	
	0	-19.6	0.014	53.092				4.0													BlockHappyPreview	
	0	-15.585	0.015	57.107				2.665												784.0	BlockStartHappiness	
	0	-5.938	0.013	66.754				-0.001								5.0					ScanWait	
	1	0.026	0.026	72.718				10.0													GetReady	
1.0	1	10.056	0.03	82.748	9.5	3.3	11.1875	3.0	955.0	2.8	Outcome1	9.5	6.6	0.0	No	2.0	2.9048697621744104	1.274	11.33		GetAnswer	Gain
1.0	1	11.356	0.026	84.048	9.5	3.3	11.1875	4.0	955.0	2.8	Outcome1	9.5	6.6	0.0	No		2.9048697621744104				ShowChoice	Gain
1.0	1	15.371	0.015	88.063	9.5	3.3	11.1875	1.0	955.0	2.8	Outcome1	9.5	6.6	0.0	No		2.9048697621744104				ShowResult	Gain
1.0	1	16.387	0.016	89.079	9.5	3.3	11.1875	2.431	955.0	2.8	Outcome1	9.5	6.6	0.0	No		2.9048697621744104				ISITrial	Gain
2.0	1	18.836	0.018	91.528	1.9	0.0	11.425	3.0	955.0	1.2	Outcome1	1.9	-1.2	0.0	No	2.0	3.09852774631937	0.909	19.745		GetAnswer	Mixed
2.0	1	19.769	0.024	92.461	1.9	0.0	11.425	4.0	955.0	1.2	Outcome1	1.9	-1.2	0.0	No		3.09852774631937				ShowChoice	Mixed
2.0	1	23.785	0.016	96.477	1.9	0.0	11.425	1.0	955.0	1.2	Outcome1	1.9	-1.2	0.0	No		3.09852774631937				ShowResult	Mixed
2.0	1	24.801	0.016	97.493	1.9	0.0	11.425	4.568	955.0	1.2	Outcome1	1.9	-1.2	0.0	No		3.09852774631937				ISITrial	Mixed
3.0	1	29.399	0.03	102.091	4.3	2.0	11.9625	3.0	955.0	2.0	Outcome1	4.3	1.01	2868.0	Yes	2.0	3.2921857304643303	1.236	30.635		GetAnswer	Mixed
3.0	1	30.649	0.014	103.341	4.3	2.0	11.9625	4.0	955.0	2.0	Outcome1	4.3	1.01	2868.0	Yes		3.2921857304643303				ShowChoice	Mixed
3.0	1	34.664	0.015	107.356	4.3	2.0	11.9625	1.0	955.0	2.0	Outcome1	4.3	1.01	2868.0	Yes		3.2921857304643303				ShowResult	Mixed
3.0	1	35.68	0.016	108.372	4.3	2.0	11.9625	3.243	955.0	2.0	Outcome1	4.3	1.01	2868.0	Yes		3.2921857304643303				ISITrial	Mixed
3.0	1	41.828	0.014	114.52	4.3	2.0	11.9625	2.37	955.0	2.0	Outcome1	4.3	1.01	2868.0	Yes		3.2921857304643303			808.0	TrialHappiness	Mixed
3.0	1	45.844	4.016	118.536	4.3	2.0	11.9625	3.472	955.0	2.0	Outcome1	4.3	1.01	2868.0	Yes		3.2921857304643303				ISIRate	Mixed
4.0	1	49.342	0.026	122.034	3.06	1.53	12.345	3.0	955.0	1.0	Outcome1	3.06	3.7	0.0	No	2.0	-0.644960362400906	1.28	50.622		GetAnswer	Mixed
4.0	1	50.642	0.02	123.334	3.06	1.53	12.345	4.0	955.0	1.0	Outcome1	3.06	3.7	0.0	No		-0.644960362400906				ShowChoice	Mixed
4.0	1	54.657	0.015	127.349	3.06	1.53	12.345	1.0	955.0	1.0	Outcome1	3.06	3.7	0.0	No		-0.644960362400906				ShowResult	Mixed
4.0	1	55.673	0.016	128.365	3.06	1.53	12.345	2.011	955.0	1.0	Outcome1	3.06	3.7	0.0	No		-0.644960362400906				ISITrial	Mixed
5.0	1	57.706	0.022	130.398	5.84	2.92	13.075	3.0	955.0	1.68	Outcome1	5.84	6.5	2582.5	Yes	2.0	-0.6588335220838051	1.027	58.733		GetAnswer	Gain
5.0	1	58.756	0.023	131.448	5.84	2.92	13.075	4.0	955.0	1.68	Outcome1	5.84	6.5	2582.5	Yes		-0.6588335220838051				ShowChoice	Gain
5.0	1	62.771	0.015	135.463	5.84	2.92	13.075	1.0	955.0	1.68	Outcome1	5.84	6.5	2582.5	Yes		-0.6588335220838051				ShowResult	Gain
5.0	1	63.787	0.016	136.479	5.84	2.92	13.075	5.129	955.0	1.68	Outcome1	5.84	6.5	2582.5	Yes		-0.6588335220838051				ISITrial	Gain
5.0	1	71.535	0.017	144.227	5.84	2.92	13.075	1.538	955.0	1.68	Outcome1	5.84	6.5	2582.5	Yes		-0.6588335220838051			848.0	TrialHappiness	Gain
5.0	1	75.55	4.015	148.242	5.84	2.92	13.075	2.33	955.0	1.68	Outcome1	5.84	6.5	2582.5	Yes		-0.6588335220838051				ISIRate	Gain
6.0	1	77.899	0.019	150.591	0.19	0.0	13.0988	3.0	955.0	0.3	Outcome1	0.19	0.7	0.0	No	2.0	-0.51038127595319	1.371	79.27		GetAnswer	Mixed
6.0	1	79.299	0.029	151.991	0.19	0.0	13.0988	4.0	955.0	0.3	Outcome1	0.19	0.7	0.0	No		-0.51038127595319				ShowChoice	Mixed
6.0	1	83.314	0.015	156.006	0.19	0.0	13.0988	1.0	955.0	0.3	Outcome1	0.19	0.7	0.0	No		-0.51038127595319				ShowResult	Mixed
6.0	1	84.33	0.016	157.022	0.19	0.0	13.0988	6.232	955.0	0.3	Outcome1	0.19	0.7	0.0	No		-0.51038127595319				ISITrial	Mixed
7.0	1	90.595	0.033	163.287	11.9	4.53	14.5863	3.0	955.0	3.6	Outcome2	9.05	11.9	0.0	No	2.0	2.85277463193658	1.196	91.791		GetAnswer	Loss
7.0	1	91.811	0.02	164.503	11.9	4.53	14.5863	4.0	955.0	3.6	Outcome2	9.05	11.9	0.0	No		2.85277463193658				ShowChoice	Loss
7.0	1	95.826	0.015	168.518	11.9	4.53	14.5863	1.0	955.0	3.6	Outcome2	9.05	11.9	0.0	No		2.85277463193658				ShowResult	Loss
7.0	1	96.842	0.016	169.534	11.9	4.53	14.5863	2.305	955.0	3.6	Outcome2	9.05	11.9	0.0	No		2.85277463193658				ISITrial	Loss
8.0	1	99.175	0.028	171.867	-1.0	-1.0	14.4613	3.0	955.0	1.2	Certain	-3.07	-0.1	3112.5	Yes	4.0	2.97395243488109	2.266	101.441		GetAnswer	Mixed
8.0	1	101.457	0.016	174.149	-1.0	-1.0	14.4613	4.0	955.0	1.2	Certain	-3.07	-0.1	3112.5	Yes		2.97395243488109				ShowChoice	Mixed
8.0	1	105.473	0.016	178.165	-1.0	-1.0	14.4613	1.0	955.0	1.2	Certain	-3.07	-0.1	3112.5	Yes		2.97395243488109				ShowResult	Mixed
8.0	1	106.489	0.016	179.181	-1.0	-1.0	14.4613	3.506	955.0	1.2	Certain	-3.07	-0.1	3112.5	Yes		2.97395243488109				ISITrial	Mixed
8.0	1	113.153	0.02	185.845	-1.0	-1.0	14.4613	2.972	955.0	1.2	Certain	-3.07	-0.1	3112.5	Yes		2.97395243488109			800.0	TrialHappiness	Mixed
8.0	1	117.169	4.016	189.861	-1.0	-1.0	14.4613	4.45	955.0	1.2	Certain	-3.07	-0.1	3112.5	Yes		2.97395243488109				ISIRate	Mixed
9.0	1	121.65	0.031	194.342	1.7	0.0	14.6738	3.0	955.0	1.0	Outcome1	1.7	-2.21	0.0	No	2.0	3.91053227633069	2.479	124.129		GetAnswer	Mixed
9.0	1	124.15	0.021	196.842	1.7	0.0	14.6738	4.0	955.0	1.0	Outcome1	1.7	-2.21	0.0	No		3.91053227633069				ShowChoice	Mixed
9.0	1	128.165	0.015	200.857	1.7	0.0	14.6738	1.0	955.0	1.0	Outcome1	1.7	-2.21	0.0	No		3.91053227633069				ShowResult	Mixed
9.0	1	129.181	0.016	201.873	1.7	0.0	14.6738	2.0	955.0	1.0	Outcome1	1.7	-2.21	0.0	No		3.91053227633069				ISITrial	Mixed
10.0	1	131.214	0.033	203.906	0.5	-1.0	14.7363	3.0	955.0	0.2	Outcome2	-3.59	0.5	4000.0	Yes	2.0	4.08607021517554	1.55	132.764		GetAnswer	Mixed
10.0	1	132.78	0.016	205.472	0.5	-1.0	14.7363	4.0	955.0	0.2	Outcome2	-3.59	0.5	4000.0	Yes		4.08607021517554				ShowChoice	Mixed
10.0	1	136.795	0.015	209.487	0.5	-1.0	14.7363	1.0	955.0	0.2	Outcome2	-3.59	0.5	4000.0	Yes		4.08607021517554				ShowResult	Mixed
10.0	1	137.811	0.016	210.503	0.5	-1.0	14.7363	2.0	955.0	0.2	Outcome2	-3.59	0.5	4000.0	Yes		4.08607021517554				ISITrial	Mixed
10.0	1	143.859	0.032	216.551	0.5	-1.0	14.7363	2.056	955.0	0.2	Outcome2	-3.59	0.5	4000.0	Yes		4.08607021517554			852.0	TrialHappiness	Mixed
10.0	1	147.875	4.016	220.567	0.5	-1.0	14.7363	8.0	955.0	0.2	Outcome2	-3.59	0.5	4000.0	Yes		4.08607021517554				ISIRate	Mixed
11.0	1	155.905	0.03	228.597	4.95	2.48	15.3551	3.0	955.0	2.8	Outcome1	4.95	5.5	0.0	No	2.0	-0.553699509248773	1.716	157.621		GetAnswer	Gain
11.0	1	157.638	0.017	230.33	4.95	2.48	15.3551	4.0	955.0	2.8	Outcome1	4.95	5.5	0.0	No		-0.553699509248773				ShowChoice	Gain
11.0	1	161.653	0.015	234.345	4.95	2.48	15.3551	1.0	955.0	2.8	Outcome1	4.95	5.5	0.0	No		-0.553699509248773				ShowResult	Gain
11.0	1	162.669	0.016	235.361	4.95	2.48	15.3551	3.324	955.0	2.8	Outcome1	4.95	5.5	0.0	No		-0.553699509248773				ISITrial	Gain
12.0	1	166.018	0.025	238.71	4.74	2.37	15.9476	3.0	955.0	2.48	Outcome1	4.74	5.3	2618.75	Yes	2.0	-0.563420158550396	1.644	167.662		GetAnswer	Gain
12.0	1	167.684	0.022	240.376	4.74	2.37	15.9476	4.0	955.0	2.48	Outcome1	4.74	5.3	2618.75	Yes		-0.563420158550396				ShowChoice	Gain
12.0	1	171.7	0.016	244.392	4.74	2.37	15.9476	1.0	955.0	2.48	Outcome1	4.74	5.3	2618.75	Yes		-0.563420158550396				ShowResult	Gain
12.0	1	172.716	0.016	245.408	4.74	2.37	15.9476	6.642	955.0	2.48	Outcome1	4.74	5.3	2618.75	Yes		-0.563420158550396				ISITrial	Gain
12.0	1	182.029	0.03	254.721	4.74	2.37	15.9476	3.723	955.0	2.48	Outcome1	4.74	5.3	2618.75	Yes		-0.563420158550396			904.0	TrialHappiness	Gain
12.0	1	186.045	4.016	258.737	4.74	2.37	15.9476	2.475	955.0	2.48	Outcome1	4.74	5.3	2618.75	Yes		-0.563420158550396				ISIRate	Gain
13.0	1	188.544	0.024	261.236	1.94	2.0	16.1901	3.0	955.0	2.0	Outcome2	2.3	1.94	0.0	No	2.0	-0.36211778029445096	1.252	189.796		GetAnswer	Mixed
13.0	1	189.827	0.03	262.519	1.94	2.0	16.1901	4.0	955.0	2.0	Outcome2	2.3	1.94	0.0	No		-0.36211778029445096				ShowChoice	Mixed
13.0	1	193.842	0.015	266.534	1.94	2.0	16.1901	1.0	955.0	2.0	Outcome2	2.3	1.94	0.0	No		-0.36211778029445096				ShowResult	Mixed
13.0	1	194.858	0.016	267.55	1.94	2.0	16.1901	3.48	955.0	2.0	Outcome2	2.3	1.94	0.0	No		-0.36211778029445096				ISITrial	Mixed
14.0	1	198.357	0.019	271.049	12.1	4.66	17.7026	3.0	955.0	4.2	Outcome1	12.1	9.31	0.0	No	2.0	2.78595696489241	0.798	199.155		GetAnswer	Loss
14.0	1	199.173	0.018	271.865	12.1	4.66	17.7026	4.0	955.0	4.2	Outcome1	12.1	9.31	0.0	No		2.78595696489241				ShowChoice	Loss
14.0	1	203.189	0.016	275.881	12.1	4.66	17.7026	1.0	955.0	4.2	Outcome1	12.1	9.31	0.0	No		2.78595696489241				ShowResult	Loss
14.0	1	204.205	0.016	276.897	12.1	4.66	17.7026	5.019	955.0	4.2	Outcome1	12.1	9.31	0.0	No		2.78595696489241				ISITrial	Loss
15.0	1	209.253	0.029	281.945	0.0	0.0	17.7026	3.0	955.0	0.82	Certain	-1.34	1.5	3348.5	Yes	4.0	2.8437146092865198	1.635	210.888		GetAnswer	Mixed
15.0	1	210.903	0.015	283.595	0.0	0.0	17.7026	4.0	955.0	0.82	Certain	-1.34	1.5	3348.5	Yes		2.8437146092865198				ShowChoice	Mixed
15.0	1	214.918	0.015	287.61	0.0	0.0	17.7026	1.0	955.0	0.82	Certain	-1.34	1.5	3348.5	Yes		2.8437146092865198				ShowResult	Mixed
15.0	1	215.934	0.016	288.626	0.0	0.0	17.7026	7.614	955.0	0.82	Certain	-1.34	1.5	3348.5	Yes		2.8437146092865198				ISITrial	Mixed
15.0	1	226.93	0.017	299.622	0.0	0.0	17.7026	1.123	955.0	0.82	Certain	-1.34	1.5	3348.5	Yes		2.8437146092865198			784.0	TrialHappiness	Mixed
15.0	1	230.946	4.016	303.638	0.0	0.0	17.7026	5.394	955.0	0.82	Certain	-1.34	1.5	3348.5	Yes		2.8437146092865198				ISIRate	Mixed
16.0	1	236.36	0.02	309.052	7.44	3.72	18.6326	3.0	955.0	5.0	Outcome1	7.44	8.3	0.0	No	2.0	-0.8635334088335219	1.099	237.459		GetAnswer	Gain
16.0	1	237.477	0.018	310.169	7.44	3.72	18.6326	4.0	955.0	5.0	Outcome1	7.44	8.3	0.0	No		-0.8635334088335219				ShowChoice	Gain
16.0	1	241.492	0.015	314.184	7.44	3.72	18.6326	1.0	955.0	5.0	Outcome1	7.44	8.3	0.0	No		-0.8635334088335219				ShowResult	Gain
16.0	1	242.508	0.016	315.2	7.44	3.72	18.6326	3.008	955.0	5.0	Outcome1	7.44	8.3	0.0	No		-0.8635334088335219				ISITrial	Gain
17.0	1	245.541	0.025	318.233	2.0	2.0	18.8826	3.0	955.0	1.68	Certain	-0.63	4.5	3041.5	Yes	4.0	5.13363533408833	1.186	246.727		GetAnswer	Gain
17.0	1	246.74	0.013	319.432	2.0	2.0	18.8826	4.0	955.0	1.68	Certain	-0.63	4.5	3041.5	Yes		5.13363533408833				ShowChoice	Gain
17.0	1	250.755	0.015	323.447	2.0	2.0	18.8826	1.0	955.0	1.68	Certain	-0.63	4.5	3041.5	Yes		5.13363533408833				ShowResult	Gain
17.0	1	251.772	0.017	324.464	2.0	2.0	18.8826	3.566	955.0	1.68	Certain	-0.63	4.5	3041.5	Yes		5.13363533408833				ISITrial	Gain
17.0	1	258.419	0.023	331.111	2.0	2.0	18.8826	1.456	955.0	1.68	Certain	-0.63	4.5	3041.5	Yes		5.13363533408833			832.0	TrialHappiness	Gain
17.0	1	262.435	4.016	335.127	2.0	2.0	18.8826	4.166	955.0	1.68	Certain	-0.63	4.5	3041.5	Yes		5.13363533408833				ISIRate	Gain
18.0	1	266.633	0.032	339.325	11.1	3.3	20.2701	3.0	955.0	2.22	Outcome2	6.59	11.1	0.0	No	2.0	4.5118912797282	1.375	268.008		GetAnswer	Loss
18.0	1	268.033	0.025	340.725	11.1	3.3	20.2701	4.0	955.0	2.22	Outcome2	6.59	11.1	0.0	No		4.5118912797282				ShowChoice	Loss
18.0	1	272.048	0.015	344.74	11.1	3.3	20.2701	1.0	955.0	2.22	Outcome2	6.59	11.1	0.0	No		4.5118912797282				ShowResult	Loss
18.0	1	273.064	0.016	345.756	11.1	3.3	20.2701	6.787	955.0	2.22	Outcome2	6.59	11.1	0.0	No		4.5118912797282				ISITrial	Loss
19.0	1	279.879	0.028	352.571	12.5	3.92	21.8326	3.0	955.0	1.68	Outcome2	7.85	12.5	0.0	No	2.0	4.65118912797282	1.303	281.182		GetAnswer	Loss
19.0	1	281.195	0.013	353.887	12.5	3.92	21.8326	4.0	955.0	1.68	Outcome2	7.85	12.5	0.0	No		4.65118912797282				ShowChoice	Loss
19.0	1	285.21	0.015	357.902	12.5	3.92	21.8326	1.0	955.0	1.68	Outcome2	7.85	12.5	0.0	No		4.65118912797282				ShowResult	Loss
19.0	1	286.226	0.016	358.918	12.5	3.92	21.8326	2.0	955.0	1.68	Outcome2	7.85	12.5	0.0	No		4.65118912797282				ISITrial	Loss
20.0	1	288.242	0.016	360.934	2.58	1.29	22.1551	3.0	955.0	0.66	Outcome2	3.3	2.58	2921.25	Yes	2.0	-0.7242355605889009	1.322	289.564		GetAnswer	Mixed
20.0	1	289.575	0.011	362.267	2.58	1.29	22.1551	4.0	955.0	0.66	Outcome2	3.3	2.58	2921.25	Yes		-0.7242355605889009				ShowChoice	Mixed
20.0	1	293.59	0.015	366.282	2.58	1.29	22.1551	1.0	955.0	0.66	Outcome2	3.3	2.58	2921.25	Yes		-0.7242355605889009				ShowResult	Mixed
20.0	1	294.607	0.017	367.299	2.58	1.29	22.1551	8.0	955.0	0.66	Outcome2	3.3	2.58	2921.25	Yes		-0.7242355605889009				ISITrial	Mixed
20.0	1	305.57	0.028	378.262	2.58	1.29	22.1551	1.866	955.0	0.66	Outcome2	3.3	2.58	2921.25	Yes		-0.7242355605889009			800.0	TrialHappiness	Mixed
20.0	1	309.585	4.015	382.277	2.58	1.29	22.1551	3.685	955.0	0.66	Outcome2	3.3	2.58	2921.25	Yes		-0.7242355605889009				ISIRate	Mixed
21.0	1	313.3	0.03	385.992	2.5	0.0	22.4676	3.0	955.0	0.2	Outcome1	2.5	-2.97	0.0	No	2.0	5.47338618346546	1.886	315.186		GetAnswer	Mixed
21.0	1	315.2	0.014	387.892	2.5	0.0	22.4676	4.0	955.0	0.2	Outcome1	2.5	-2.97	0.0	No		5.47338618346546				ShowChoice	Mixed
21.0	1	319.215	0.015	391.907	2.5	0.0	22.4676	1.0	955.0	0.2	Outcome1	2.5	-2.97	0.0	No		5.47338618346546				ShowResult	Mixed
21.0	1	320.231	0.016	392.923	2.5	0.0	22.4676	3.555	955.0	0.2	Outcome1	2.5	-2.97	0.0	No		5.47338618346546				ISITrial	Mixed
22.0	1	323.813	0.027	396.505	-0.3	-3.0	22.4301	3.0	955.0	1.0	Outcome2	-5.95	-0.3	3219.5	Yes	2.0	5.6489241223103095	2.788	326.601		GetAnswer	Mixed
22.0	1	326.612	0.011	399.304	-0.3	-3.0	22.4301	4.0	955.0	1.0	Outcome2	-5.95	-0.3	3219.5	Yes		5.6489241223103095				ShowChoice	Mixed
22.0	1	330.628	0.016	403.32	-0.3	-3.0	22.4301	1.0	955.0	1.0	Outcome2	-5.95	-0.3	3219.5	Yes		5.6489241223103095				ShowResult	Mixed
22.0	1	331.644	0.016	404.336	-0.3	-3.0	22.4301	6.793	955.0	1.0	Outcome2	-5.95	-0.3	3219.5	Yes		5.6489241223103095				ISITrial	Mixed
22.0	1	341.707	0.029	414.399	-0.3	-3.0	22.4301	1.439	955.0	1.0	Outcome2	-5.95	-0.3	3219.5	Yes		5.6489241223103095			800.0	TrialHappiness	Mixed
22.0	1	345.722	4.015	418.414	-0.3	-3.0	22.4301	4.878	955.0	1.0	Outcome2	-5.95	-0.3	3219.5	Yes		5.6489241223103095				ISIRate	Mixed
23.0	1	350.621	0.021	423.313	10.5	2.34	23.7426	3.0	955.0	1.68	Outcome2	4.68	10.5	0.0	No	2.0	5.82446206115515	1.278	351.899		GetAnswer	Loss
23.0	1	351.92	0.021	424.612	10.5	2.34	23.7426	4.0	955.0	1.68	Outcome2	4.68	10.5	0.0	No		5.82446206115515				ShowChoice	Loss
23.0	1	355.935	0.015	428.627	10.5	2.34	23.7426	1.0	955.0	1.68	Outcome2	4.68	10.5	0.0	No		5.82446206115515				ShowResult	Loss
23.0	1	356.952	0.017	429.644	10.5	2.34	23.7426	8.0	955.0	1.68	Outcome2	4.68	10.5	0.0	No		5.82446206115515				ISITrial	Loss
24.0	1	364.982	0.03	437.674	6.1	0.05	24.5051	3.0	955.0	4.2	Outcome1	6.1	0.1	3255.0	Yes	2.0	6.0	1.263	366.245		GetAnswer	Gain
24.0	1	366.265	0.02	438.957	6.1	0.05	24.5051	4.0	955.0	4.2	Outcome1	6.1	0.1	3255.0	Yes		6.0				ShowChoice	Gain
24.0	1	370.28	0.015	442.972	6.1	0.05	24.5051	1.0	955.0	4.2	Outcome1	6.1	0.1	3255.0	Yes		6.0				ShowResult	Gain
24.0	1	371.297	0.017	443.989	6.1	0.05	24.5051	2.0	955.0	4.2	Outcome1	6.1	0.1	3255.0	Yes		6.0				ISITrial	Gain
24.0	1	376.595	0.027	449.287	6.1	0.05	24.5051	2.023	955.0	4.2	Outcome1	6.1	0.1	3255.0	Yes		6.0			896.0	TrialHappiness	Gain
24.0	1	380.61	4.015	453.302	6.1	0.05	24.5051	5.02	955.0	4.2	Outcome1	6.1	0.1	3255.0	Yes		6.0				ISIRate	Gain
25.0	1	385.658	0.028	458.35	9.7	2.58	25.7176	3.0	955.0	3.16	Outcome2	5.16	9.7	0.0	No	2.0	4.544733861834651	1.441	387.099		GetAnswer	Gain
25.0	1	387.124	0.025	459.816	9.7	2.58	25.7176	4.0	955.0	3.16	Outcome2	5.16	9.7	0.0	No		4.544733861834651				ShowChoice	Gain
25.0	1	391.14	0.016	463.832	9.7	2.58	25.7176	1.0	955.0	3.16	Outcome2	5.16	9.7	0.0	No		4.544733861834651				ShowResult	Gain
25.0	1	392.156	0.016	464.848	9.7	2.58	25.7176	3.749	955.0	3.16	Outcome2	5.16	9.7	0.0	No		4.544733861834651				ISITrial	Gain
26.0	1	395.921	0.016	468.613	8.1	1.74	26.7301	3.0	955.0	4.2	Outcome1	8.1	3.49	0.0	No	2.0	4.61155152887882	1.516	397.437		GetAnswer	Gain
26.0	1	397.454	0.017	470.146	8.1	1.74	26.7301	4.0	955.0	4.2	Outcome1	8.1	3.49	0.0	No		4.61155152887882				ShowChoice	Gain
26.0	1	401.47	0.016	474.162	8.1	1.74	26.7301	1.0	955.0	4.2	Outcome1	8.1	3.49	0.0	No		4.61155152887882				ShowResult	Gain
26.0	1	402.486	0.016	475.178	8.1	1.74	26.7301	7.834	955.0	4.2	Outcome1	8.1	3.49	0.0	No		4.61155152887882				ISITrial	Gain
27.0	1	410.35	0.03	483.042	8.35	4.18	27.7739	3.0	955.0	2.0	Outcome1	8.35	8.9	2549.75	Yes	2.0	-0.5457719894299741	1.262	411.612		GetAnswer	Gain
27.0	1	411.633	0.021	484.325	8.35	4.18	27.7739	4.0	955.0	2.0	Outcome1	8.35	8.9	2549.75	Yes		-0.5457719894299741				ShowChoice	Gain
27.0	1	415.648	0.015	488.34	8.35	4.18	27.7739	1.0	955.0	2.0	Outcome1	8.35	8.9	2549.75	Yes		-0.5457719894299741				ShowResult	Gain
27.0	1	416.664	0.016	489.356	8.35	4.18	27.7739	4.225	955.0	2.0	Outcome1	8.35	8.9	2549.75	Yes		-0.5457719894299741				ISITrial	Gain
27.0	1	423.478	0.015	496.17	8.35	4.18	27.7739	2.056	955.0	2.0	Outcome1	8.35	8.9	2549.75	Yes		-0.5457719894299741			952.0	TrialHappiness	Gain
27.0	1	427.494	4.016	500.186	8.35	4.18	27.7739	2.199	955.0	2.0	Outcome1	8.35	8.9	2549.75	Yes		-0.5457719894299741				ISIRate	Gain
	1	429.71	0.017	502.402				-0.001								{SPACE}		73.353	503.063		Rest	
	1	503.084	0.021	575.776				4.0													BlockHappyPreview	
	1	507.099	0.015	579.791				1.873												872.0	BlockStartHappiness	
	1	512.931	0.012	585.623				-0.001								5.0		4.361	517.292		ScanWait	
	2	0.02	0.02	590.004				10.0													GetReady	
28.0	2	10.034	0.014	600.018	-1.34	-0.67	27.6064	3.0	70.0	5.0	Outcome1	-1.34	12.3	0.0	No	2.0	-13.6394557823129	1.518	11.552		GetAnswer	Loss
28.0	2	11.566	0.014	601.55	-1.34	-0.67	27.6064	4.0	70.0	5.0	Outcome1	-1.34	12.3	0.0	No		-13.6394557823129				ShowChoice	Loss
28.0	2	15.582	0.016	605.566	-1.34	-0.67	27.6064	1.0	70.0	5.0	Outcome1	-1.34	12.3	0.0	No		-13.6394557823129				ShowResult	Loss
28.0	2	16.598	0.016	606.582	-1.34	-0.67	27.6064	3.575	70.0	5.0	Outcome1	-1.34	12.3	0.0	No		-13.6394557823129				ISITrial	Loss
29.0	2	20.197	0.024	610.181	-13.45	-6.0	25.9252	3.0	70.0	0.52	Outcome1	-13.45	1.1	3529.0	Yes	2.0	-14.548752834467098	2.317	22.514		GetAnswer	Mixed
29.0	2	22.529	0.015	612.513	-13.45	-6.0	25.9252	4.0	70.0	0.52	Outcome1	-13.45	1.1	3529.0	Yes		-14.548752834467098				ShowChoice	Mixed
29.0	2	26.544	0.015	616.528	-13.45	-6.0	25.9252	1.0	70.0	0.52	Outcome1	-13.45	1.1	3529.0	Yes		-14.548752834467098				ShowResult	Mixed
29.0	2	27.561	0.017	617.545	-13.45	-6.0	25.9252	3.955	70.0	0.52	Outcome1	-13.45	1.1	3529.0	Yes		-14.548752834467098				ISITrial	Mixed
29.0	2	35.075	0.02	625.059	-13.45	-6.0	25.9252	0.972	70.0	0.52	Outcome1	-13.45	1.1	3529.0	Yes		-14.548752834467098			328.0	TrialHappiness	Mixed
29.0	2	39.09	4.015	629.074	-13.45	-6.0	25.9252	6.116	70.0	0.52	Outcome1	-13.45	1.1	3529.0	Yes		-14.548752834467098				ISIRate	Mixed
30.0	2	45.238	0.032	635.222	-2.0	-2.0	25.6752	3.0	70.0	0.4	Certain	-5.31	0.9	0.0	No	4.0	-6.206349206349209	2.677	47.915		GetAnswer	Mixed
30.0	2	47.937	0.022	637.921	-2.0	-2.0	25.6752	4.0	70.0	0.4	Certain	-5.31	0.9	0.0	No		-6.206349206349209				ShowChoice	Mixed
30.0	2	51.952	0.015	641.936	-2.0	-2.0	25.6752	1.0	70.0	0.4	Certain	-5.31	0.9	0.0	No		-6.206349206349209				ShowResult	Mixed
30.0	2	52.969	0.017	642.953	-2.0	-2.0	25.6752	4.453	70.0	0.4	Certain	-5.31	0.9	0.0	No		-6.206349206349209				ISITrial	Mixed
31.0	2	57.45	0.028	647.434	-4.0	-4.0	25.1752	3.0	70.0	0.66	Certain	-7.2	-0.7	2503.25	Yes	4.0	-6.4988662131519295	2.495	59.945		GetAnswer	Mixed
31.0	2	59.966	0.021	649.95	-4.0	-4.0	25.1752	4.0	70.0	0.66	Certain	-7.2	-0.7	2503.25	Yes		-6.4988662131519295				ShowChoice	Mixed
31.0	2	63.981	0.015	653.965	-4.0	-4.0	25.1752	1.0	70.0	0.66	Certain	-7.2	-0.7	2503.25	Yes		-6.4988662131519295				ShowResult	Mixed
31.0	2	64.998	0.017	654.982	-4.0	-4.0	25.1752	4.786	70.0	0.66	Certain	-7.2	-0.7	2503.25	Yes		-6.4988662131519295				ISITrial	Mixed
31.0	2	72.329	0.03	662.313	-4.0	-4.0	25.1752	2.875	70.0	0.66	Certain	-7.2	-0.7	2503.25	Yes		-6.4988662131519295			280.0	TrialHappiness	Mixed
31.0	2	76.344	4.015	666.328	-4.0	-4.0	25.1752	2.013	70.0	0.66	Certain	-7.2	-0.7	2503.25	Yes		-6.4988662131519295				ISIRate	Mixed
32.0	2	78.376	0.019	668.36	1.92	1.0	25.4152	3.0	70.0	3.16	Outcome1	1.92	0.87	0.0	No	2.0	1.0534769463340898	1.643	80.019		GetAnswer	Gain
32.0	2	80.042	0.023	670.026	1.92	1.0	25.4152	4.0	70.0	3.16	Outcome1	1.92	0.87	0.0	No		1.0534769463340898				ShowChoice	Gain
32.0	2	84.058	0.016	674.042	1.92	1.0	25.4152	1.0	70.0	3.16	Outcome1	1.92	0.87	0.0	No		1.0534769463340898				ShowResult	Gain
32.0	2	85.074	0.016	675.058	1.92	1.0	25.4152	2.0	70.0	3.16	Outcome1	1.92	0.87	0.0	No		1.0534769463340898				ISITrial	Gain
33.0	2	87.107	0.033	677.091	-7.71	-4.0	24.4514	3.0	70.0	0.2	Outcome2	-1.5	-7.71	0.0	No	2.0	-6.213151927437639	1.884	88.991		GetAnswer	Mixed
33.0	2	89.006	0.015	678.99	-7.71	-4.0	24.4514	4.0	70.0	0.2	Outcome2	-1.5	-7.71	0.0	No		-6.213151927437639				ShowChoice	Mixed
33.0	2	93.021	0.015	683.005	-7.71	-4.0	24.4514	1.0	70.0	0.2	Outcome2	-1.5	-7.71	0.0	No		-6.213151927437639				ShowResult	Mixed
33.0	2	94.038	0.017	684.022	-7.71	-4.0	24.4514	5.099	70.0	0.2	Outcome2	-1.5	-7.71	0.0	No		-6.213151927437639				ISITrial	Mixed
34.0	2	99.152	0.015	689.136	-1.75	1.0	24.2326	3.0	70.0	1.82	Outcome1	-1.75	4.7	3231.5	Yes	2.0	-6.45124716553288	2.302	101.454		GetAnswer	Gain
34.0	2	101.468	0.014	691.452	-1.75	1.0	24.2326	4.0	70.0	1.82	Outcome1	-1.75	4.7	3231.5	Yes		-6.45124716553288				ShowChoice	Gain
34.0	2	105.484	0.016	695.468	-1.75	1.0	24.2326	1.0	70.0	1.82	Outcome1	-1.75	4.7	3231.5	Yes		-6.45124716553288				ShowResult	Gain
34.0	2	106.5	0.016	696.484	-1.75	1.0	24.2326	4.784	70.0	1.82	Outcome1	-1.75	4.7	3231.5	Yes		-6.45124716553288				ISITrial	Gain
34.0	2	114.547	0.017	704.531	-1.75	1.0	24.2326	1.055	70.0	1.82	Outcome1	-1.75	4.7	3231.5	Yes		-6.45124716553288			240.0	TrialHappiness	Gain
34.0	2	118.562	4.015	708.546	-1.75	1.0	24.2326	4.926	70.0	1.82	Outcome1	-1.75	4.7	3231.5	Yes		-6.45124716553288				ISIRate	Gain
35.0	2	123.511	0.023	713.495	-3.0	-3.0	23.8576	3.0	70.0	1.5	Certain	-5.91	0.1	0.0	No	4.0	-6.00907029478458	2.168	125.679		GetAnswer	Mixed
35.0	2	125.693	0.014	715.677	-3.0	-3.0	23.8576	4.0	70.0	1.5	Certain	-5.91	0.1	0.0	No		-6.00907029478458				ShowChoice	Mixed
35.0	2	129.709	0.016	719.693	-3.0	-3.0	23.8576	1.0	70.0	1.5	Certain	-5.91	0.1	0.0	No		-6.00907029478458				ShowResult	Mixed
35.0	2	130.725	0.016	720.709	-3.0	-3.0	23.8576	2.098	70.0	1.5	Certain	-5.91	0.1	0.0	No		-6.00907029478458				ISITrial	Mixed
36.0	2	132.841	0.018	722.825	-7.1	-4.0	22.9701	3.0	70.0	0.52	Outcome1	-7.1	-0.9	3335.75	Yes	2.0	-6.20181405895692	2.472	135.313		GetAnswer	Mixed
36.0	2	135.34	0.027	725.324	-7.1	-4.0	22.9701	4.0	70.0	0.52	Outcome1	-7.1	-0.9	3335.75	Yes		-6.20181405895692				ShowChoice	Mixed
36.0	2	139.355	0.015	729.339	-7.1	-4.0	22.9701	1.0	70.0	0.52	Outcome1	-7.1	-0.9	3335.75	Yes		-6.20181405895692				ShowResult	Mixed
36.0	2	140.371	0.016	730.355	-7.1	-4.0	22.9701	5.156	70.0	0.52	Outcome1	-7.1	-0.9	3335.75	Yes		-6.20181405895692				ISITrial	Mixed
36.0	2	148.918	0.029	738.902	-7.1	-4.0	22.9701	1.99	70.0	0.52	Outcome1	-7.1	-0.9	3335.75	Yes		-6.20181405895692			208.0	TrialHappiness	Mixed
36.0	2	152.934	4.016	742.918	-7.1	-4.0	22.9701	5.343	70.0	0.52	Outcome1	-7.1	-0.9	3335.75	Yes		-6.20181405895692				ISIRate	Mixed
37.0	2	158.299	0.022	748.283	1.0	1.0	23.0951	3.0	70.0	1.2	Certain	-1.95	3.9	0.0	No	4.0	-5.85034013605442	1.465	159.764		GetAnswer	Mixed
37.0	2	159.781	0.017	749.765	1.0	1.0	23.0951	4.0	70.0	1.2	Certain	-1.95	3.9	0.0	No		-5.85034013605442				ShowChoice	Mixed
37.0	2	163.797	0.016	753.781	1.0	1.0	23.0951	1.0	70.0	1.2	Certain	-1.95	3.9	0.0	No		-5.85034013605442				ShowResult	Mixed
37.0	2	164.813	0.016	754.797	1.0	1.0	23.0951	3.598	70.0	1.2	Certain	-1.95	3.9	0.0	No		-5.85034013605442				ISITrial	Mixed
38.0	2	168.428	0.017	758.412	-3.91	-1.0	22.6063	3.0	70.0	1.5	Outcome1	-3.91	2.1	0.0	No	2.0	-6.00680272108844	1.412	169.84		GetAnswer	Mixed
38.0	2	169.861	0.021	759.845	-3.91	-1.0	22.6063	4.0	70.0	1.5	Outcome1	-3.91	2.1	0.0	No		-6.00680272108844				ShowChoice	Mixed
38.0	2	173.876	0.015	763.86	-3.91	-1.0	22.6063	1.0	70.0	1.5	Outcome1	-3.91	2.1	0.0	No		-6.00680272108844				ShowResult	Mixed
38.0	2	174.893	0.017	764.877	-3.91	-1.0	22.6063	4.787	70.0	1.5	Outcome1	-3.91	2.1	0.0	No		-6.00680272108844				ISITrial	Mixed
39.0	2	179.708	0.028	769.692	0.94	0.47	22.7238	3.0	70.0	2.22	Outcome1	0.94	7.1	2864.25	Yes	2.0	-6.16326530612245	1.497	181.205		GetAnswer	Gain
39.0	2	181.224	0.019	771.208	0.94	0.47	22.7238	4.0	70.0	2.22	Outcome1	0.94	7.1	2864.25	Yes		-6.16326530612245				ShowChoice	Gain
39.0	2	185.239	0.015	775.223	0.94	0.47	22.7238	1.0	70.0	2.22	Outcome1	0.94	7.1	2864.25	Yes		-6.16326530612245				ShowResult	Gain
39.0	2	186.255	0.016	776.239	0.94	0.47	22.7238	2.348	70.0	2.22	Outcome1	0.94	7.1	2864.25	Yes		-6.16326530612245				ISITrial	Gain
39.0	2	191.504	0.019	781.488	0.94	0.47	22.7238	1.238	70.0	2.22	Outcome1	0.94	7.1	2864.25	Yes		-6.16326530612245			360.0	TrialHappiness	Gain
39.0	2	195.519	4.015	785.503	0.94	0.47	22.7238	3.457	70.0	2.22	Outcome1	0.94	7.1	2864.25	Yes		-6.16326530612245				ISIRate	Gain
40.0	2	199.001	0.025	788.985	2.0	2.0	22.9738	3.0	70.0	1.82	Certain	2.68	1.17	0.0	No	4.0	1.50925925925926	2.56	201.561		GetAnswer	Loss
40.0	2	201.583	0.022	791.567	2.0	2.0	22.9738	4.0	70.0	1.82	Certain	2.68	1.17	0.0	No		1.50925925925926				ShowChoice	Loss
40.0	2	205.599	0.016	795.583	2.0	2.0	22.9738	1.0	70.0	1.82	Certain	2.68	1.17	0.0	No		1.50925925925926				ShowResult	Loss
40.0	2	206.615	0.016	796.599	2.0	2.0	22.9738	3.158	70.0	1.82	Certain	2.68	1.17	0.0	No		1.50925925925926				ISITrial	Loss
41.0	2	209.797	0.024	799.781	2.0	2.0	23.2238	3.0	70.0	2.0	Certain	6.9	-2.33	4000.0	Yes	4.0	-9.23356009070295	2.179	211.976		GetAnswer	Gain
41.0	2	211.996	0.02	801.98	2.0	2.0	23.2238	4.0	70.0	2.0	Certain	6.9	-2.33	4000.0	Yes		-9.23356009070295				ShowChoice	Gain
41.0	2	216.012	0.016	805.996	2.0	2.0	23.2238	1.0	70.0	2.0	Certain	6.9	-2.33	4000.0	Yes		-9.23356009070295				ShowResult	Gain
41.0	2	217.028	0.016	807.012	2.0	2.0	23.2238	4.506	70.0	2.0	Certain	6.9	-2.33	4000.0	Yes		-9.23356009070295				ISITrial	Gain
41.0	2	225.575	0.015	815.559	2.0	2.0	23.2238	3.323	70.0	2.0	Certain	6.9	-2.33	4000.0	Yes		-9.23356009070295			436.0	TrialHappiness	Gain
41.0	2	229.59	4.015	819.574	2.0	2.0	23.2238	8.0	70.0	2.0	Certain	6.9	-2.33	4000.0	Yes		-9.23356009070295				ISIRate	Gain
42.0	2	237.621	0.031	827.605	-7.95	-2.0	22.23	3.0	70.0	0.4	Outcome1	-7.95	2.9	0.0	No	2.0	-10.854875283446699	1.617	239.238		GetAnswer	Mixed
42.0	2	239.254	0.016	829.238	-7.95	-2.0	22.23	4.0	70.0	0.4	Outcome1	-7.95	2.9	0.0	No		-10.854875283446699				ShowChoice	Mixed
42.0	2	243.269	0.015	833.253	-7.95	-2.0	22.23	1.0	70.0	0.4	Outcome1	-7.95	2.9	0.0	No		-10.854875283446699				ShowResult	Mixed
42.0	2	244.285	0.016	834.269	-7.95	-2.0	22.23	6.248	70.0	0.4	Outcome1	-7.95	2.9	0.0	No		-10.854875283446699				ISITrial	Mixed
43.0	2	250.55	0.017	840.534	-6.37	0.0	21.4338	3.0	70.0	2.0	Outcome2	4.9	-6.37	2775.75	Yes	2.0	-11.2698412698413	2.186	252.736		GetAnswer	Gain
43.0	2	252.749	0.013	842.733	-6.37	0.0	21.4338	4.0	70.0	2.0	Outcome2	4.9	-6.37	2775.75	Yes		-11.2698412698413				ShowChoice	Gain
43.0	2	256.764	0.015	846.748	-6.37	0.0	21.4338	1.0	70.0	2.0	Outcome2	4.9	-6.37	2775.75	Yes		-11.2698412698413				ShowResult	Gain
43.0	2	257.78	0.016	847.764	-6.37	0.0	21.4338	4.596	70.0	2.0	Outcome2	4.9	-6.37	2775.75	Yes		-11.2698412698413				ISITrial	Gain
43.0	2	265.195	0.023	855.179	-6.37	0.0	21.4338	0.939	70.0	2.0	Outcome2	4.9	-6.37	2775.75	Yes		-11.2698412698413			288.0	TrialHappiness	Gain
43.0	2	269.21	4.015	859.194	-6.37	0.0	21.4338	3.103	70.0	2.0	Outcome2	4.9	-6.37	2775.75	Yes		-11.2698412698413				ISIRate	Gain
44.0	2	272.342	0.029	862.326	4.53	2.26	22.0	3.0	70.0	3.16	Outcome2	13.7	4.53	0.0	No	2.0	-9.16780045351474	1.916	274.258		GetAnswer	Loss
44.0	2	274.275	0.017	864.259	4.53	2.26	22.0	4.0	70.0	3.16	Outcome2	13.7	4.53	0.0	No		-9.16780045351474				ShowChoice	Loss
44.0	2	278.29	0.015	868.274	4.53	2.26	22.0	1.0	70.0	3.16	Outcome2	13.7	4.53	0.0	No		-9.16780045351474				ShowResult	Loss
44.0	2	279.306	0.016	869.29	4.53	2.26	22.0	2.42	70.0	3.16	Outcome2	13.7	4.53	0.0	No		-9.16780045351474				ISITrial	Loss
45.0	2	281.755	0.029	871.739	0.0	0.0	22.0	3.0	70.0	2.0	Certain	0.08	-1.28	0.0	No	4.0	1.36130007558579	2.397	284.152		GetAnswer	Mixed
45.0	2	284.171	0.019	874.155	0.0	0.0	22.0	4.0	70.0	2.0	Certain	0.08	-1.28	0.0	No		1.36130007558579				ShowChoice	Mixed
45.0	2	288.187	0.016	878.171	0.0	0.0	22.0	1.0	70.0	2.0	Certain	0.08	-1.28	0.0	No		1.36130007558579				ShowResult	Mixed
45.0	2	289.203	0.016	879.187	0.0	0.0	22.0	3.144	70.0	2.0	Certain	0.08	-1.28	0.0	No		1.36130007558579				ISITrial	Mixed
46.0	2	292.368	0.021	882.352	2.82	2.0	22.3525	3.0	70.0	2.48	Outcome2	1.44	2.82	3841.25	Yes	2.0	1.38189720332577	1.834	294.202		GetAnswer	Loss
46.0	2	294.218	0.016	884.202	2.82	2.0	22.3525	4.0	70.0	2.48	Outcome2	1.44	2.82	3841.25	Yes		1.38189720332577				ShowChoice	Loss
46.0	2	298.233	0.015	888.217	2.82	2.0	22.3525	1.0	70.0	2.48	Outcome2	1.44	2.82	3841.25	Yes		1.38189720332577				ShowResult	Loss
46.0	2	299.249	0.016	889.233	2.82	2.0	22.3525	2.246	70.0	2.48	Outcome2	1.44	2.82	3841.25	Yes		1.38189720332577				ISITrial	Loss
46.0	2	305.381	0.025	895.365	2.82	2.0	22.3525	3.289	70.0	2.48	Outcome2	1.44	2.82	3841.25	Yes		1.38189720332577			584.0	TrialHappiness	Loss
46.0	2	309.396	4.015	899.38	2.82	2.0	22.3525	7.365	70.0	2.48	Outcome2	1.44	2.82	3841.25	Yes		1.38189720332577				ISIRate	Loss
47.0	2	316.793	0.032	906.777	-8.24	-1.0	21.3225	3.0	70.0	1.82	Outcome2	6.7	-8.24	0.0	No	2.0	-14.943310657596399	2.02	318.813		GetAnswer	Gain
47.0	2	318.826	0.013	908.81	-8.24	-1.0	21.3225	4.0	70.0	1.82	Outcome2	6.7	-8.24	0.0	No		-14.943310657596399				ShowChoice	Gain
47.0	2	322.841	0.015	912.825	-8.24	-1.0	21.3225	1.0	70.0	1.82	Outcome2	6.7	-8.24	0.0	No		-14.943310657596399				ShowResult	Gain
47.0	2	323.857	0.016	913.841	-8.24	-1.0	21.3225	2.0	70.0	1.82	Outcome2	6.7	-8.24	0.0	No		-14.943310657596399				ISITrial	Gain
48.0	2	325.89	0.033	915.874	-12.03	-4.0	19.8187	3.0	70.0	0.82	Outcome1	-12.03	3.5	2831.75	Yes	2.0	-15.526077097505699	2.78	328.67		GetAnswer	Mixed
48.0	2	328.689	0.019	918.673	-12.03	-4.0	19.8187	4.0	70.0	0.82	Outcome1	-12.03	3.5	2831.75	Yes		-15.526077097505699				ShowChoice	Mixed
48.0	2	332.704	0.015	922.688	-12.03	-4.0	19.8187	1.0	70.0	0.82	Outcome1	-12.03	3.5	2831.75	Yes		-15.526077097505699				ShowResult	Mixed
48.0	2	333.721	0.017	923.705	-12.03	-4.0	19.8187	3.692	70.0	0.82	Outcome1	-12.03	3.5	2831.75	Yes		-15.526077097505699				ISITrial	Mixed
48.0	2	340.285	0.017	930.269	-12.03	-4.0	19.8187	3.806	70.0	0.82	Outcome1	-12.03	3.5	2831.75	Yes	4{-4}4{-4}4{-4}4{-4}4{-4}4{-4}	-15.526077097505699	3.806	344.091	236.0	TrialHappiness	Mixed
48.0	2	344.3	4.015	934.284	-12.03	-4.0	19.8187	3.327	70.0	0.82	Outcome1	-12.03	3.5	2831.75	Yes		-15.526077097505699				ISIRate	Mixed
49.0	2	347.649	0.022	937.633	1.48	1.0	20.0037	3.0	70.0	3.6	Outcome1	1.48	0.19	0.0	No	2.0	1.28835978835979	2.182	349.831		GetAnswer	Gain
49.0	2	349.848	0.017	939.832	1.48	1.0	20.0037	4.0	70.0	3.6	Outcome1	1.48	0.19	0.0	No		1.28835978835979				ShowChoice	Gain
49.0	2	353.864	0.016	943.848	1.48	1.0	20.0037	1.0	70.0	3.6	Outcome1	1.48	0.19	0.0	No		1.28835978835979				ShowResult	Gain
49.0	2	354.88	0.016	944.864	1.48	1.0	20.0037	8.0	70.0	3.6	Outcome1	1.48	0.19	0.0	No		1.28835978835979				ISITrial	Gain
50.0	2	362.91	0.03	952.894	3.12	1.56	20.3937	3.0	70.0	2.8	Outcome2	13.5	3.12	3547.25	Yes	2.0	-10.3786848072562	1.683	364.593		GetAnswer	Loss
50.0	2	364.61	0.017	954.594	3.12	1.56	20.3937	4.0	70.0	2.8	Outcome2	13.5	3.12	3547.25	Yes		-10.3786848072562				ShowChoice	Loss
50.0	2	368.625	0.015	958.609	3.12	1.56	20.3937	1.0	70.0	2.8	Outcome2	13.5	3.12	3547.25	Yes		-10.3786848072562				ShowResult	Loss
50.0	2	369.641	0.016	959.625	3.12	1.56	20.3937	7.537	70.0	2.8	Outcome2	13.5	3.12	3547.25	Yes		-10.3786848072562				ISITrial	Loss
50.0	2	380.754	0.018	970.738	3.12	1.56	20.3937	0.757	70.0	2.8	Outcome2	13.5	3.12	3547.25	Yes	{-2}2{-2}	-10.3786848072562	0.757	381.511	592.0	TrialHappiness	Loss
50.0	2	384.77	4.016	974.754	3.12	1.56	20.3937	6.189	70.0	2.8	Outcome2	13.5	3.12	3547.25	Yes		-10.3786848072562				ISIRate	Loss
51.0	2	390.984	0.025	980.968	-1.0	-1.0	20.2687	3.0	70.0	0.3	Certain	-0.32	-3.09	0.0	No	4.0	2.76606198034769	2.721	393.705		GetAnswer	Mixed
51.0	2	393.716	0.011	983.7	-1.0	-1.0	20.2687	4.0	70.0	0.3	Certain	-0.32	-3.09	0.0	No		2.76606198034769				ShowChoice	Mixed
51.0	2	397.732	0.016	987.716	-1.0	-1.0	20.2687	1.0	70.0	0.3	Certain	-0.32	-3.09	0.0	No		2.76606198034769				ShowResult	Mixed
51.0	2	398.748	0.016	988.732	-1.0	-1.0	20.2687	5.508	70.0	0.3	Certain	-0.32	-3.09	0.0	No		2.76606198034769				ISITrial	Mixed
52.0	2	404.279	0.023	994.263	-4.51	-2.26	19.7049	3.0	70.0	1.82	Outcome2	12.7	-4.51	0.0	No	2.0	-17.2131519274376	1.672	405.951		GetAnswer	Loss
52.0	2	405.979	0.028	995.963	-4.51	-2.26	19.7049	4.0	70.0	1.82	Outcome2	12.7	-4.51	0.0	No		-17.2131519274376				ShowChoice	Loss
52.0	2	409.994	0.015	999.978	-4.51	-2.26	19.7049	1.0	70.0	1.82	Outcome2	12.7	-4.51	0.0	No		-17.2131519274376				ShowResult	Loss
52.0	2	411.01	0.016	1000.994	-4.51	-2.26	19.7049	5.913	70.0	1.82	Outcome2	12.7	-4.51	0.0	No		-17.2131519274376				ISITrial	Loss
53.0	2	416.942	0.019	1006.926	-3.9	-1.95	19.2174	3.0	70.0	3.6	Outcome2	13.9	-3.9	2996.75	Yes	2.0	-17.8049886621315	2.01	418.952		GetAnswer	Loss
53.0	2	418.974	0.022	1008.958	-3.9	-1.95	19.2174	4.0	70.0	3.6	Outcome2	13.9	-3.9	2996.75	Yes		-17.8049886621315				ShowChoice	Loss
53.0	2	422.99	0.016	1012.974	-3.9	-1.95	19.2174	1.0	70.0	3.6	Outcome2	13.9	-3.9	2996.75	Yes		-17.8049886621315				ShowResult	Loss
53.0	2	424.006	0.016	1013.99	-3.9	-1.95	19.2174	3.66	70.0	3.6	Outcome2	13.9	-3.9	2996.75	Yes		-17.8049886621315				ISITrial	Loss
53.0	2	430.704	0.019	1020.688	-3.9	-1.95	19.2174	2.932	70.0	3.6	Outcome2	13.9	-3.9	2996.75	Yes		-17.8049886621315			368.0	TrialHappiness	Loss
53.0	2	434.719	4.015	1024.703	-3.9	-1.95	19.2174	3.987	70.0	3.6	Outcome2	13.9	-3.9	2996.75	Yes		-17.8049886621315				ISIRate	Loss
54.0	2	438.734	0.028	1028.718	3.28	2.0	19.6274	3.0	70.0	2.22	Outcome2	1.28	3.28	0.0	No	2.0	2.00396825396825	1.719	440.453		GetAnswer	Loss
54.0	2	440.467	0.014	1030.451	3.28	2.0	19.6274	4.0	70.0	2.22	Outcome2	1.28	3.28	0.0	No		2.00396825396825				ShowChoice	Loss
54.0	2	444.482	0.015	1034.466	3.28	2.0	19.6274	1.0	70.0	2.22	Outcome2	1.28	3.28	0.0	No		2.00396825396825				ShowResult	Loss
54.0	2	445.498	0.016	1035.482	3.28	2.0	19.6274	8.0	70.0	2.22	Outcome2	1.28	3.28	0.0	No		2.00396825396825				ISITrial	Loss
	2	453.529	0.031	1043.513				-0.001								{SPACE}		54.424	507.953		Rest	
	2	507.977	0.024	1097.961				4.0													BlockHappyPreview	
	2	511.992	0.015	1101.976				0.49												480.0	BlockStartHappiness	
	2	518.123	0.026	1108.107				-0.001								5.0		5.424	523.547		ScanWait	
	3	0.024	0.024	1113.555				10.0													GetReady	
55.0	3	10.037	0.013	1123.568	8.17	4.08	20.6486	3.0	955.0	4.2	Outcome2	10.1	8.17	2533.25	Yes	2.0	-1.9276141940354898	1.533	11.57		GetAnswer	Gain
55.0	3	11.587	0.017	1125.118	8.17	4.08	20.6486	4.0	955.0	4.2	Outcome2	10.1	8.17	2533.25	Yes		-1.9276141940354898				ShowChoice	Gain
55.0	3	15.602	0.015	1129.133	8.17	4.08	20.6486	1.0	955.0	4.2	Outcome2	10.1	8.17	2533.25	Yes		-1.9276141940354898				ShowResult	Gain
55.0	3	16.618	0.016	1130.149	8.17	4.08	20.6486	7.709	955.0	4.2	Outcome2	10.1	8.17	2533.25	Yes		-1.9276141940354898				ISITrial	Gain
55.0	3	26.898	0.016	1140.429	8.17	4.08	20.6486	1.723	955.0	4.2	Outcome2	10.1	8.17	2533.25	Yes		-1.9276141940354898			736.0	TrialHappiness	Gain
55.0	3	30.913	4.015	1144.444	8.17	4.08	20.6486	2.133	955.0	4.2	Outcome2	10.1	8.17	2533.25	Yes		-1.9276141940354898				ISIRate	Gain
56.0	3	33.063	0.017	1146.594	11.97	5.98	22.1448	3.0	955.0	2.0	Outcome1	11.97	12.9	0.0	No	2.0	-0.933559833899585	1.124	34.187		GetAnswer	Loss
56.0	3	34.212	0.025	1147.743	11.97	5.98	22.1448	4.0	955.0	2.0	Outcome1	11.97	12.9	0.0	No		-0.933559833899585				ShowChoice	Loss
56.0	3	38.227	0.015	1151.758	11.97	5.98	22.1448	1.0	955.0	2.0	Outcome1	11.97	12.9	0.0	No		-0.933559833899585				ShowResult	Loss
56.0	3	39.244	0.017	1152.775	11.97	5.98	22.1448	4.697	955.0	2.0	Outcome1	11.97	12.9	0.0	No		-0.933559833899585				ISITrial	Loss
57.0	3	43.959	0.018	1157.49	9.1	2.3	23.2823	3.0	955.0	2.22	Outcome1	9.1	4.59	0.0	No	2.0	4.50622876557191	1.6	45.559		GetAnswer	Gain
57.0	3	45.575	0.016	1159.106	9.1	2.3	23.2823	4.0	955.0	2.22	Outcome1	9.1	4.59	0.0	No		4.50622876557191				ShowChoice	Gain
57.0	3	49.59	0.015	1163.121	9.1	2.3	23.2823	1.0	955.0	2.22	Outcome1	9.1	4.59	0.0	No		4.50622876557191				ShowResult	Gain
57.0	3	50.606	0.016	1164.137	9.1	2.3	23.2823	4.291	955.0	2.22	Outcome1	9.1	4.59	0.0	No		4.50622876557191				ISITrial	Gain
58.0	3	54.922	0.025	1168.453	9.9	2.58	24.5198	3.0	955.0	3.6	Outcome1	9.9	5.15	3045.75	Yes	2.0	4.75424688561721	1.407	56.329		GetAnswer	Gain
58.0	3	56.354	0.025	1169.885	9.9	2.58	24.5198	4.0	955.0	3.6	Outcome1	9.9	5.15	3045.75	Yes		4.75424688561721				ShowChoice	Gain
58.0	3	60.37	0.016	1173.901	9.9	2.58	24.5198	1.0	955.0	3.6	Outcome1	9.9	5.15	3045.75	Yes		4.75424688561721				ShowResult	Gain
58.0	3	61.386	0.016	1174.917	9.9	2.58	24.5198	2.037	955.0	3.6	Outcome1	9.9	5.15	3045.75	Yes		4.75424688561721				ISITrial	Gain
58.0	3	66.501	0.02	1180.032	9.9	2.58	24.5198	3.656	955.0	3.6	Outcome1	9.9	5.15	3045.75	Yes		4.75424688561721			792.0	TrialHappiness	Gain
58.0	3	70.516	4.015	1184.047	9.9	2.58	24.5198	4.183	955.0	3.6	Outcome1	9.9	5.15	3045.75	Yes		4.75424688561721				ISIRate	Gain
59.0	3	74.715	0.016	1188.246	10.13	5.07	25.7861	3.0	955.0	2.0	Outcome1	10.13	10.9	0.0	No	2.0	-0.7683087957719891	1.345	76.06		GetAnswer	Loss
59.0	3	76.081	0.021	1189.612	10.13	5.07	25.7861	4.0	955.0	2.0	Outcome1	10.13	10.9	0.0	No		-0.7683087957719891				ShowChoice	Loss
59.0	3	80.096	0.015	1193.627	10.13	5.07	25.7861	1.0	955.0	2.0	Outcome1	10.13	10.9	0.0	No		-0.7683087957719891				ShowResult	Loss
59.0	3	81.112	0.016	1194.643	10.13	5.07	25.7861	5.064	955.0	2.0	Outcome1	10.13	10.9	0.0	No		-0.7683087957719891				ISITrial	Loss
60.0	3	86.194	0.018	1199.725	5.1	0.43	26.4236	3.0	955.0	2.22	Outcome2	0.86	5.1	3562.5	Yes	2.0	4.23556058890147	1.93	88.124		GetAnswer	Gain
60.0	3	88.143	0.019	1201.674	5.1	0.43	26.4236	4.0	955.0	2.22	Outcome2	0.86	5.1	3562.5	Yes		4.23556058890147				ShowChoice	Gain
60.0	3	92.159	0.016	1205.69	5.1	0.43	26.4236	1.0	955.0	2.22	Outcome2	0.86	5.1	3562.5	Yes		4.23556058890147				ShowResult	Gain
60.0	3	93.175	0.016	1206.706	5.1	0.43	26.4236	8.0	955.0	2.22	Outcome2	0.86	5.1	3562.5	Yes		4.23556058890147				ISITrial	Gain
60.0	3	104.771	0.02	1218.302	5.1	0.43	26.4236	3.549	955.0	2.22	Outcome2	0.86	5.1	3562.5	Yes		4.23556058890147			896.0	TrialHappiness	Gain
60.0	3	108.786	4.015	1222.317	5.1	0.43	26.4236	6.25	955.0	2.22	Outcome2	0.86	5.1	3562.5	Yes		4.23556058890147				ISIRate	Gain
61.0	3	115.067	0.031	1228.598	1.3	0.0	26.5861	3.0	955.0	0.66	Outcome1	1.3	-1.35	0.0	No	2.0	2.6534541336353303	1.882	116.949		GetAnswer	Mixed
61.0	3	116.967	0.018	1230.498	1.3	0.0	26.5861	4.0	955.0	0.66	Outcome1	1.3	-1.35	0.0	No		2.6534541336353303				ShowChoice	Mixed
61.0	3	120.982	0.015	1234.513	1.3	0.0	26.5861	1.0	955.0	0.66	Outcome1	1.3	-1.35	0.0	No		2.6534541336353303				ShowResult	Mixed
61.0	3	121.998	0.016	1235.529	1.3	0.0	26.5861	4.586	955.0	0.66	Outcome1	1.3	-1.35	0.0	No		2.6534541336353303				ISITrial	Mixed
62.0	3	126.613	0.029	1240.144	-0.5	-2.0	26.5236	3.0	955.0	0.82	Outcome1	-0.5	-3.22	3748.75	Yes	2.0	2.7202718006795	1.961	128.574		GetAnswer	Mixed
62.0	3	128.596	0.022	1242.127	-0.5	-2.0	26.5236	4.0	955.0	0.82	Outcome1	-0.5	-3.22	3748.75	Yes		2.7202718006795				ShowChoice	Mixed
62.0	3	132.611	0.015	1246.142	-0.5	-2.0	26.5236	1.0	955.0	0.82	Outcome1	-0.5	-3.22	3748.75	Yes		2.7202718006795				ShowResult	Mixed
62.0	3	133.628	0.017	1247.159	-0.5	-2.0	26.5236	5.212	955.0	0.82	Outcome1	-0.5	-3.22	3748.75	Yes		2.7202718006795				ISITrial	Mixed
62.0	3	142.624	0.016	1256.155	-0.5	-2.0	26.5236	2.722	955.0	0.82	Outcome1	-0.5	-3.22	3748.75	Yes		2.7202718006795			952.0	TrialHappiness	Mixed
62.0	3	146.64	4.016	1260.171	-0.5	-2.0	26.5236	6.995	955.0	0.82	Outcome1	-0.5	-3.22	3748.75	Yes		2.7202718006795				ISIRate	Mixed
63.0	3	153.654	0.019	1267.185	11.7	4.93	27.9861	3.0	955.0	3.16	Outcome1	11.7	9.86	0.0	No	2.0	1.8357870894677202	1.37	155.024		GetAnswer	Loss
63.0	3	155.037	0.012	1268.568	11.7	4.93	27.9861	4.0	955.0	3.16	Outcome1	11.7	9.86	0.0	No		1.8357870894677202				ShowChoice	Loss
63.0	3	159.052	0.015	1272.583	11.7	4.93	27.9861	1.0	955.0	3.16	Outcome1	11.7	9.86	0.0	No		1.8357870894677202				ShowResult	Loss
63.0	3	160.068	0.016	1273.599	11.7	4.93	27.9861	5.595	955.0	3.16	Outcome1	11.7	9.86	0.0	No		1.8357870894677202				ISITrial	Loss
64.0	3	165.683	0.02	1279.214	8.5	3.33	29.0486	3.0	955.0	1.68	Outcome2	6.66	8.5	0.0	No	2.0	1.8391845979614898	1.588	167.271		GetAnswer	Gain
64.0	3	167.299	0.028	1280.83	8.5	3.33	29.0486	4.0	955.0	1.68	Outcome2	6.66	8.5	0.0	No		1.8391845979614898				ShowChoice	Gain
64.0	3	171.314	0.015	1284.845	8.5	3.33	29.0486	1.0	955.0	1.68	Outcome2	6.66	8.5	0.0	No		1.8391845979614898				ShowResult	Gain
64.0	3	172.331	0.017	1285.862	8.5	3.33	29.0486	5.47	955.0	1.68	Outcome2	6.66	8.5	0.0	No		1.8391845979614898				ISITrial	Gain
65.0	3	177.829	0.028	1291.36	6.3	2.23	29.8361	3.0	955.0	5.0	Outcome1	6.3	4.46	2996.75	Yes	2.0	1.84258210645527	1.946	179.775		GetAnswer	Gain
65.0	3	179.795	0.02	1293.326	6.3	2.23	29.8361	4.0	955.0	5.0	Outcome1	6.3	4.46	2996.75	Yes		1.84258210645527				ShowChoice	Gain
65.0	3	183.81	0.015	1297.341	6.3	2.23	29.8361	1.0	955.0	5.0	Outcome1	6.3	4.46	2996.75	Yes		1.84258210645527				ShowResult	Gain
65.0	3	184.826	0.016	1298.357	6.3	2.23	29.8361	3.344	955.0	5.0	Outcome1	6.3	4.46	2996.75	Yes		1.84258210645527				ISITrial	Gain
65.0	3	191.207	0.018	1304.738	6.3	2.23	29.8361	2.09	955.0	5.0	Outcome1	6.3	4.46	2996.75	Yes		1.84258210645527			952.0	TrialHappiness	Gain
65.0	3	195.223	4.016	1308.754	6.3	2.23	29.8361	3.987	955.0	5.0	Outcome1	6.3	4.46	2996.75	Yes		1.84258210645527				ISIRate	Gain
66.0	3	199.238	0.028	1312.769	13.3	5.72	31.4986	3.0	955.0	2.48	Outcome1	13.3	11.45	0.0	No	2.0	1.8459796149490402	1.259	200.497		GetAnswer	Loss
66.0	3	200.521	0.024	1314.052	13.3	5.72	31.4986	4.0	955.0	2.48	Outcome1	13.3	11.45	0.0	No		1.8459796149490402				ShowChoice	Loss
66.0	3	204.536	0.015	1318.067	13.3	5.72	31.4986	1.0	955.0	2.48	Outcome1	13.3	11.45	0.0	No		1.8459796149490402				ShowResult	Loss
66.0	3	205.552	0.016	1319.083	13.3	5.72	31.4986	3.959	955.0	2.48	Outcome1	13.3	11.45	0.0	No		1.8459796149490402				ISITrial	Loss
67.0	3	209.534	0.023	1323.065	8.54	4.27	32.5661	3.0	955.0	1.82	Outcome1	8.54	8.7	2918.5	Yes	2.0	-0.16204228010570002	2.415	211.949		GetAnswer	Gain
67.0	3	211.967	0.018	1325.498	8.54	4.27	32.5661	4.0	955.0	1.82	Outcome1	8.54	8.7	2918.5	Yes		-0.16204228010570002				ShowChoice	Gain
67.0	3	215.982	0.015	1329.513	8.54	4.27	32.5661	1.0	955.0	1.82	Outcome1	8.54	8.7	2918.5	Yes		-0.16204228010570002				ShowResult	Gain
67.0	3	216.998	0.016	1330.529	8.54	4.27	32.5661	4.199	955.0	1.82	Outcome1	8.54	8.7	2918.5	Yes		-0.16204228010570002				ISITrial	Gain
67.0	3	224.163	0.031	1337.694	8.54	4.27	32.5661	2.321	955.0	1.82	Outcome1	8.54	8.7	2918.5	Yes		-0.16204228010570002			952.0	TrialHappiness	Gain
67.0	3	228.178	4.015	1341.709	8.54	4.27	32.5661	3.674	955.0	1.82	Outcome1	8.54	8.7	2918.5	Yes		-0.16204228010570002				ISIRate	Gain
68.0	3	231.877	0.025	1345.408	9.3	3.72	33.7286	3.0	955.0	2.48	Outcome2	7.45	9.3	0.0	No	2.0	1.8527746319365799	1.433	233.31		GetAnswer	Gain
68.0	3	233.326	0.016	1346.857	9.3	3.72	33.7286	4.0	955.0	2.48	Outcome2	7.45	9.3	0.0	No		1.8527746319365799				ShowChoice	Gain
68.0	3	237.341	0.015	1350.872	9.3	3.72	33.7286	1.0	955.0	2.48	Outcome2	7.45	9.3	0.0	No		1.8527746319365799				ShowResult	Gain
68.0	3	238.358	0.017	1351.889	9.3	3.72	33.7286	2.185	955.0	2.48	Outcome2	7.45	9.3	0.0	No		1.8527746319365799				ISITrial	Gain
69.0	3	240.574	0.031	1354.105	5.7	1.92	34.4411	3.0	955.0	3.16	Outcome1	5.7	3.84	0.0	No	2.0	1.85617214043035	1.532	242.106		GetAnswer	Gain
69.0	3	242.123	0.017	1355.654	5.7	1.92	34.4411	4.0	955.0	3.16	Outcome1	5.7	3.84	0.0	No		1.85617214043035				ShowChoice	Gain
69.0	3	246.138	0.015	1359.669	5.7	1.92	34.4411	1.0	955.0	3.16	Outcome1	5.7	3.84	0.0	No		1.85617214043035				ShowResult	Gain
69.0	3	247.155	0.017	1360.686	5.7	1.92	34.4411	2.0	955.0	3.16	Outcome1	5.7	3.84	0.0	No		1.85617214043035				ISITrial	Gain
70.0	3	249.187	0.032	1362.718	7.9	3.02	35.4286	3.0	955.0	3.6	Outcome1	7.9	6.04	3651.25	Yes	2.0	1.85956964892412	1.27	250.457		GetAnswer	Gain
70.0	3	250.47	0.013	1364.001	7.9	3.02	35.4286	4.0	955.0	3.6	Outcome1	7.9	6.04	3651.25	Yes		1.85956964892412				ShowChoice	Gain
70.0	3	254.485	0.015	1368.016	7.9	3.02	35.4286	1.0	955.0	3.6	Outcome1	7.9	6.04	3651.25	Yes		1.85956964892412				ShowResult	Gain
70.0	3	255.502	0.017	1369.033	7.9	3.02	35.4286	2.623	955.0	3.6	Outcome1	7.9	6.04	3651.25	Yes		1.85956964892412				ISITrial	Gain
70.0	3	261.816	0.014	1375.347	7.9	3.02	35.4286	2.455	955.0	3.6	Outcome1	7.9	6.04	3651.25	Yes		1.85956964892412			952.0	TrialHappiness	Gain
70.0	3	265.831	4.015	1379.362	7.9	3.02	35.4286	6.605	955.0	3.6	Outcome1	7.9	6.04	3651.25	Yes		1.85956964892412				ISIRate	Gain
71.0	3	272.462	0.026	1385.993	7.3	2.72	36.3411	3.0	955.0	2.48	Outcome2	5.44	7.3	0.0	No	2.0	1.8629671574178899	1.31	273.772		GetAnswer	Gain
71.0	3	273.795	0.023	1387.326	7.3	2.72	36.3411	4.0	955.0	2.48	Outcome2	5.44	7.3	0.0	No		1.8629671574178899				ShowChoice	Gain
71.0	3	277.811	0.016	1391.342	7.3	2.72	36.3411	1.0	955.0	2.48	Outcome2	5.44	7.3	0.0	No		1.8629671574178899				ShowResult	Gain
71.0	3	278.827	0.016	1392.358	7.3	2.72	36.3411	5.499	955.0	2.48	Outcome2	5.44	7.3	0.0	No		1.8629671574178899				ISITrial	Gain
72.0	3	284.358	0.032	1397.889	11.5	4.82	37.7786	3.0	955.0	2.8	Outcome2	9.63	11.5	3080.5	Yes	2.0	1.86636466591166	1.098	285.456		GetAnswer	Loss
72.0	3	285.475	0.019	1399.006	11.5	4.82	37.7786	4.0	955.0	2.8	Outcome2	9.63	11.5	3080.5	Yes		1.86636466591166				ShowChoice	Loss
72.0	3	289.49	0.015	1403.021	11.5	4.82	37.7786	1.0	955.0	2.8	Outcome2	9.63	11.5	3080.5	Yes		1.86636466591166				ShowResult	Loss
72.0	3	290.506	0.016	1404.037	11.5	4.82	37.7786	5.672	955.0	2.8	Outcome2	9.63	11.5	3080.5	Yes		1.86636466591166				ISITrial	Loss
72.0	3	299.303	0.019	1412.834	11.5	4.82	37.7786	2.973	955.0	2.8	Outcome2	9.63	11.5	3080.5	Yes		1.86636466591166			952.0	TrialHappiness	Loss
72.0	3	303.318	4.015	1416.849	11.5	4.82	37.7786	4.322	955.0	2.8	Outcome2	9.63	11.5	3080.5	Yes		1.86636466591166				ISIRate	Loss
73.0	3	307.667	0.027	1421.198	7.5	2.82	38.7161	3.0	955.0	2.8	Outcome2	5.63	7.5	0.0	No	2.0	1.8697621744054398	1.542	309.209		GetAnswer	Gain
73.0	3	309.233	0.024	1422.764	7.5	2.82	38.7161	4.0	955.0	2.8	Outcome2	5.63	7.5	0.0	No		1.8697621744054398				ShowChoice	Gain
73.0	3	313.248	0.015	1426.779	7.5	2.82	38.7161	1.0	955.0	2.8	Outcome2	5.63	7.5	0.0	No		1.8697621744054398				ShowResult	Gain
73.0	3	314.264	0.016	1427.795	7.5	2.82	38.7161	4.616	955.0	2.8	Outcome2	5.63	7.5	0.0	No		1.8697621744054398				ISITrial	Gain
74.0	3	318.896	0.016	1432.427	4.1	1.12	39.2286	3.0	955.0	1.5	Outcome2	2.23	4.1	3056.25	Yes	2.0	1.8731596828992099	1.471	320.367		GetAnswer	Mixed
74.0	3	320.379	0.012	1433.91	4.1	1.12	39.2286	4.0	955.0	1.5	Outcome2	2.23	4.1	3056.25	Yes		1.8731596828992099				ShowChoice	Mixed
74.0	3	324.394	0.015	1437.925	4.1	1.12	39.2286	1.0	955.0	1.5	Outcome2	2.23	4.1	3056.25	Yes		1.8731596828992099				ShowResult	Mixed
74.0	3	325.411	0.017	1438.942	4.1	1.12	39.2286	3.909	955.0	1.5	Outcome2	2.23	4.1	3056.25	Yes		1.8731596828992099				ISITrial	Mixed
74.0	3	332.425	0.026	1445.956	4.1	1.12	39.2286	2.005	955.0	1.5	Outcome2	2.23	4.1	3056.25	Yes	2{-2}	1.8731596828992099	2.005	334.43	952.0	TrialHappiness	Mixed
74.0	3	336.44	4.015	1449.971	4.1	1.12	39.2286	4.225	955.0	1.5	Outcome2	2.23	4.1	3056.25	Yes		1.8731596828992099				ISIRate	Mixed
75.0	3	340.689	0.024	1454.22	10.14	5.07	40.4961	3.0	955.0	5.0	Outcome1	10.14	10.3	0.0	No		-0.164307285768214				GetAnswer	Gain
75.0	3	343.704	0.015	1457.235	10.14	5.07	40.4961	4.0	955.0	5.0	Outcome1	10.14	10.3	0.0	No		-0.164307285768214				ShowChoice	Gain
75.0	3	347.719	0.015	1461.25	10.14	5.07	40.4961	1.0	955.0	5.0	Outcome1	10.14	10.3	0.0	No		-0.164307285768214				ShowResult	Gain
75.0	3	348.736	0.017	1462.267	10.14	5.07	40.4961	4.979	955.0	5.0	Outcome1	10.14	10.3	0.0	No		-0.164307285768214				ISITrial	Gain
76.0	3	353.734	0.019	1467.265	3.1	2.0	40.8836	3.0	955.0	0.52	Outcome2	1.22	3.1	0.0	No	2.0	1.87995469988675	1.414	355.148		GetAnswer	Mixed
76.0	3	355.167	0.019	1468.698	3.1	2.0	40.8836	4.0	955.0	0.52	Outcome2	1.22	3.1	0.0	No		1.87995469988675				ShowChoice	Mixed
76.0	3	359.182	0.015	1472.713	3.1	2.0	40.8836	1.0	955.0	0.52	Outcome2	1.22	3.1	0.0	No		1.87995469988675				ShowResult	Mixed
76.0	3	360.198	0.016	1473.729	3.1	2.0	40.8836	3.931	955.0	0.52	Outcome2	1.22	3.1	0.0	No		1.87995469988675				ISITrial	Mixed
77.0	3	364.147	0.018	1477.678	-1.1	-2.0	40.7461	3.0	955.0	0.4	Outcome1	-1.1	-2.98	4000.0	Yes	2.0	1.88335220838052	2.144	366.291		GetAnswer	Mixed
77.0	3	366.313	0.022	1479.844	-1.1	-2.0	40.7461	4.0	955.0	0.4	Outcome1	-1.1	-2.98	4000.0	Yes		1.88335220838052				ShowChoice	Mixed
77.0	3	370.328	0.015	1483.859	-1.1	-2.0	40.7461	1.0	955.0	0.4	Outcome1	-1.1	-2.98	4000.0	Yes		1.88335220838052				ShowResult	Mixed
77.0	3	371.345	0.017	1484.876	-1.1	-2.0	40.7461	7.022	955.0	0.4	Outcome1	-1.1	-2.98	4000.0	Yes		1.88335220838052				ISITrial	Mixed
77.0	3	382.407	0.015	1495.938	-1.1	-2.0	40.7461	2.547	955.0	0.4	Outcome1	-1.1	-2.98	4000.0	Yes		1.88335220838052			804.0	TrialHappiness	Mixed
77.0	3	386.423	4.016	1499.954	-1.1	-2.0	40.7461	8.0	955.0	0.4	Outcome1	-1.1	-2.98	4000.0	Yes		1.88335220838052				ISIRate	Mixed
78.0	3	394.453	0.03	1507.984	1.93	2.0	40.9873	3.0	955.0	0.3	Outcome1	1.93	2.7	0.0	No	2.0	-0.7657606644016609	1.398	395.851		GetAnswer	Mixed
78.0	3	395.869	0.018	1509.4	1.93	2.0	40.9873	4.0	955.0	0.3	Outcome1	1.93	2.7	0.0	No		-0.7657606644016609				ShowChoice	Mixed
78.0	3	399.885	0.016	1513.416	1.93	2.0	40.9873	1.0	955.0	0.3	Outcome1	1.93	2.7	0.0	No		-0.7657606644016609				ShowResult	Mixed
78.0	3	400.901	0.016	1514.432	1.93	2.0	40.9873	2.078	955.0	0.3	Outcome1	1.93	2.7	0.0	No		-0.7657606644016609				ISITrial	Mixed
79.0	3	403.0	0.021	1516.531	13.1	4.26	42.6248	3.0	955.0	2.22	Outcome1	13.1	8.53	2729.5	Yes	2.0	4.57191392978482	1.455	404.455		GetAnswer	Loss
79.0	3	404.483	0.028	1518.014	13.1	4.26	42.6248	4.0	955.0	2.22	Outcome1	13.1	8.53	2729.5	Yes		4.57191392978482				ShowChoice	Loss
79.0	3	408.498	0.015	1522.029	13.1	4.26	42.6248	1.0	955.0	2.22	Outcome1	13.1	8.53	2729.5	Yes		4.57191392978482				ShowResult	Loss
79.0	3	409.515	0.017	1523.046	13.1	4.26	42.6248	3.829	955.0	2.22	Outcome1	13.1	8.53	2729.5	Yes		4.57191392978482				ISITrial	Loss
79.0	3	416.112	0.019	1529.643	13.1	4.26	42.6248	1.922	955.0	2.22	Outcome1	13.1	8.53	2729.5	Yes		4.57191392978482			816.0	TrialHappiness	Loss
79.0	3	420.128	4.016	1533.659	13.1	4.26	42.6248	2.918	955.0	2.22	Outcome1	13.1	8.53	2729.5	Yes		4.57191392978482				ISIRate	Loss
80.0	3	423.077	0.031	1536.608	6.55	3.28	43.4436	3.0	955.0	2.48	Outcome1	6.55	7.3	0.0	No	2.0	-0.7455643639109101	1.08	424.157		GetAnswer	Gain
80.0	3	424.176	0.019	1537.707	6.55	3.28	43.4436	4.0	955.0	2.48	Outcome1	6.55	7.3	0.0	No		-0.7455643639109101				ShowChoice	Gain
80.0	3	428.191	0.015	1541.722	6.55	3.28	43.4436	1.0	955.0	2.48	Outcome1	6.55	7.3	0.0	No		-0.7455643639109101				ShowResult	Gain
80.0	3	429.208	0.017	1542.739	6.55	3.28	43.4436	3.336	955.0	2.48	Outcome1	6.55	7.3	0.0	No		-0.7455643639109101				ISITrial	Gain
81.0	3	432.573	0.029	1546.104	1.9	0.0	43.6811	3.0	955.0	1.2	Outcome2	-2.8	1.9	3923.75	Yes	2.0	4.6964892412231	0.992	433.565		GetAnswer	Mixed
81.0	3	433.59	0.025	1547.121	1.9	0.0	43.6811	4.0	955.0	1.2	Outcome2	-2.8	1.9	3923.75	Yes		4.6964892412231				ShowChoice	Mixed
81.0	3	437.605	0.015	1551.136	1.9	0.0	43.6811	1.0	955.0	1.2	Outcome2	-2.8	1.9	3923.75	Yes		4.6964892412231				ShowResult	Mixed
81.0	3	438.621	0.016	1552.152	1.9	0.0	43.6811	3.919	955.0	1.2	Outcome2	-2.8	1.9	3923.75	Yes		4.6964892412231				ISITrial	Mixed
81.0	3	446.502	0.025	1560.033	1.9	0.0	43.6811	1.923	955.0	1.2	Outcome2	-2.8	1.9	3923.75	Yes		4.6964892412231			848.0	TrialHappiness	Mixed
81.0	3	450.517	4.015	1564.048	1.9	0.0	43.6811	7.695	955.0	1.2	Outcome2	-2.8	1.9	3923.75	Yes		4.6964892412231				ISIRate	Mixed
	3	458.231	0.019	1571.762				3.0													CurrentEarnings	
	3	461.247	0.016	1574.778				-0.001								{SPACE}		36.493	497.74		Goodbye	
