trial_number	block	onset	onset_delay	onset_unadjusted	amount_change	certain_amount	current_amount	duration	mood_target	multiplier	outcome	outcome1_amount	outcome2_amount	question_duration	rating	response	rpe	rt	rt_time	slider_response	trial_phase	trial_type
	0	-40.893	0.021	26.255				-0.001								{SPACE}		2.526	-38.367		Welcome	
	0	-38.335	0.032	28.813				5.0													LifeHappyPreview	
	0	-33.303	0.032	33.845				3.727												624.0	LifeHappiness	
	0	-15.533	0.018	51.615				4.0													BlockHappyPreview	
	0	-11.521	0.012	55.627				1.989												352.0	BlockStartHappiness	
	0	-3.932	0.019	63.216				-0.001								5.0					ScanWait	
	1	0.013	0.013	67.161				10.0													GetReady	
1.0	1	10.043	0.03	77.191	5.85	2.92	10.7313	3.0	955.0	5.0	Outcome1	5.85	8.3	0.0	No	2.0	-2.44705549263873	1.18	11.223		GetAnswer	Gain
1.0	1	11.247	0.024	78.395	5.85	2.92	10.7313	4.0	955.0	5.0	Outcome1	5.85	8.3	0.0	No		-2.44705549263873				ShowChoice	Gain
1.0	1	15.259	0.012	82.407	5.85	2.92	10.7313	1.0	955.0	5.0	Outcome1	5.85	8.3	0.0	No		-2.44705549263873				ShowResult	Gain
1.0	1	16.279	0.02	83.427	5.85	2.92	10.7313	2.431	955.0	5.0	Outcome1	5.85	8.3	0.0	No		-2.44705549263873				ISITrial	Gain
2.0	1	18.736	0.026	85.884	9.0	4.5	11.8563	3.0	955.0	2.8	Outcome1	9.0	11.5	0.0	No	2.0	-2.5039637599094	0.92	19.656		GetAnswer	Loss
2.0	1	19.672	0.016	86.82	9.0	4.5	11.8563	4.0	955.0	2.8	Outcome1	9.0	11.5	0.0	No		-2.5039637599094				ShowChoice	Loss
2.0	1	23.684	0.012	90.832	9.0	4.5	11.8563	1.0	955.0	2.8	Outcome1	9.0	11.5	0.0	No		-2.5039637599094				ShowResult	Loss
2.0	1	24.704	0.02	91.852	9.0	4.5	11.8563	4.568	955.0	2.8	Outcome1	9.0	11.5	0.0	No		-2.5039637599094				ISITrial	Loss
3.0	1	29.301	0.029	96.449	-1.0	-1.0	11.7313	3.0	955.0	2.0	Certain	0.3	-2.26	2868.0	Yes	4.0	-2.5608720271800696	1.849	31.15		GetAnswer	Mixed
3.0	1	31.173	0.023	98.321	-1.0	-1.0	11.7313	4.0	955.0	2.0	Certain	0.3	-2.26	2868.0	Yes		-2.5608720271800696				ShowChoice	Mixed
3.0	1	35.185	0.012	102.333	-1.0	-1.0	11.7313	1.0	955.0	2.0	Certain	0.3	-2.26	2868.0	Yes		-2.5608720271800696				ShowResult	Mixed
3.0	1	36.205	0.02	103.353	-1.0	-1.0	11.7313	3.243	955.0	2.0	Certain	0.3	-2.26	2868.0	Yes		-2.5608720271800696				ISITrial	Mixed
3.0	1	42.357	0.024	109.505	-1.0	-1.0	11.7313	2.498	955.0	2.0	Certain	0.3	-2.26	2868.0	Yes		-2.5608720271800696			348.0	TrialHappiness	Mixed
3.0	1	46.369	4.012	113.517	-1.0	-1.0	11.7313	3.472	955.0	2.0	Certain	0.3	-2.26	2868.0	Yes		-2.5608720271800696				ISIRate	Mixed
4.0	1	49.863	0.022	117.011	11.1	-0.63	13.1188	3.0	955.0	2.22	Outcome2	-1.26	11.1	0.0	No	2.0	12.3601359003397	1.554	51.417		GetAnswer	Loss
4.0	1	51.434	0.017	118.582	11.1	-0.63	13.1188	4.0	955.0	2.22	Outcome2	-1.26	11.1	0.0	No		12.3601359003397				ShowChoice	Loss
4.0	1	55.446	0.012	122.594	11.1	-0.63	13.1188	1.0	955.0	2.22	Outcome2	-1.26	11.1	0.0	No		12.3601359003397				ShowResult	Loss
4.0	1	56.466	0.02	123.614	11.1	-0.63	13.1188	2.011	955.0	2.22	Outcome2	-1.26	11.1	0.0	No		12.3601359003397				ISITrial	Loss
5.0	1	58.505	0.028	125.653	13.7	0.32	14.8313	3.0	955.0	3.16	Outcome1	13.7	0.65	2582.5	Yes	2.0	13.047565118912802	0.954	59.459		GetAnswer	Loss
5.0	1	59.475	0.016	126.623	13.7	0.32	14.8313	4.0	955.0	3.16	Outcome1	13.7	0.65	2582.5	Yes		13.047565118912802				ShowChoice	Loss
5.0	1	63.487	0.012	130.635	13.7	0.32	14.8313	1.0	955.0	3.16	Outcome1	13.7	0.65	2582.5	Yes		13.047565118912802				ShowResult	Loss
5.0	1	64.506	0.019	131.654	13.7	0.32	14.8313	5.129	955.0	3.16	Outcome1	13.7	0.65	2582.5	Yes		13.047565118912802				ISITrial	Loss
5.0	1	72.263	0.026	139.411	13.7	0.32	14.8313	2.329	955.0	3.16	Outcome1	13.7	0.65	2582.5	Yes		13.047565118912802			632.0	TrialHappiness	Loss
5.0	1	76.275	4.012	143.423	13.7	0.32	14.8313	2.33	955.0	3.16	Outcome1	13.7	0.65	2582.5	Yes		13.047565118912802				ISIRate	Loss
6.0	1	78.632	0.027	145.78	10.3	0.7	16.1188	3.0	955.0	5.0	Outcome2	1.39	10.3	0.0	No	2.0	8.91053227633069	0.884	79.516		GetAnswer	Gain
6.0	1	79.535	0.019	146.683	10.3	0.7	16.1188	4.0	955.0	5.0	Outcome2	1.39	10.3	0.0	No		8.91053227633069				ShowChoice	Gain
6.0	1	83.547	0.012	150.695	10.3	0.7	16.1188	1.0	955.0	5.0	Outcome2	1.39	10.3	0.0	No		8.91053227633069				ShowResult	Gain
6.0	1	84.567	0.02	151.715	10.3	0.7	16.1188	6.232	955.0	5.0	Outcome2	1.39	10.3	0.0	No		8.91053227633069				ISITrial	Gain
7.0	1	90.819	0.02	157.967	13.1	1.91	17.7563	3.0	955.0	2.22	Outcome2	3.82	13.1	0.0	No	2.0	9.27633069082673	0.74	91.559		GetAnswer	Loss
7.0	1	91.571	0.012	158.719	13.1	1.91	17.7563	4.0	955.0	2.22	Outcome2	3.82	13.1	0.0	No		9.27633069082673				ShowChoice	Loss
7.0	1	95.583	0.012	162.731	13.1	1.91	17.7563	1.0	955.0	2.22	Outcome2	3.82	13.1	0.0	No		9.27633069082673				ShowResult	Loss
7.0	1	96.603	0.02	163.751	13.1	1.91	17.7563	2.305	955.0	2.22	Outcome2	3.82	13.1	0.0	No		9.27633069082673				ISITrial	Loss
8.0	1	98.926	0.018	166.074	-0.3	-5.0	17.7188	3.0	955.0	1.0	Outcome2	-9.94	-0.3	3112.5	Yes	2.0	9.642129105322761	1.31	100.236		GetAnswer	Mixed
8.0	1	100.264	0.028	167.412	-0.3	-5.0	17.7188	4.0	955.0	1.0	Outcome2	-9.94	-0.3	3112.5	Yes		9.642129105322761				ShowChoice	Mixed
8.0	1	104.276	0.012	171.424	-0.3	-5.0	17.7188	1.0	955.0	1.0	Outcome2	-9.94	-0.3	3112.5	Yes		9.642129105322761				ShowResult	Mixed
8.0	1	105.295	0.019	172.443	-0.3	-5.0	17.7188	3.506	955.0	1.0	Outcome2	-9.94	-0.3	3112.5	Yes		9.642129105322761				ISITrial	Mixed
8.0	1	111.965	0.03	179.113	-0.3	-5.0	17.7188	2.611	955.0	1.0	Outcome2	-9.94	-0.3	3112.5	Yes		9.642129105322761			412.0	TrialHappiness	Mixed
8.0	1	115.977	4.012	183.125	-0.3	-5.0	17.7188	4.45	955.0	1.0	Outcome2	-9.94	-0.3	3112.5	Yes		9.642129105322761				ISIRate	Mixed
9.0	1	120.457	0.03	187.605	2.7	-4.0	18.0563	3.0	955.0	0.3	Outcome1	2.7	-11.05	0.0	No	2.0	13.7451868629672	1.371	121.828		GetAnswer	Mixed
9.0	1	121.845	0.017	188.993	2.7	-4.0	18.0563	4.0	955.0	0.3	Outcome1	2.7	-11.05	0.0	No		13.7451868629672				ShowChoice	Mixed
9.0	1	125.857	0.012	193.005	2.7	-4.0	18.0563	1.0	955.0	0.3	Outcome1	2.7	-11.05	0.0	No		13.7451868629672				ShowResult	Mixed
9.0	1	126.877	0.02	194.025	2.7	-4.0	18.0563	2.0	955.0	0.3	Outcome1	2.7	-11.05	0.0	No		13.7451868629672				ISITrial	Mixed
10.0	1	128.899	0.022	196.047	2.0	2.0	18.3063	3.0	955.0	2.48	Certain	-5.06	9.3	4000.0	Yes	4.0	14.3601359003398	1.426	130.325		GetAnswer	Gain
10.0	1	130.337	0.012	197.485	2.0	2.0	18.3063	4.0	955.0	2.48	Certain	-5.06	9.3	4000.0	Yes		14.3601359003398				ShowChoice	Gain
10.0	1	134.349	0.012	201.497	2.0	2.0	18.3063	1.0	955.0	2.48	Certain	-5.06	9.3	4000.0	Yes		14.3601359003398				ShowResult	Gain
10.0	1	135.369	0.02	202.517	2.0	2.0	18.3063	2.0	955.0	2.48	Certain	-5.06	9.3	4000.0	Yes		14.3601359003398				ISITrial	Gain
10.0	1	141.42	0.028	208.568	2.0	2.0	18.3063	2.276	955.0	2.48	Certain	-5.06	9.3	4000.0	Yes		14.3601359003398			396.0	TrialHappiness	Gain
10.0	1	145.432	4.012	212.58	2.0	2.0	18.3063	8.0	955.0	2.48	Certain	-5.06	9.3	4000.0	Yes		14.3601359003398				ISIRate	Gain
11.0	1	153.456	0.024	220.604	-1.0	-1.0	18.1813	3.0	955.0	1.68	Certain	6.5	-8.75	0.0	No	4.0	15.246885617214	1.272	154.728		GetAnswer	Gain
11.0	1	154.744	0.016	221.892	-1.0	-1.0	18.1813	4.0	955.0	1.68	Certain	6.5	-8.75	0.0	No		15.246885617214				ShowChoice	Gain
11.0	1	158.756	0.012	225.904	-1.0	-1.0	18.1813	1.0	955.0	1.68	Certain	6.5	-8.75	0.0	No		15.246885617214				ShowResult	Gain
11.0	1	159.775	0.019	226.923	-1.0	-1.0	18.1813	3.324	955.0	1.68	Certain	6.5	-8.75	0.0	No		15.246885617214				ISITrial	Gain
12.0	1	163.119	0.02	230.267	-2.09	-2.09	17.92	3.0	955.0	3.16	Certain	-4.18	11.7	2618.75	Yes	4.0	15.8799546998867	0.946	164.065		GetAnswer	Loss
12.0	1	164.088	0.023	231.236	-2.09	-2.09	17.92	4.0	955.0	3.16	Certain	-4.18	11.7	2618.75	Yes		15.8799546998867				ShowChoice	Loss
12.0	1	168.1	0.012	235.248	-2.09	-2.09	17.92	1.0	955.0	3.16	Certain	-4.18	11.7	2618.75	Yes		15.8799546998867				ShowResult	Loss
12.0	1	169.12	0.02	236.268	-2.09	-2.09	17.92	6.642	955.0	3.16	Certain	-4.18	11.7	2618.75	Yes		15.8799546998867				ISITrial	Loss
12.0	1	178.414	0.022	245.562	-2.09	-2.09	17.92	1.11	955.0	3.16	Certain	-4.18	11.7	2618.75	Yes		15.8799546998867			408.0	TrialHappiness	Loss
12.0	1	182.426	4.012	249.574	-2.09	-2.09	17.92	2.475	955.0	3.16	Certain	-4.18	11.7	2618.75	Yes		15.8799546998867				ISIRate	Loss
13.0	1	184.917	0.016	252.065	-4.0	-4.0	17.42	3.0	955.0	1.2	Certain	3.9	-12.41	0.0	No	4.0	16.3091732729332	1.572	186.489		GetAnswer	Mixed
13.0	1	186.505	0.016	253.653	-4.0	-4.0	17.42	4.0	955.0	1.2	Certain	3.9	-12.41	0.0	No		16.3091732729332				ShowChoice	Mixed
13.0	1	190.517	0.012	257.665	-4.0	-4.0	17.42	1.0	955.0	1.2	Certain	3.9	-12.41	0.0	No		16.3091732729332				ShowResult	Mixed
13.0	1	191.537	0.02	258.685	-4.0	-4.0	17.42	3.48	955.0	1.2	Certain	3.9	-12.41	0.0	No		16.3091732729332				ISITrial	Mixed
14.0	1	195.048	0.031	262.196	-5.0	-5.0	16.795	3.0	955.0	1.0	Certain	-13.23	3.7	0.0	No	4.0	16.9286523216308	1.404	196.452		GetAnswer	Mixed
14.0	1	196.469	0.017	263.617	-5.0	-5.0	16.795	4.0	955.0	1.0	Certain	-13.23	3.7	0.0	No		16.9286523216308				ShowChoice	Mixed
14.0	1	200.481	0.012	267.629	-5.0	-5.0	16.795	1.0	955.0	1.0	Certain	-13.23	3.7	0.0	No		16.9286523216308				ShowResult	Mixed
14.0	1	201.5	0.019	268.648	-5.0	-5.0	16.795	5.019	955.0	1.0	Certain	-13.23	3.7	0.0	No		16.9286523216308				ISITrial	Mixed
15.0	1	206.549	0.03	273.697	8.39	4.2	17.8438	3.0	955.0	2.48	Outcome2	11.3	8.39	3348.5	Yes	2.0	-2.90779539448849	1.628	208.177		GetAnswer	Loss
15.0	1	208.204	0.027	275.352	8.39	4.2	17.8438	4.0	955.0	2.48	Outcome2	11.3	8.39	3348.5	Yes		-2.90779539448849				ShowChoice	Loss
15.0	1	212.216	0.012	279.364	8.39	4.2	17.8438	1.0	955.0	2.48	Outcome2	11.3	8.39	3348.5	Yes		-2.90779539448849				ShowResult	Loss
15.0	1	213.235	0.019	280.383	8.39	4.2	17.8438	7.614	955.0	2.48	Outcome2	11.3	8.39	3348.5	Yes		-2.90779539448849				ISITrial	Loss
15.0	1	224.252	0.029	291.4	8.39	4.2	17.8438	0.908	955.0	2.48	Outcome2	11.3	8.39	3348.5	Yes		-2.90779539448849			320.0	TrialHappiness	Loss
15.0	1	228.264	4.012	295.412	8.39	4.2	17.8438	5.394	955.0	2.48	Outcome2	11.3	8.39	3348.5	Yes		-2.90779539448849				ISIRate	Loss
16.0	1	233.68	0.022	300.828	-11.0	-11.0	16.4688	3.0	955.0	0.3	Certain	-1.3	-20.96	0.0	No	4.0	19.662514156285397	1.536	235.216		GetAnswer	Mixed
16.0	1	235.235	0.019	302.383	-11.0	-11.0	16.4688	4.0	955.0	0.3	Certain	-1.3	-20.96	0.0	No		19.662514156285397				ShowChoice	Mixed
16.0	1	239.247	0.012	306.395	-11.0	-11.0	16.4688	1.0	955.0	0.3	Certain	-1.3	-20.96	0.0	No		19.662514156285397				ShowResult	Mixed
16.0	1	240.266	0.019	307.414	-11.0	-11.0	16.4688	3.008	955.0	0.3	Certain	-1.3	-20.96	0.0	No		19.662514156285397				ISITrial	Mixed
17.0	1	243.292	0.018	310.44	-7.0	-7.0	15.5938	3.0	955.0	0.52	Certain	3.1	-17.28	3041.5	Yes	4.0	20.381653454133602	1.416	244.708		GetAnswer	Mixed
17.0	1	244.73	0.022	311.878	-7.0	-7.0	15.5938	4.0	955.0	0.52	Certain	3.1	-17.28	3041.5	Yes		20.381653454133602				ShowChoice	Mixed
17.0	1	248.742	0.012	315.89	-7.0	-7.0	15.5938	1.0	955.0	0.52	Certain	3.1	-17.28	3041.5	Yes		20.381653454133602				ShowResult	Mixed
17.0	1	249.762	0.02	316.91	-7.0	-7.0	15.5938	3.566	955.0	0.52	Certain	3.1	-17.28	3041.5	Yes		20.381653454133602				ISITrial	Mixed
17.0	1	256.415	0.017	323.563	-7.0	-7.0	15.5938	2.514	955.0	0.52	Certain	3.1	-17.28	3041.5	Yes		20.381653454133602			324.0	TrialHappiness	Mixed
17.0	1	260.427	4.012	327.575	-7.0	-7.0	15.5938	4.166	955.0	0.52	Certain	3.1	-17.28	3041.5	Yes		20.381653454133602				ISIRate	Mixed
18.0	1	264.623	0.03	331.771	12.1	1.0	17.1063	3.0	955.0	4.2	Outcome1	12.1	-8.93	0.0	No	2.0	21.0328425821065	1.3	265.923		GetAnswer	Loss
18.0	1	265.943	0.02	333.091	12.1	1.0	17.1063	4.0	955.0	4.2	Outcome1	12.1	-8.93	0.0	No		21.0328425821065				ShowChoice	Loss
18.0	1	269.955	0.012	337.103	12.1	1.0	17.1063	1.0	955.0	4.2	Outcome1	12.1	-8.93	0.0	No		21.0328425821065				ShowResult	Loss
18.0	1	270.975	0.02	338.123	12.1	1.0	17.1063	6.787	955.0	4.2	Outcome1	12.1	-8.93	0.0	No		21.0328425821065				ISITrial	Loss
19.0	1	277.796	0.034	344.944	-5.0	-5.0	16.4813	3.0	955.0	3.16	Certain	-16.05	5.7	0.0	No	4.0	21.7474518686297	0.788	278.584		GetAnswer	Gain
19.0	1	278.598	0.014	345.746	-5.0	-5.0	16.4813	4.0	955.0	3.16	Certain	-16.05	5.7	0.0	No		21.7474518686297				ShowChoice	Gain
19.0	1	282.61	0.012	349.758	-5.0	-5.0	16.4813	1.0	955.0	3.16	Certain	-16.05	5.7	0.0	No		21.7474518686297				ShowResult	Gain
19.0	1	283.63	0.02	350.778	-5.0	-5.0	16.4813	2.0	955.0	3.16	Certain	-16.05	5.7	0.0	No		21.7474518686297				ISITrial	Gain
20.0	1	285.652	0.022	352.8	-7.0	-7.0	15.6063	3.0	955.0	1.5	Certain	4.1	-18.36	2921.25	Yes	4.0	22.4620611551529	1.412	287.064		GetAnswer	Mixed
20.0	1	287.09	0.026	354.238	-7.0	-7.0	15.6063	4.0	955.0	1.5	Certain	4.1	-18.36	2921.25	Yes		22.4620611551529				ShowChoice	Mixed
20.0	1	291.102	0.012	358.25	-7.0	-7.0	15.6063	1.0	955.0	1.5	Certain	4.1	-18.36	2921.25	Yes		22.4620611551529				ShowResult	Mixed
20.0	1	292.122	0.02	359.27	-7.0	-7.0	15.6063	8.0	955.0	1.5	Certain	4.1	-18.36	2921.25	Yes		22.4620611551529				ISITrial	Mixed
20.0	1	303.088	0.021	370.236	-7.0	-7.0	15.6063	0.859	955.0	1.5	Certain	4.1	-18.36	2921.25	Yes		22.4620611551529			272.0	TrialHappiness	Mixed
20.0	1	307.117	4.029	374.265	-7.0	-7.0	15.6063	3.685	955.0	1.5	Certain	4.1	-18.36	2921.25	Yes		22.4620611551529				ISIRate	Mixed
21.0	1	310.828	0.026	377.976	-2.0	-2.0	15.3563	3.0	955.0	4.2	Certain	10.1	-13.96	0.0	No	4.0	24.060022650056602	1.431	312.259		GetAnswer	Gain
21.0	1	312.282	0.023	379.43	-2.0	-2.0	15.3563	4.0	955.0	4.2	Certain	10.1	-13.96	0.0	No		24.060022650056602				ShowChoice	Gain
21.0	1	316.294	0.012	383.442	-2.0	-2.0	15.3563	1.0	955.0	4.2	Certain	10.1	-13.96	0.0	No		24.060022650056602				ShowResult	Gain
21.0	1	317.314	0.02	384.462	-2.0	-2.0	15.3563	3.555	955.0	4.2	Certain	10.1	-13.96	0.0	No		24.060022650056602				ISITrial	Gain
22.0	1	320.891	0.022	388.039	-4.0	-4.0	14.8563	3.0	955.0	1.68	Certain	-16.33	8.5	3219.5	Yes	4.0	24.8335220838052	0.89	321.781		GetAnswer	Gain
22.0	1	321.794	0.013	388.942	-4.0	-4.0	14.8563	4.0	955.0	1.68	Certain	-16.33	8.5	3219.5	Yes		24.8335220838052				ShowChoice	Gain
22.0	1	325.823	0.029	392.971	-4.0	-4.0	14.8563	1.0	955.0	1.68	Certain	-16.33	8.5	3219.5	Yes		24.8335220838052				ShowResult	Gain
22.0	1	326.843	0.02	393.991	-4.0	-4.0	14.8563	6.793	955.0	1.68	Certain	-16.33	8.5	3219.5	Yes		24.8335220838052				ISITrial	Gain
22.0	1	336.906	0.023	404.054	-4.0	-4.0	14.8563	2.219	955.0	1.68	Certain	-16.33	8.5	3219.5	Yes	4{-4}2{-2}2{-2}	24.8335220838052	2.219	339.125	276.0	TrialHappiness	Gain
22.0	1	340.935	4.029	408.083	-4.0	-4.0	14.8563	4.878	955.0	1.68	Certain	-16.33	8.5	3219.5	Yes		24.8335220838052				ISIRate	Gain
23.0	1	345.833	0.02	412.981	-5.0	-5.0	14.2313	3.0	955.0	3.16	Certain	-17.84	7.7	0.0	No	4.0	25.539071347678398	2.048	347.881		GetAnswer	Gain
23.0	1	347.906	0.025	415.054	-5.0	-5.0	14.2313	4.0	955.0	3.16	Certain	-17.84	7.7	0.0	No		25.539071347678398				ShowChoice	Gain
23.0	1	351.934	0.028	419.082	-5.0	-5.0	14.2313	1.0	955.0	3.16	Certain	-17.84	7.7	0.0	No		25.539071347678398				ShowResult	Gain
23.0	1	352.954	0.02	420.102	-5.0	-5.0	14.2313	8.0	955.0	3.16	Certain	-17.84	7.7	0.0	No		25.539071347678398				ISITrial	Gain
24.0	1	360.978	0.024	428.126	-2.89	-1.0	13.8701	3.0	955.0	0.52	Outcome1	-2.89	1.1	3255.0	Yes	2.0	-3.98659871649679	1.218	362.196		GetAnswer	Mixed
24.0	1	362.215	0.019	429.363	-2.89	-1.0	13.8701	4.0	955.0	0.52	Outcome1	-2.89	1.1	3255.0	Yes		-3.98659871649679				ShowChoice	Mixed
24.0	1	366.244	0.029	433.392	-2.89	-1.0	13.8701	1.0	955.0	0.52	Outcome1	-2.89	1.1	3255.0	Yes		-3.98659871649679				ShowResult	Mixed
24.0	1	367.264	0.02	434.412	-2.89	-1.0	13.8701	2.0	955.0	0.52	Outcome1	-2.89	1.1	3255.0	Yes		-3.98659871649679				ISITrial	Mixed
24.0	1	372.563	0.022	439.711	-2.89	-1.0	13.8701	1.661	955.0	0.52	Outcome1	-2.89	1.1	3255.0	Yes		-3.98659871649679			280.0	TrialHappiness	Mixed
24.0	1	376.575	4.012	443.723	-2.89	-1.0	13.8701	5.02	955.0	0.52	Outcome1	-2.89	1.1	3255.0	Yes		-3.98659871649679				ISIRate	Mixed
25.0	1	381.623	0.028	448.771	2.07	1.03	14.1289	3.0	955.0	4.2	Outcome2	6.1	2.07	0.0	No	2.0	-4.0344469611174	0.894	382.517		GetAnswer	Gain
25.0	1	382.543	0.026	449.691	2.07	1.03	14.1289	4.0	955.0	4.2	Outcome2	6.1	2.07	0.0	No		-4.0344469611174				ShowChoice	Gain
25.0	1	386.555	0.012	453.703	2.07	1.03	14.1289	1.0	955.0	4.2	Outcome2	6.1	2.07	0.0	No		-4.0344469611174				ShowResult	Gain
25.0	1	387.574	0.019	454.722	2.07	1.03	14.1289	3.749	955.0	4.2	Outcome2	6.1	2.07	0.0	No		-4.0344469611174				ISITrial	Gain
26.0	1	391.352	0.029	458.5	-13.0	-13.0	12.5039	3.0	955.0	0.3	Certain	-27.07	0.7	0.0	No	4.0	27.773499433748604	1.326	392.678		GetAnswer	Mixed
26.0	1	392.69	0.012	459.838	-13.0	-13.0	12.5039	4.0	955.0	0.3	Certain	-27.07	0.7	0.0	No		27.773499433748604				ShowChoice	Mixed
26.0	1	396.702	0.012	463.85	-13.0	-13.0	12.5039	1.0	955.0	0.3	Certain	-27.07	0.7	0.0	No		27.773499433748604				ShowResult	Mixed
26.0	1	397.722	0.02	464.87	-13.0	-13.0	12.5039	7.834	955.0	0.3	Certain	-27.07	0.7	0.0	No		27.773499433748604				ISITrial	Mixed
27.0	1	405.578	0.022	472.726	-10.0	-10.0	11.2539	3.0	955.0	2.0	Certain	-24.24	4.3	2549.75	Yes	4.0	28.5379388448471	0.733	406.311		GetAnswer	Mixed
27.0	1	406.331	0.02	473.479	-10.0	-10.0	11.2539	4.0	955.0	2.0	Certain	-24.24	4.3	2549.75	Yes		28.5379388448471				ShowChoice	Mixed
27.0	1	410.343	0.012	477.491	-10.0	-10.0	11.2539	1.0	955.0	2.0	Certain	-24.24	4.3	2549.75	Yes		28.5379388448471				ShowResult	Mixed
27.0	1	411.362	0.019	478.51	-10.0	-10.0	11.2539	4.225	955.0	2.0	Certain	-24.24	4.3	2549.75	Yes		28.5379388448471				ISITrial	Mixed
27.0	1	418.183	0.025	485.331	-10.0	-10.0	11.2539	1.502	955.0	2.0	Certain	-24.24	4.3	2549.75	Yes		28.5379388448471			284.0	TrialHappiness	Mixed
27.0	1	422.195	4.012	489.343	-10.0	-10.0	11.2539	2.199	955.0	2.0	Certain	-24.24	4.3	2549.75	Yes		28.5379388448471				ISIRate	Mixed
	1	424.418	0.024	491.566				-0.001								{SPACE}		39.719	464.137		Rest	
	1	464.154	0.017	531.302				4.0													BlockHappyPreview	
	1	468.166	0.012	535.314				2.098												268.0	BlockStartHappiness	
	1	474.719	0.022	541.867				-0.001								5.0		4.898	479.617		ScanWait	
	2	0.017	0.017	546.782				10.0													GetReady	
28.0	2	10.03	0.013	556.795	0.0	0.0	11.2539	3.0	70.0	1.0	Certain	1.7	-1.67	0.0	No	4.0	-3.3673469387755097	1.273	11.303		GetAnswer	Mixed
28.0	2	11.317	0.014	558.082	0.0	0.0	11.2539	4.0	70.0	1.0	Certain	1.7	-1.67	0.0	No		-3.3673469387755097				ShowChoice	Mixed
28.0	2	15.329	0.012	562.094	0.0	0.0	11.2539	1.0	70.0	1.0	Certain	1.7	-1.67	0.0	No		-3.3673469387755097				ShowResult	Mixed
28.0	2	16.349	0.02	563.114	0.0	0.0	11.2539	3.575	70.0	1.0	Certain	1.7	-1.67	0.0	No		-3.3673469387755097				ISITrial	Mixed
29.0	2	19.943	0.019	566.708	4.31	2.15	11.7927	3.0	70.0	3.6	Outcome2	7.9	4.31	3529.0	Yes	2.0	-3.59183673469388	1.063	21.006		GetAnswer	Gain
29.0	2	21.03	0.024	567.795	4.31	2.15	11.7927	4.0	70.0	3.6	Outcome2	7.9	4.31	3529.0	Yes		-3.59183673469388				ShowChoice	Gain
29.0	2	25.042	0.012	571.807	4.31	2.15	11.7927	1.0	70.0	3.6	Outcome2	7.9	4.31	3529.0	Yes		-3.59183673469388				ShowResult	Gain
29.0	2	26.061	0.019	572.826	4.31	2.15	11.7927	3.955	70.0	3.6	Outcome2	7.9	4.31	3529.0	Yes		-3.59183673469388				ISITrial	Gain
29.0	2	33.584	0.015	580.349	4.31	2.15	11.7927	1.561	70.0	3.6	Outcome2	7.9	4.31	3529.0	Yes		-3.59183673469388			272.0	TrialHappiness	Gain
29.0	2	37.596	4.012	584.361	4.31	2.15	11.7927	6.116	70.0	3.6	Outcome2	7.9	4.31	3529.0	Yes		-3.59183673469388				ISIRate	Gain
30.0	2	43.731	0.019	590.496	3.02	1.51	12.1702	3.0	70.0	2.0	Outcome2	6.9	3.02	0.0	No	2.0	-3.8843537414966	0.859	44.59		GetAnswer	Gain
30.0	2	44.617	0.027	591.382	3.02	1.51	12.1702	4.0	70.0	2.0	Outcome2	6.9	3.02	0.0	No		-3.8843537414966				ShowChoice	Gain
30.0	2	48.629	0.012	595.394	3.02	1.51	12.1702	1.0	70.0	2.0	Outcome2	6.9	3.02	0.0	No		-3.8843537414966				ShowResult	Gain
30.0	2	49.649	0.02	596.414	3.02	1.51	12.1702	4.453	70.0	2.0	Outcome2	6.9	3.02	0.0	No		-3.8843537414966				ISITrial	Gain
31.0	2	54.129	0.027	600.894	1.39	0.7	12.344000000000001	3.0	70.0	2.8	Outcome2	5.5	1.39	2503.25	Yes	2.0	-4.11337868480726	1.572	55.701		GetAnswer	Gain
31.0	2	55.717	0.016	602.482	1.39	0.7	12.344000000000001	4.0	70.0	2.8	Outcome2	5.5	1.39	2503.25	Yes		-4.11337868480726				ShowChoice	Gain
31.0	2	59.729	0.012	606.494	1.39	0.7	12.344000000000001	1.0	70.0	2.8	Outcome2	5.5	1.39	2503.25	Yes		-4.11337868480726				ShowResult	Gain
31.0	2	60.749	0.02	607.514	1.39	0.7	12.344000000000001	4.786	70.0	2.8	Outcome2	5.5	1.39	2503.25	Yes		-4.11337868480726				ISITrial	Gain
31.0	2	68.071	0.022	614.836	1.39	0.7	12.344000000000001	3.15	70.0	2.8	Outcome2	5.5	1.39	2503.25	Yes		-4.11337868480726			264.0	TrialHappiness	Gain
31.0	2	72.083	4.012	618.848	1.39	0.7	12.344000000000001	2.013	70.0	2.8	Outcome2	5.5	1.39	2503.25	Yes		-4.11337868480726				ISIRate	Gain
32.0	2	74.122	0.026	620.887	7.69	3.84	13.3052	3.0	70.0	3.6	Outcome1	7.69	11.9	0.0	No	2.0	-4.20634920634921	1.162	75.284		GetAnswer	Loss
32.0	2	75.309	0.025	622.074	7.69	3.84	13.3052	4.0	70.0	3.6	Outcome1	7.69	11.9	0.0	No		-4.20634920634921				ShowChoice	Loss
32.0	2	79.321	0.012	626.086	7.69	3.84	13.3052	1.0	70.0	3.6	Outcome1	7.69	11.9	0.0	No		-4.20634920634921				ShowResult	Loss
32.0	2	80.341	0.02	627.106	7.69	3.84	13.3052	2.0	70.0	3.6	Outcome1	7.69	11.9	0.0	No		-4.20634920634921				ISITrial	Loss
33.0	2	82.363	0.022	629.128	4.47	2.24	13.864	3.0	70.0	2.0	Outcome1	4.47	8.9	0.0	No	2.0	-4.426303854875281	1.401	83.764		GetAnswer	Gain
33.0	2	83.784	0.02	630.549	4.47	2.24	13.864	4.0	70.0	2.0	Outcome1	4.47	8.9	0.0	No		-4.426303854875281				ShowChoice	Gain
33.0	2	87.796	0.012	634.561	4.47	2.24	13.864	1.0	70.0	2.0	Outcome1	4.47	8.9	0.0	No		-4.426303854875281				ShowResult	Gain
33.0	2	88.816	0.02	635.581	4.47	2.24	13.864	5.099	70.0	2.0	Outcome1	4.47	8.9	0.0	No		-4.426303854875281				ISITrial	Gain
34.0	2	93.931	0.016	640.696	0.0	0.0	13.864	3.0	70.0	0.2	Certain	0.12	-0.78	3231.5	Yes	4.0	0.9004157218442931	1.493	95.424		GetAnswer	Mixed
34.0	2	95.436	0.012	642.201	0.0	0.0	13.864	4.0	70.0	0.2	Certain	0.12	-0.78	3231.5	Yes		0.9004157218442931				ShowChoice	Mixed
34.0	2	99.448	0.012	646.213	0.0	0.0	13.864	1.0	70.0	0.2	Certain	0.12	-0.78	3231.5	Yes		0.9004157218442931				ShowResult	Mixed
34.0	2	100.468	0.02	647.233	0.0	0.0	13.864	4.784	70.0	0.2	Certain	0.12	-0.78	3231.5	Yes		0.9004157218442931				ISITrial	Mixed
34.0	2	108.525	0.028	655.29	0.0	0.0	13.864	1.958	70.0	0.2	Certain	0.12	-0.78	3231.5	Yes		0.9004157218442931			276.0	TrialHappiness	Mixed
34.0	2	112.537	4.012	659.302	0.0	0.0	13.864	4.926	70.0	0.2	Certain	0.12	-0.78	3231.5	Yes		0.9004157218442931				ISIRate	Mixed
35.0	2	117.485	0.022	664.25	3.03	1.52	14.2428	3.0	70.0	4.2	Outcome2	8.1	3.03	0.0	No	2.0	-5.0702947845805	1.167	118.652		GetAnswer	Gain
35.0	2	118.672	0.02	665.437	3.03	1.52	14.2428	4.0	70.0	4.2	Outcome2	8.1	3.03	0.0	No		-5.0702947845805				ShowChoice	Gain
35.0	2	122.684	0.012	669.449	3.03	1.52	14.2428	1.0	70.0	4.2	Outcome2	8.1	3.03	0.0	No		-5.0702947845805				ShowResult	Gain
35.0	2	123.704	0.02	670.469	3.03	1.52	14.2428	2.098	70.0	4.2	Outcome2	8.1	3.03	0.0	No		-5.0702947845805				ISITrial	Gain
36.0	2	125.827	0.025	672.592	0.0	0.0	14.2428	3.0	70.0	0.82	Certain	-0.12	-1.11	3335.75	Yes	4.0	0.9869614512471659	1.294	127.121		GetAnswer	Mixed
36.0	2	127.148	0.027	673.913	0.0	0.0	14.2428	4.0	70.0	0.82	Certain	-0.12	-1.11	3335.75	Yes		0.9869614512471659				ShowChoice	Mixed
36.0	2	131.16	0.012	677.925	0.0	0.0	14.2428	1.0	70.0	0.82	Certain	-0.12	-1.11	3335.75	Yes		0.9869614512471659				ShowResult	Mixed
36.0	2	132.179	0.019	678.944	0.0	0.0	14.2428	5.156	70.0	0.82	Certain	-0.12	-1.11	3335.75	Yes		0.9869614512471659				ISITrial	Mixed
36.0	2	140.722	0.024	687.487	0.0	0.0	14.2428	1.712	70.0	0.82	Certain	-0.12	-1.11	3335.75	Yes		0.9869614512471659			280.0	TrialHappiness	Mixed
36.0	2	144.734	4.012	691.499	0.0	0.0	14.2428	5.343	70.0	0.82	Certain	-0.12	-1.11	3335.75	Yes		0.9869614512471659				ISIRate	Mixed
37.0	2	150.1	0.023	696.865	2.0	2.0	14.4928	3.0	70.0	2.48	Certain	-0.31	5.3	0.0	No	4.0	-5.60544217687075	1.202	151.302		GetAnswer	Gain
37.0	2	151.32	0.018	698.085	2.0	2.0	14.4928	4.0	70.0	2.48	Certain	-0.31	5.3	0.0	No		-5.60544217687075				ShowChoice	Gain
37.0	2	155.332	0.012	702.097	2.0	2.0	14.4928	1.0	70.0	2.48	Certain	-0.31	5.3	0.0	No		-5.60544217687075				ShowResult	Gain
37.0	2	156.352	0.02	703.117	2.0	2.0	14.4928	3.598	70.0	2.48	Certain	-0.31	5.3	0.0	No		-5.60544217687075				ISITrial	Gain
38.0	2	159.979	0.029	706.744	7.06	3.53	15.3753	3.0	70.0	2.0	Outcome1	7.06	12.9	0.0	No	2.0	-5.843537414965991	1.183	161.162		GetAnswer	Loss
38.0	2	161.183	0.021	707.948	7.06	3.53	15.3753	4.0	70.0	2.0	Outcome1	7.06	12.9	0.0	No		-5.843537414965991				ShowChoice	Loss
38.0	2	165.195	0.012	711.96	7.06	3.53	15.3753	1.0	70.0	2.0	Outcome1	7.06	12.9	0.0	No		-5.843537414965991				ShowResult	Loss
38.0	2	166.215	0.02	712.98	7.06	3.53	15.3753	4.787	70.0	2.0	Outcome1	7.06	12.9	0.0	No		-5.843537414965991				ISITrial	Loss
39.0	2	171.029	0.027	717.794	3.82	1.91	15.8528	3.0	70.0	3.6	Outcome2	9.9	3.82	2864.25	Yes	2.0	-6.081632653061219	1.135	172.164		GetAnswer	Gain
39.0	2	172.183	0.019	718.948	3.82	1.91	15.8528	4.0	70.0	3.6	Outcome2	9.9	3.82	2864.25	Yes		-6.081632653061219				ShowChoice	Gain
39.0	2	176.195	0.012	722.96	3.82	1.91	15.8528	1.0	70.0	3.6	Outcome2	9.9	3.82	2864.25	Yes		-6.081632653061219				ShowResult	Gain
39.0	2	177.214	0.019	723.979	3.82	1.91	15.8528	2.348	70.0	3.6	Outcome2	9.9	3.82	2864.25	Yes		-6.081632653061219				ISITrial	Gain
39.0	2	182.48	0.028	729.245	3.82	1.91	15.8528	2.404	70.0	3.6	Outcome2	9.9	3.82	2864.25	Yes		-6.081632653061219			268.0	TrialHappiness	Gain
39.0	2	186.492	4.012	733.257	3.82	1.91	15.8528	3.457	70.0	3.6	Outcome2	9.9	3.82	2864.25	Yes		-6.081632653061219				ISIRate	Gain
40.0	2	189.969	0.02	736.734	-4.0	-4.0	15.3528	3.0	70.0	0.52	Certain	-7.02	-0.9	0.0	No	4.0	-6.1156462585034	1.225	191.194		GetAnswer	Mixed
40.0	2	191.206	0.012	737.971	-4.0	-4.0	15.3528	4.0	70.0	0.52	Certain	-7.02	-0.9	0.0	No		-6.1156462585034				ShowChoice	Mixed
40.0	2	195.218	0.012	741.983	-4.0	-4.0	15.3528	1.0	70.0	0.52	Certain	-7.02	-0.9	0.0	No		-6.1156462585034				ShowResult	Mixed
40.0	2	196.238	0.02	743.003	-4.0	-4.0	15.3528	3.158	70.0	0.52	Certain	-7.02	-0.9	0.0	No		-6.1156462585034				ISITrial	Mixed
41.0	2	199.414	0.018	746.179	-1.0	-1.0	15.2278	3.0	70.0	0.82	Certain	-4.84	1.5	4000.0	Yes	4.0	-6.3401360544217695	1.196	200.61		GetAnswer	Mixed
41.0	2	200.634	0.024	747.399	-1.0	-1.0	15.2278	4.0	70.0	0.82	Certain	-4.84	1.5	4000.0	Yes		-6.3401360544217695				ShowChoice	Mixed
41.0	2	204.647	0.013	751.412	-1.0	-1.0	15.2278	1.0	70.0	0.82	Certain	-4.84	1.5	4000.0	Yes		-6.3401360544217695				ShowResult	Mixed
41.0	2	205.666	0.019	752.431	-1.0	-1.0	15.2278	4.506	70.0	0.82	Certain	-4.84	1.5	4000.0	Yes		-6.3401360544217695				ISITrial	Mixed
41.0	2	214.225	0.029	760.99	-1.0	-1.0	15.2278	3.247	70.0	0.82	Certain	-4.84	1.5	4000.0	Yes		-6.3401360544217695			276.0	TrialHappiness	Mixed
41.0	2	218.237	4.012	765.002	-1.0	-1.0	15.2278	8.0	70.0	0.82	Certain	-4.84	1.5	4000.0	Yes		-6.3401360544217695				ISIRate	Mixed
42.0	2	226.261	0.024	773.026	0.0	0.0	15.2278	3.0	70.0	0.4	Certain	0.72	-0.38	0.0	No	4.0	1.10336356764928	0.943	227.204		GetAnswer	Mixed
42.0	2	227.231	0.027	773.996	0.0	0.0	15.2278	4.0	70.0	0.4	Certain	0.72	-0.38	0.0	No		1.10336356764928				ShowChoice	Mixed
42.0	2	231.243	0.012	778.008	0.0	0.0	15.2278	1.0	70.0	0.4	Certain	0.72	-0.38	0.0	No		1.10336356764928				ShowResult	Mixed
42.0	2	232.263	0.02	779.028	0.0	0.0	15.2278	6.248	70.0	0.4	Certain	0.72	-0.38	0.0	No		1.10336356764928				ISITrial	Mixed
43.0	2	238.531	0.02	785.296	0.37	0.18	15.274000000000001	3.0	70.0	2.48	Outcome2	7.3	0.37	2775.75	Yes	2.0	-6.9342403628117895	1.146	239.677		GetAnswer	Gain
43.0	2	239.702	0.025	786.467	0.37	0.18	15.274000000000001	4.0	70.0	2.48	Outcome2	7.3	0.37	2775.75	Yes		-6.9342403628117895				ShowChoice	Gain
43.0	2	243.714	0.012	790.479	0.37	0.18	15.274000000000001	1.0	70.0	2.48	Outcome2	7.3	0.37	2775.75	Yes		-6.9342403628117895				ShowResult	Gain
43.0	2	244.733	0.019	791.498	0.37	0.18	15.274000000000001	4.596	70.0	2.48	Outcome2	7.3	0.37	2775.75	Yes		-6.9342403628117895				ISITrial	Gain
43.0	2	252.156	0.033	798.921	0.37	0.18	15.274000000000001	2.284	70.0	2.48	Outcome2	7.3	0.37	2775.75	Yes		-6.9342403628117895			292.0	TrialHappiness	Gain
43.0	2	256.168	4.012	802.933	0.37	0.18	15.274000000000001	3.103	70.0	2.48	Outcome2	7.3	0.37	2775.75	Yes		-6.9342403628117895				ISIRate	Gain
44.0	2	259.294	0.023	806.059	3.06	1.53	15.6565	3.0	70.0	1.68	Outcome1	3.06	10.5	0.0	No	2.0	-7.439909297052151	1.553	260.847		GetAnswer	Loss
44.0	2	260.865	0.018	807.63	3.06	1.53	15.6565	4.0	70.0	1.68	Outcome1	3.06	10.5	0.0	No		-7.439909297052151				ShowChoice	Loss
44.0	2	264.877	0.012	811.642	3.06	1.53	15.6565	1.0	70.0	1.68	Outcome1	3.06	10.5	0.0	No		-7.439909297052151				ShowResult	Loss
44.0	2	265.897	0.02	812.662	3.06	1.53	15.6565	2.42	70.0	1.68	Outcome1	3.06	10.5	0.0	No		-7.439909297052151				ISITrial	Loss
45.0	2	268.337	0.02	815.102	-2.0	-2.0	15.4065	3.0	70.0	0.66	Certain	1.3	-6.39	0.0	No	4.0	-7.691609977324259	1.381	269.718		GetAnswer	Mixed
45.0	2	269.742	0.024	816.507	-2.0	-2.0	15.4065	4.0	70.0	0.66	Certain	1.3	-6.39	0.0	No		-7.691609977324259				ShowChoice	Mixed
45.0	2	273.754	0.012	820.519	-2.0	-2.0	15.4065	1.0	70.0	0.66	Certain	1.3	-6.39	0.0	No		-7.691609977324259				ShowResult	Mixed
45.0	2	274.773	0.019	821.538	-2.0	-2.0	15.4065	3.144	70.0	0.66	Certain	1.3	-6.39	0.0	No		-7.691609977324259				ISITrial	Mixed
46.0	2	277.933	0.016	824.698	5.36	2.68	16.0765	3.0	70.0	2.48	Outcome2	13.3	5.36	3841.25	Yes	2.0	-7.94331065759637	1.096	279.029		GetAnswer	Loss
46.0	2	279.053	0.024	825.818	5.36	2.68	16.0765	4.0	70.0	2.48	Outcome2	13.3	5.36	3841.25	Yes		-7.94331065759637				ShowChoice	Loss
46.0	2	283.065	0.012	829.83	5.36	2.68	16.0765	1.0	70.0	2.48	Outcome2	13.3	5.36	3841.25	Yes		-7.94331065759637				ShowResult	Loss
46.0	2	284.085	0.02	830.85	5.36	2.68	16.0765	2.246	70.0	2.48	Outcome2	13.3	5.36	3841.25	Yes		-7.94331065759637				ISITrial	Loss
46.0	2	290.203	0.021	836.968	5.36	2.68	16.0765	2.958	70.0	2.48	Outcome2	13.3	5.36	3841.25	Yes		-7.94331065759637			284.0	TrialHappiness	Loss
46.0	2	294.215	4.012	840.98	5.36	2.68	16.0765	7.365	70.0	2.48	Outcome2	13.3	5.36	3841.25	Yes		-7.94331065759637				ISIRate	Loss
47.0	2	301.604	0.024	848.369	2.17	1.0	16.3477	3.0	70.0	1.82	Outcome2	0.93	2.17	0.0	No	2.0	1.23771730914588	1.102	302.706		GetAnswer	Gain
47.0	2	302.724	0.018	849.489	2.17	1.0	16.3477	4.0	70.0	1.82	Outcome2	0.93	2.17	0.0	No		1.23771730914588				ShowChoice	Gain
47.0	2	306.736	0.012	853.501	2.17	1.0	16.3477	1.0	70.0	1.82	Outcome2	0.93	2.17	0.0	No		1.23771730914588				ShowResult	Gain
47.0	2	307.755	0.019	854.52	2.17	1.0	16.3477	2.0	70.0	1.82	Outcome2	0.93	2.17	0.0	No		1.23771730914588				ISITrial	Gain
48.0	2	309.778	0.023	856.543	5.6	2.8	17.0477	3.0	70.0	3.6	Outcome1	5.6	13.9	2831.75	Yes	2.0	-8.3015873015873	1.889	311.667		GetAnswer	Loss
48.0	2	311.684	0.017	858.449	5.6	2.8	17.0477	4.0	70.0	3.6	Outcome1	5.6	13.9	2831.75	Yes		-8.3015873015873				ShowChoice	Loss
48.0	2	315.696	0.012	862.461	5.6	2.8	17.0477	1.0	70.0	3.6	Outcome1	5.6	13.9	2831.75	Yes		-8.3015873015873				ShowResult	Loss
48.0	2	316.716	0.02	863.481	5.6	2.8	17.0477	3.692	70.0	3.6	Outcome1	5.6	13.9	2831.75	Yes		-8.3015873015873				ISITrial	Loss
48.0	2	323.285	0.026	870.05	5.6	2.8	17.0477	1.38	70.0	3.6	Outcome1	5.6	13.9	2831.75	Yes		-8.3015873015873			276.0	TrialHappiness	Loss
48.0	2	327.297	4.012	874.062	5.6	2.8	17.0477	3.327	70.0	3.6	Outcome1	5.6	13.9	2831.75	Yes		-8.3015873015873				ISIRate	Loss
49.0	2	330.641	0.017	877.406	-1.0	-1.0	16.9227	3.0	70.0	0.66	Certain	-1.43	-0.18	0.0	No	4.0	1.2456538170823899	1.158	331.799		GetAnswer	Mixed
49.0	2	331.811	0.012	878.576	-1.0	-1.0	16.9227	4.0	70.0	0.66	Certain	-1.43	-0.18	0.0	No		1.2456538170823899				ShowChoice	Mixed
49.0	2	335.823	0.012	882.588	-1.0	-1.0	16.9227	1.0	70.0	0.66	Certain	-1.43	-0.18	0.0	No		1.2456538170823899				ShowResult	Mixed
49.0	2	336.843	0.02	883.608	-1.0	-1.0	16.9227	8.0	70.0	0.66	Certain	-1.43	-0.18	0.0	No		1.2456538170823899				ISITrial	Mixed
50.0	2	344.867	0.024	891.632	2.42	2.0	17.2252	3.0	70.0	3.16	Outcome1	2.42	1.15	3547.25	Yes	2.0	1.2651171579743001	1.246	346.113		GetAnswer	Gain
50.0	2	346.137	0.024	892.902	2.42	2.0	17.2252	4.0	70.0	3.16	Outcome1	2.42	1.15	3547.25	Yes		1.2651171579743001				ShowChoice	Gain
50.0	2	350.149	0.012	896.914	2.42	2.0	17.2252	1.0	70.0	3.16	Outcome1	2.42	1.15	3547.25	Yes		1.2651171579743001				ShowResult	Gain
50.0	2	351.169	0.02	897.934	2.42	2.0	17.2252	7.537	70.0	3.16	Outcome1	2.42	1.15	3547.25	Yes		1.2651171579743001				ISITrial	Gain
50.0	2	362.302	0.03	909.067	2.42	2.0	17.2252	1.764	70.0	3.16	Outcome1	2.42	1.15	3547.25	Yes		1.2651171579743001			292.0	TrialHappiness	Gain
50.0	2	366.314	4.012	913.079	2.42	2.0	17.2252	6.189	70.0	3.16	Outcome1	2.42	1.15	3547.25	Yes		1.2651171579743001				ISIRate	Gain
51.0	2	372.533	0.03	919.298	-4.0	-4.0	16.7252	3.0	70.0	1.2	Certain	-0.1	-9.25	0.0	No	4.0	-9.14739229024943	1.221	373.754		GetAnswer	Mixed
51.0	2	373.77	0.016	920.535	-4.0	-4.0	16.7252	4.0	70.0	1.2	Certain	-0.1	-9.25	0.0	No		-9.14739229024943				ShowChoice	Mixed
51.0	2	377.782	0.012	924.547	-4.0	-4.0	16.7252	1.0	70.0	1.2	Certain	-0.1	-9.25	0.0	No		-9.14739229024943				ShowResult	Mixed
51.0	2	378.802	0.02	925.567	-4.0	-4.0	16.7252	5.508	70.0	1.2	Certain	-0.1	-9.25	0.0	No		-9.14739229024943				ISITrial	Mixed
52.0	2	384.335	0.025	931.1	1.3	0.65	16.8877	3.0	70.0	1.82	Outcome1	1.3	10.7	0.0	No	2.0	-9.39909297052154	1.165	385.5		GetAnswer	Loss
52.0	2	385.522	0.022	932.287	1.3	0.65	16.8877	4.0	70.0	1.82	Outcome1	1.3	10.7	0.0	No		-9.39909297052154				ShowChoice	Loss
52.0	2	389.534	0.012	936.299	1.3	0.65	16.8877	1.0	70.0	1.82	Outcome1	1.3	10.7	0.0	No		-9.39909297052154				ShowResult	Loss
52.0	2	390.554	0.02	937.319	1.3	0.65	16.8877	5.913	70.0	1.82	Outcome1	1.3	10.7	0.0	No		-9.39909297052154				ISITrial	Loss
53.0	2	396.488	0.021	943.253	-6.0	-6.0	16.1377	3.0	70.0	0.2	Certain	-1.5	-11.15	2996.75	Yes	4.0	-9.65079365079365	1.451	397.939		GetAnswer	Mixed
53.0	2	397.959	0.02	944.724	-6.0	-6.0	16.1377	4.0	70.0	0.2	Certain	-1.5	-11.15	2996.75	Yes		-9.65079365079365				ShowChoice	Mixed
53.0	2	401.971	0.012	948.736	-6.0	-6.0	16.1377	1.0	70.0	0.2	Certain	-1.5	-11.15	2996.75	Yes		-9.65079365079365				ShowResult	Mixed
53.0	2	402.991	0.02	949.756	-6.0	-6.0	16.1377	3.66	70.0	0.2	Certain	-1.5	-11.15	2996.75	Yes		-9.65079365079365				ISITrial	Mixed
53.0	2	409.694	0.028	956.459	-6.0	-6.0	16.1377	1.226	70.0	0.2	Certain	-1.5	-11.15	2996.75	Yes		-9.65079365079365			280.0	TrialHappiness	Mixed
53.0	2	413.706	4.012	960.471	-6.0	-6.0	16.1377	3.987	70.0	0.2	Certain	-1.5	-11.15	2996.75	Yes		-9.65079365079365				ISIRate	Mixed
54.0	2	417.718	0.025	964.483	0.0	0.0	16.1377	3.0	70.0	1.68	Certain	4.5	-5.2	0.0	No	4.0	-9.6984126984127	1.442	419.16		GetAnswer	Gain
54.0	2	419.173	0.013	965.938	0.0	0.0	16.1377	4.0	70.0	1.68	Certain	4.5	-5.2	0.0	No		-9.6984126984127				ShowChoice	Gain
54.0	2	423.185	0.012	969.95	0.0	0.0	16.1377	1.0	70.0	1.68	Certain	4.5	-5.2	0.0	No		-9.6984126984127				ShowResult	Gain
54.0	2	424.204	0.019	970.969	0.0	0.0	16.1377	8.0	70.0	1.68	Certain	4.5	-5.2	0.0	No		-9.6984126984127				ISITrial	Gain
	2	432.228	0.024	978.993				-0.001								{SPACE}		51.628	483.856		Rest	
	2	483.883	0.027	1030.648				4.0													BlockHappyPreview	
	2	487.895	0.012	1034.66				1.894												332.0	BlockStartHappiness	
	2	494.548	0.021	1041.313				-0.001								5.0		3.52	498.068		ScanWait	
	3	0.024	0.024	1044.857				10.0													GetReady	
55.0	3	10.038	0.014	1054.871	2.17	1.08	16.4089	3.0	955.0	1.82	Outcome1	2.17	4.7	2533.25	Yes	2.0	-2.52821819554549	0.99	11.028		GetAnswer	Gain
55.0	3	11.041	0.013	1055.874	2.17	1.08	16.4089	4.0	955.0	1.82	Outcome1	2.17	4.7	2533.25	Yes		-2.52821819554549				ShowChoice	Gain
55.0	3	15.053	0.012	1059.886	2.17	1.08	16.4089	1.0	955.0	1.82	Outcome1	2.17	4.7	2533.25	Yes		-2.52821819554549				ShowResult	Gain
55.0	3	16.073	0.02	1060.906	2.17	1.08	16.4089	7.709	955.0	1.82	Outcome1	2.17	4.7	2533.25	Yes		-2.52821819554549				ISITrial	Gain
55.0	3	26.353	0.024	1071.186	2.17	1.08	16.4089	3.139	955.0	1.82	Outcome1	2.17	4.7	2533.25	Yes		-2.52821819554549			328.0	TrialHappiness	Gain
55.0	3	30.365	4.012	1075.198	2.17	1.08	16.4089	2.133	955.0	1.82	Outcome1	2.17	4.7	2533.25	Yes		-2.52821819554549				ISIRate	Gain
56.0	3	32.522	0.024	1077.355	4.1	2.05	16.9214	3.0	955.0	1.82	Outcome2	6.7	4.1	0.0	No	2.0	-2.60324650811627	1.117	33.639		GetAnswer	Gain
56.0	3	33.659	0.02	1078.492	4.1	2.05	16.9214	4.0	955.0	1.82	Outcome2	6.7	4.1	0.0	No		-2.60324650811627				ShowChoice	Gain
56.0	3	37.671	0.012	1082.504	4.1	2.05	16.9214	1.0	955.0	1.82	Outcome2	6.7	4.1	0.0	No		-2.60324650811627				ShowResult	Gain
56.0	3	38.69	0.019	1083.523	4.1	2.05	16.9214	4.697	955.0	1.82	Outcome2	6.7	4.1	0.0	No		-2.60324650811627				ISITrial	Gain
57.0	3	43.404	0.017	1088.237	0.0	0.0	16.9214	3.0	955.0	0.4	Certain	0.9	-1.76	0.0	No	4.0	-2.6624197810494503	0.858	44.262		GetAnswer	Mixed
57.0	3	44.274	0.012	1089.107	0.0	0.0	16.9214	4.0	955.0	0.4	Certain	0.9	-1.76	0.0	No		-2.6624197810494503				ShowChoice	Mixed
57.0	3	48.286	0.012	1093.119	0.0	0.0	16.9214	1.0	955.0	0.4	Certain	0.9	-1.76	0.0	No		-2.6624197810494503				ShowResult	Mixed
57.0	3	49.305	0.019	1094.138	0.0	0.0	16.9214	4.291	955.0	0.4	Certain	0.9	-1.76	0.0	No		-2.6624197810494503				ISITrial	Mixed
58.0	3	53.618	0.022	1098.451	-6.0	-6.0	16.1714	3.0	955.0	1.5	Certain	-12.68	0.1	3045.75	Yes	4.0	12.7768969422424	0.662	54.28		GetAnswer	Mixed
58.0	3	54.304	0.024	1099.137	-6.0	-6.0	16.1714	4.0	955.0	1.5	Certain	-12.68	0.1	3045.75	Yes		12.7768969422424				ShowChoice	Mixed
58.0	3	58.316	0.012	1103.149	-6.0	-6.0	16.1714	1.0	955.0	1.5	Certain	-12.68	0.1	3045.75	Yes		12.7768969422424				ShowResult	Mixed
58.0	3	59.335	0.019	1104.168	-6.0	-6.0	16.1714	2.037	955.0	1.5	Certain	-12.68	0.1	3045.75	Yes		12.7768969422424				ISITrial	Mixed
58.0	3	64.468	0.03	1109.301	-6.0	-6.0	16.1714	1.561	955.0	1.5	Certain	-12.68	0.1	3045.75	Yes		12.7768969422424			344.0	TrialHappiness	Mixed
58.0	3	68.48	4.012	1113.313	-6.0	-6.0	16.1714	4.183	955.0	1.5	Certain	-12.68	0.1	3045.75	Yes		12.7768969422424				ISIRate	Mixed
59.0	3	72.692	0.029	1117.525	-0.26	-0.26	16.1389	3.0	955.0	1.82	Certain	12.7	-0.52	0.0	No	4.0	13.2151755379388	0.787	73.479		GetAnswer	Loss
59.0	3	73.495	0.016	1118.328	-0.26	-0.26	16.1389	4.0	955.0	1.82	Certain	12.7	-0.52	0.0	No		13.2151755379388				ShowChoice	Loss
59.0	3	77.507	0.012	1122.34	-0.26	-0.26	16.1389	1.0	955.0	1.82	Certain	12.7	-0.52	0.0	No		13.2151755379388				ShowResult	Loss
59.0	3	78.526	0.019	1123.359	-0.26	-0.26	16.1389	5.064	955.0	1.82	Certain	12.7	-0.52	0.0	No		13.2151755379388				ISITrial	Loss
60.0	3	83.608	0.018	1128.441	10.9	-1.5	17.5014	3.0	955.0	2.0	Outcome1	10.9	-3.01	3562.5	Yes	2.0	13.907134767836899	1.354	84.962		GetAnswer	Loss
60.0	3	84.979	0.017	1129.812	10.9	-1.5	17.5014	4.0	955.0	2.0	Outcome1	10.9	-3.01	3562.5	Yes		13.907134767836899				ShowChoice	Loss
60.0	3	88.991	0.012	1133.824	10.9	-1.5	17.5014	1.0	955.0	2.0	Outcome1	10.9	-3.01	3562.5	Yes		13.907134767836899				ShowResult	Loss
60.0	3	90.011	0.02	1134.844	10.9	-1.5	17.5014	8.0	955.0	2.0	Outcome1	10.9	-3.01	3562.5	Yes		13.907134767836899				ISITrial	Loss
60.0	3	101.612	0.015	1146.445	10.9	-1.5	17.5014	2.284	955.0	2.0	Outcome1	10.9	-3.01	3562.5	Yes		13.907134767836899			360.0	TrialHappiness	Loss
60.0	3	105.624	4.012	1150.457	10.9	-1.5	17.5014	6.25	955.0	2.0	Outcome1	10.9	-3.01	3562.5	Yes		13.907134767836899				ISIRate	Loss
61.0	3	111.893	0.019	1156.726	6.73	3.36	18.3426	3.0	955.0	2.8	Outcome1	6.73	9.5	0.0	No	2.0	-2.7662325405813504	1.102	112.995		GetAnswer	Gain
61.0	3	113.013	0.018	1157.846	6.73	3.36	18.3426	4.0	955.0	2.8	Outcome1	6.73	9.5	0.0	No		-2.7662325405813504				ShowChoice	Gain
61.0	3	117.025	0.012	1161.858	6.73	3.36	18.3426	1.0	955.0	2.8	Outcome1	6.73	9.5	0.0	No		-2.7662325405813504				ShowResult	Gain
61.0	3	118.045	0.02	1162.878	6.73	3.36	18.3426	4.586	955.0	2.8	Outcome1	6.73	9.5	0.0	No		-2.7662325405813504				ISITrial	Gain
62.0	3	122.659	0.028	1167.492	1.0	1.0	18.4676	3.0	955.0	2.0	Certain	2.3	-0.52	3748.75	Yes	4.0	-2.82238580596451	1.599	124.258		GetAnswer	Mixed
62.0	3	124.28	0.022	1169.113	1.0	1.0	18.4676	4.0	955.0	2.0	Certain	2.3	-0.52	3748.75	Yes		-2.82238580596451				ShowChoice	Mixed
62.0	3	128.292	0.012	1173.125	1.0	1.0	18.4676	1.0	955.0	2.0	Certain	2.3	-0.52	3748.75	Yes		-2.82238580596451				ShowResult	Mixed
62.0	3	129.312	0.02	1174.145	1.0	1.0	18.4676	5.212	955.0	2.0	Certain	2.3	-0.52	3748.75	Yes		-2.82238580596451				ISITrial	Mixed
62.0	3	138.322	0.029	1183.155	1.0	1.0	18.4676	1.612	955.0	2.0	Certain	2.3	-0.52	3748.75	Yes		-2.82238580596451			356.0	TrialHappiness	Mixed
62.0	3	142.334	4.012	1187.167	1.0	1.0	18.4676	6.995	955.0	2.0	Certain	2.3	-0.52	3748.75	Yes		-2.82238580596451				ISIRate	Mixed
63.0	3	149.355	0.026	1194.188	-4.0	-4.0	17.9676	3.0	955.0	0.82	Certain	3.5	-12.24	0.0	No	4.0	15.7429218573046	1.516	150.871		GetAnswer	Mixed
63.0	3	150.893	0.022	1195.726	-4.0	-4.0	17.9676	4.0	955.0	0.82	Certain	3.5	-12.24	0.0	No		15.7429218573046				ShowChoice	Mixed
63.0	3	154.905	0.012	1199.738	-4.0	-4.0	17.9676	1.0	955.0	0.82	Certain	3.5	-12.24	0.0	No		15.7429218573046				ShowResult	Mixed
63.0	3	155.925	0.02	1200.758	-4.0	-4.0	17.9676	5.595	955.0	0.82	Certain	3.5	-12.24	0.0	No		15.7429218573046				ISITrial	Mixed
64.0	3	161.542	0.022	1206.375	-1.96	-1.96	17.7226	3.0	955.0	1.68	Certain	-3.92	12.5	0.0	No	4.0	16.4212910532276	0.698	162.24		GetAnswer	Loss
64.0	3	162.261	0.021	1207.094	-1.96	-1.96	17.7226	4.0	955.0	1.68	Certain	-3.92	12.5	0.0	No		16.4212910532276				ShowChoice	Loss
64.0	3	166.273	0.012	1211.106	-1.96	-1.96	17.7226	1.0	955.0	1.68	Certain	-3.92	12.5	0.0	No		16.4212910532276				ShowResult	Loss
64.0	3	167.292	0.019	1212.125	-1.96	-1.96	17.7226	5.47	955.0	1.68	Certain	-3.92	12.5	0.0	No		16.4212910532276				ISITrial	Loss
65.0	3	172.792	0.03	1217.625	-5.0	-5.0	17.0976	3.0	955.0	0.66	Certain	-13.8	3.3	2996.75	Yes	4.0	17.0996602491506	0.902	173.694		GetAnswer	Mixed
65.0	3	173.712	0.018	1218.545	-5.0	-5.0	17.0976	4.0	955.0	0.66	Certain	-13.8	3.3	2996.75	Yes		17.0996602491506				ShowChoice	Mixed
65.0	3	177.724	0.012	1222.557	-5.0	-5.0	17.0976	1.0	955.0	0.66	Certain	-13.8	3.3	2996.75	Yes		17.0996602491506				ShowResult	Mixed
65.0	3	178.743	0.019	1223.576	-5.0	-5.0	17.0976	3.344	955.0	0.66	Certain	-13.8	3.3	2996.75	Yes		17.0996602491506				ISITrial	Mixed
65.0	3	185.129	0.029	1229.962	-5.0	-5.0	17.0976	1.513	955.0	0.66	Certain	-13.8	3.3	2996.75	Yes		17.0996602491506			348.0	TrialHappiness	Mixed
65.0	3	189.141	4.012	1233.974	-5.0	-5.0	17.0976	3.987	955.0	0.66	Certain	-13.8	3.3	2996.75	Yes		17.0996602491506				ISIRate	Mixed
66.0	3	193.153	0.025	1237.986	-6.0	-6.0	16.3476	3.0	955.0	0.2	Certain	2.5	-15.41	0.0	No	4.0	17.9139297848245	1.121	194.274		GetAnswer	Mixed
66.0	3	194.29	0.016	1239.123	-6.0	-6.0	16.3476	4.0	955.0	0.2	Certain	2.5	-15.41	0.0	No		17.9139297848245				ShowChoice	Mixed
66.0	3	198.302	0.012	1243.135	-6.0	-6.0	16.3476	1.0	955.0	0.2	Certain	2.5	-15.41	0.0	No		17.9139297848245				ShowResult	Mixed
66.0	3	199.322	0.02	1244.155	-6.0	-6.0	16.3476	3.959	955.0	0.2	Certain	2.5	-15.41	0.0	No		17.9139297848245				ISITrial	Mixed
67.0	3	203.3	0.019	1248.133	-2.0	-2.0	16.0976	3.0	955.0	0.4	Certain	-4.25	-1.1	2918.5	Yes	4.0	-3.1541147602869	1.037	204.337		GetAnswer	Mixed
67.0	3	204.353	0.016	1249.186	-2.0	-2.0	16.0976	4.0	955.0	0.4	Certain	-4.25	-1.1	2918.5	Yes		-3.1541147602869				ShowChoice	Mixed
67.0	3	208.365	0.012	1253.198	-2.0	-2.0	16.0976	1.0	955.0	0.4	Certain	-4.25	-1.1	2918.5	Yes		-3.1541147602869				ShowResult	Mixed
67.0	3	209.385	0.02	1254.218	-2.0	-2.0	16.0976	4.199	955.0	0.4	Certain	-4.25	-1.1	2918.5	Yes		-3.1541147602869				ISITrial	Mixed
67.0	3	216.54	0.024	1261.373	-2.0	-2.0	16.0976	1.597	955.0	0.4	Certain	-4.25	-1.1	2918.5	Yes		-3.1541147602869			352.0	TrialHappiness	Mixed
67.0	3	220.552	4.012	1265.385	-2.0	-2.0	16.0976	3.674	955.0	0.4	Certain	-4.25	-1.1	2918.5	Yes		-3.1541147602869				ISIRate	Mixed
68.0	3	224.246	0.02	1269.079	-4.0	-4.0	15.5976	3.0	955.0	2.22	Certain	-14.12	5.1	0.0	No	4.0	19.2208380520951	0.975	225.221		GetAnswer	Gain
68.0	3	225.233	0.012	1270.066	-4.0	-4.0	15.5976	4.0	955.0	2.22	Certain	-14.12	5.1	0.0	No		19.2208380520951				ShowChoice	Gain
68.0	3	229.245	0.012	1274.078	-4.0	-4.0	15.5976	1.0	955.0	2.22	Certain	-14.12	5.1	0.0	No		19.2208380520951				ShowResult	Gain
68.0	3	230.264	0.019	1275.097	-4.0	-4.0	15.5976	2.185	955.0	2.22	Certain	-14.12	5.1	0.0	No		19.2208380520951				ISITrial	Gain
69.0	3	232.471	0.022	1277.304	-1.0	-1.0	15.4726	3.0	955.0	2.22	Certain	9.1	-10.8	0.0	No	4.0	19.903737259343103	1.154	233.625		GetAnswer	Gain
69.0	3	233.641	0.016	1278.474	-1.0	-1.0	15.4726	4.0	955.0	2.22	Certain	9.1	-10.8	0.0	No		19.903737259343103				ShowChoice	Gain
69.0	3	237.653	0.012	1282.486	-1.0	-1.0	15.4726	1.0	955.0	2.22	Certain	9.1	-10.8	0.0	No		19.903737259343103				ShowResult	Gain
69.0	3	238.673	0.02	1283.506	-1.0	-1.0	15.4726	2.0	955.0	2.22	Certain	9.1	-10.8	0.0	No		19.903737259343103				ISITrial	Gain
70.0	3	240.696	0.023	1285.529	1.59	0.8	15.6714	3.0	955.0	2.0	Outcome2	4.9	1.59	3651.25	Yes	2.0	-3.30898452246131	1.363	242.059		GetAnswer	Gain
70.0	3	242.083	0.024	1286.916	1.59	0.8	15.6714	4.0	955.0	2.0	Outcome2	4.9	1.59	3651.25	Yes		-3.30898452246131				ShowChoice	Gain
70.0	3	246.095	0.012	1290.928	1.59	0.8	15.6714	1.0	955.0	2.0	Outcome2	4.9	1.59	3651.25	Yes		-3.30898452246131				ShowResult	Gain
70.0	3	247.115	0.02	1291.948	1.59	0.8	15.6714	2.623	955.0	2.0	Outcome2	4.9	1.59	3651.25	Yes		-3.30898452246131				ISITrial	Gain
70.0	3	253.434	0.027	1298.267	1.59	0.8	15.6714	2.899	955.0	2.0	Outcome2	4.9	1.59	3651.25	Yes		-3.30898452246131			364.0	TrialHappiness	Gain
70.0	3	257.446	4.012	1302.279	1.59	0.8	15.6714	6.605	955.0	2.0	Outcome2	4.9	1.59	3651.25	Yes		-3.30898452246131				ISIRate	Gain
71.0	3	264.082	0.031	1308.915	2.58	1.29	15.9939	3.0	955.0	3.6	Outcome1	2.58	5.9	0.0	No	2.0	-3.31719516798792	0.913	264.995		GetAnswer	Gain
71.0	3	265.018	0.023	1309.851	2.58	1.29	15.9939	4.0	955.0	3.6	Outcome1	2.58	5.9	0.0	No		-3.31719516798792				ShowChoice	Gain
71.0	3	269.03	0.012	1313.863	2.58	1.29	15.9939	1.0	955.0	3.6	Outcome1	2.58	5.9	0.0	No		-3.31719516798792				ShowResult	Gain
71.0	3	270.05	0.02	1314.883	2.58	1.29	15.9939	5.499	955.0	3.6	Outcome1	2.58	5.9	0.0	No		-3.31719516798792				ISITrial	Gain
72.0	3	275.567	0.018	1320.4	0.0	0.0	15.9939	3.0	955.0	1.2	Certain	1.9	-1.47	3080.5	Yes	4.0	-3.37297093242733	0.976	276.543		GetAnswer	Mixed
72.0	3	276.553	0.01	1321.386	0.0	0.0	15.9939	4.0	955.0	1.2	Certain	1.9	-1.47	3080.5	Yes		-3.37297093242733				ShowChoice	Mixed
72.0	3	280.565	0.012	1325.398	0.0	0.0	15.9939	1.0	955.0	1.2	Certain	1.9	-1.47	3080.5	Yes		-3.37297093242733				ShowResult	Mixed
72.0	3	281.585	0.02	1326.418	0.0	0.0	15.9939	5.672	955.0	1.2	Certain	1.9	-1.47	3080.5	Yes		-3.37297093242733				ISITrial	Mixed
72.0	3	290.378	0.03	1335.211	0.0	0.0	15.9939	2.088	955.0	1.2	Certain	1.9	-1.47	3080.5	Yes		-3.37297093242733			340.0	TrialHappiness	Mixed
72.0	3	294.39	4.012	1339.223	0.0	0.0	15.9939	4.322	955.0	1.2	Certain	1.9	-1.47	3080.5	Yes		-3.37297093242733				ISIRate	Mixed
73.0	3	298.736	0.024	1343.569	-4.0	-4.0	15.4939	3.0	955.0	2.22	Certain	7.1	-15.71	0.0	No	4.0	22.8120045300113	0.897	299.633		GetAnswer	Gain
73.0	3	299.656	0.023	1344.489	-4.0	-4.0	15.4939	4.0	955.0	2.22	Certain	7.1	-15.71	0.0	No		22.8120045300113				ShowChoice	Gain
73.0	3	303.668	0.012	1348.501	-4.0	-4.0	15.4939	1.0	955.0	2.22	Certain	7.1	-15.71	0.0	No		22.8120045300113				ShowResult	Gain
73.0	3	304.687	0.019	1349.52	-4.0	-4.0	15.4939	4.616	955.0	2.22	Certain	7.1	-15.71	0.0	No		22.8120045300113				ISITrial	Gain
74.0	3	309.335	0.032	1354.168	1.0	1.0	15.6189	3.0	955.0	2.8	Certain	13.5	-10.01	3056.25	Yes	4.0	23.5084937712344	0.841	310.176		GetAnswer	Loss
74.0	3	310.204	0.028	1355.037	1.0	1.0	15.6189	4.0	955.0	2.8	Certain	13.5	-10.01	3056.25	Yes		23.5084937712344				ShowChoice	Loss
74.0	3	314.216	0.012	1359.049	1.0	1.0	15.6189	1.0	955.0	2.8	Certain	13.5	-10.01	3056.25	Yes		23.5084937712344				ShowResult	Loss
74.0	3	315.236	0.02	1360.069	1.0	1.0	15.6189	3.909	955.0	2.8	Certain	13.5	-10.01	3056.25	Yes		23.5084937712344				ISITrial	Loss
74.0	3	322.24	0.02	1367.073	1.0	1.0	15.6189	1.555	955.0	2.8	Certain	13.5	-10.01	3056.25	Yes		23.5084937712344			352.0	TrialHappiness	Loss
74.0	3	326.252	4.012	1371.085	1.0	1.0	15.6189	4.225	955.0	2.8	Certain	13.5	-10.01	3056.25	Yes		23.5084937712344				ISIRate	Loss
75.0	3	330.498	0.021	1375.331	3.91	1.96	16.1077	3.0	955.0	2.8	Outcome1	3.91	7.5	0.0	No	2.0	-3.59352585881465	1.003	331.501		GetAnswer	Gain
75.0	3	331.518	0.017	1376.351	3.91	1.96	16.1077	4.0	955.0	2.8	Outcome1	3.91	7.5	0.0	No		-3.59352585881465				ShowChoice	Gain
75.0	3	335.53	0.012	1380.363	3.91	1.96	16.1077	1.0	955.0	2.8	Outcome1	3.91	7.5	0.0	No		-3.59352585881465				ShowResult	Gain
75.0	3	336.549	0.019	1381.382	3.91	1.96	16.1077	4.979	955.0	2.8	Outcome1	3.91	7.5	0.0	No		-3.59352585881465				ISITrial	Gain
76.0	3	341.548	0.02	1386.381	-6.0	-6.0	15.3577	3.0	955.0	5.0	Certain	-18.38	6.3	0.0	No	4.0	24.684031710079303	1.082	342.63		GetAnswer	Gain
76.0	3	342.651	0.021	1387.484	-6.0	-6.0	15.3577	4.0	955.0	5.0	Certain	-18.38	6.3	0.0	No		24.684031710079303				ShowChoice	Gain
76.0	3	346.663	0.012	1391.496	-6.0	-6.0	15.3577	1.0	955.0	5.0	Certain	-18.38	6.3	0.0	No		24.684031710079303				ShowResult	Gain
76.0	3	347.683	0.02	1392.516	-6.0	-6.0	15.3577	3.931	955.0	5.0	Certain	-18.38	6.3	0.0	No		24.684031710079303				ISITrial	Gain
77.0	3	351.645	0.031	1396.478	0.0	0.0	15.3577	3.0	955.0	5.0	Certain	12.3	-13.07	4000.0	Yes	4.0	25.3669309173273	1.234	352.879		GetAnswer	Loss
77.0	3	352.898	0.019	1397.731	0.0	0.0	15.3577	4.0	955.0	5.0	Certain	12.3	-13.07	4000.0	Yes		25.3669309173273				ShowChoice	Loss
77.0	3	356.91	0.012	1401.743	0.0	0.0	15.3577	1.0	955.0	5.0	Certain	12.3	-13.07	4000.0	Yes		25.3669309173273				ShowResult	Loss
77.0	3	357.93	0.02	1402.763	0.0	0.0	15.3577	7.022	955.0	5.0	Certain	12.3	-13.07	4000.0	Yes		25.3669309173273				ISITrial	Loss
77.0	3	368.997	0.029	1413.83	0.0	0.0	15.3577	1.902	955.0	5.0	Certain	12.3	-13.07	4000.0	Yes		25.3669309173273			344.0	TrialHappiness	Loss
77.0	3	373.009	4.012	1417.842	0.0	0.0	15.3577	8.0	955.0	5.0	Certain	12.3	-13.07	4000.0	Yes		25.3669309173273				ISIRate	Loss
78.0	3	381.033	0.024	1425.866	-11.0	-11.0	13.9827	3.0	955.0	1.5	Certain	2.1	-24.09	0.0	No	4.0	26.185730464326202	0.914	381.947		GetAnswer	Mixed
78.0	3	381.969	0.022	1426.802	-11.0	-11.0	13.9827	4.0	955.0	1.5	Certain	2.1	-24.09	0.0	No		26.185730464326202				ShowChoice	Mixed
78.0	3	385.981	0.012	1430.814	-11.0	-11.0	13.9827	1.0	955.0	1.5	Certain	2.1	-24.09	0.0	No		26.185730464326202				ShowResult	Mixed
78.0	3	387.001	0.02	1431.834	-11.0	-11.0	13.9827	2.078	955.0	1.5	Certain	2.1	-24.09	0.0	No		26.185730464326202				ISITrial	Mixed
79.0	3	389.107	0.028	1433.94	0.0	0.0	13.9827	3.0	955.0	1.82	Certain	-14.18	12.7	2729.5	Yes	4.0	26.877689694224202	1.23	390.337		GetAnswer	Loss
79.0	3	390.361	0.024	1435.194	0.0	0.0	13.9827	4.0	955.0	1.82	Certain	-14.18	12.7	2729.5	Yes		26.877689694224202				ShowChoice	Loss
79.0	3	394.373	0.012	1439.206	0.0	0.0	13.9827	1.0	955.0	1.82	Certain	-14.18	12.7	2729.5	Yes		26.877689694224202				ShowResult	Loss
79.0	3	395.392	0.019	1440.225	0.0	0.0	13.9827	3.829	955.0	1.82	Certain	-14.18	12.7	2729.5	Yes		26.877689694224202				ISITrial	Loss
79.0	3	401.996	0.029	1446.829	0.0	0.0	13.9827	1.963	955.0	1.82	Certain	-14.18	12.7	2729.5	Yes		26.877689694224202			348.0	TrialHappiness	Loss
79.0	3	406.008	4.012	1450.841	0.0	0.0	13.9827	2.918	955.0	1.82	Certain	-14.18	12.7	2729.5	Yes		26.877689694224202				ISIRate	Loss
80.0	3	408.95	0.024	1453.783	-14.0	-14.0	12.2327	3.0	955.0	1.0	Certain	-27.8	-0.3	0.0	No	4.0	27.5016987542469	1.465	410.415		GetAnswer	Mixed
80.0	3	410.438	0.023	1455.271	-14.0	-14.0	12.2327	4.0	955.0	1.0	Certain	-27.8	-0.3	0.0	No		27.5016987542469				ShowChoice	Mixed
80.0	3	414.45	0.012	1459.283	-14.0	-14.0	12.2327	1.0	955.0	1.0	Certain	-27.8	-0.3	0.0	No		27.5016987542469				ShowResult	Mixed
80.0	3	415.469	0.019	1460.302	-14.0	-14.0	12.2327	3.336	955.0	1.0	Certain	-27.8	-0.3	0.0	No		27.5016987542469				ISITrial	Mixed
81.0	3	418.829	0.024	1463.662	-6.0	-6.0	11.4827	3.0	955.0	5.0	Certain	-19.89	8.3	3923.75	Yes	4.0	28.1891279728199	0.731	419.56		GetAnswer	Gain
81.0	3	419.582	0.022	1464.415	-6.0	-6.0	11.4827	4.0	955.0	5.0	Certain	-19.89	8.3	3923.75	Yes		28.1891279728199				ShowChoice	Gain
81.0	3	423.594	0.012	1468.427	-6.0	-6.0	11.4827	1.0	955.0	5.0	Certain	-19.89	8.3	3923.75	Yes		28.1891279728199				ShowResult	Gain
81.0	3	424.613	0.019	1469.446	-6.0	-6.0	11.4827	3.919	955.0	5.0	Certain	-19.89	8.3	3923.75	Yes		28.1891279728199				ISITrial	Gain
81.0	3	432.504	0.022	1477.337	-6.0	-6.0	11.4827	2.865	955.0	5.0	Certain	-19.89	8.3	3923.75	Yes		28.1891279728199			360.0	TrialHappiness	Gain
81.0	3	436.516	4.012	1481.349	-6.0	-6.0	11.4827	7.695	955.0	5.0	Certain	-19.89	8.3	3923.75	Yes		28.1891279728199				ISIRate	Gain
	3	444.239	0.028	1489.072				3.0													CurrentEarnings	
	3	447.265	0.026	1492.098				-0.001								{SPACE}		11.155	458.42		Goodbye	
