trial_number	block	onset	onset_delay	onset_unadjusted	amount_change	certain_amount	current_amount	duration	mood_target	multiplier	outcome	outcome1_amount	outcome2_amount	question_duration	rating	response	rpe	rt	rt_time	slider_response	trial_phase	trial_type
	0	-51.444	0.038	29.143				-0.001								{SPACE}		10.112	-41.332		Welcome	
	0	-41.315	0.017	39.272				5.0													LifeHappyPreview	
	0	-36.283	0.032	44.304				3.773												692.0	LifeHappiness	
	0	-17.973	0.016	62.614				4.0													BlockHappyPreview	
	0	-13.958	0.015	66.629				1.956												560.0	BlockStartHappiness	
	0	-7.06	0.017	73.527				-0.001								5.0					ScanWait	
	1	0.021	0.021	80.608				10.0													GetReady	
1.0	1	10.05	0.029	90.637	7.9	3.95	10.9875	3.0	955.0	2.8	Outcome2	9.5	7.9	0.0	No	2.0	-1.6029633824084601	1.082	11.132		GetAnswer	Gain
1.0	1	11.15	0.018	91.737	7.9	3.95	10.9875	4.0	955.0	2.8	Outcome2	9.5	7.9	0.0	No		-1.6029633824084601				ShowChoice	Gain
1.0	1	15.165	0.015	95.752	7.9	3.95	10.9875	1.0	955.0	2.8	Outcome2	9.5	7.9	0.0	No		-1.6029633824084601				ShowResult	Gain
1.0	1	16.182	0.017	96.769	7.9	3.95	10.9875	2.431	955.0	2.8	Outcome2	9.5	7.9	0.0	No		-1.6029633824084601				ISITrial	Gain
2.0	1	18.631	0.018	99.218	7.5	0.17	11.925	3.0	955.0	2.8	Outcome1	7.5	0.34	0.0	No	2.0	7.15741789354473	1.157	19.788		GetAnswer	Gain
2.0	1	19.814	0.026	100.401	7.5	0.17	11.925	4.0	955.0	2.8	Outcome1	7.5	0.34	0.0	No		7.15741789354473				ShowChoice	Gain
2.0	1	23.829	0.015	104.416	7.5	0.17	11.925	1.0	955.0	2.8	Outcome1	7.5	0.34	0.0	No		7.15741789354473				ShowResult	Gain
2.0	1	24.845	0.016	105.432	7.5	0.17	11.925	4.568	955.0	2.8	Outcome1	7.5	0.34	0.0	No		7.15741789354473				ISITrial	Gain
3.0	1	29.444	0.031	110.031	13.5	2.95	13.6125	3.0	955.0	2.8	Outcome1	13.5	5.9	2868.0	Yes	2.0	7.6047565118912805	0.938	30.382		GetAnswer	Loss
3.0	1	30.393	0.011	110.98	13.5	2.95	13.6125	4.0	955.0	2.8	Outcome1	13.5	5.9	2868.0	Yes		7.6047565118912805				ShowChoice	Loss
3.0	1	34.408	0.015	114.995	13.5	2.95	13.6125	1.0	955.0	2.8	Outcome1	13.5	5.9	2868.0	Yes		7.6047565118912805				ShowResult	Loss
3.0	1	35.425	0.017	116.012	13.5	2.95	13.6125	3.243	955.0	2.8	Outcome1	13.5	5.9	2868.0	Yes		7.6047565118912805				ISITrial	Loss
3.0	1	41.573	0.015	122.16	13.5	2.95	13.6125	3.839	955.0	2.8	Outcome1	13.5	5.9	2868.0	Yes		7.6047565118912805			732.0	TrialHappiness	Loss
3.0	1	45.588	4.015	126.175	13.5	2.95	13.6125	3.472	955.0	2.8	Outcome1	13.5	5.9	2868.0	Yes		7.6047565118912805				ISIRate	Loss
4.0	1	49.087	0.027	129.674	6.1	0.48	14.375	3.0	955.0	4.2	Outcome2	0.97	6.1	0.0	No	2.0	5.130237825594559	1.02	50.107		GetAnswer	Gain
4.0	1	50.12	0.013	130.707	6.1	0.48	14.375	4.0	955.0	4.2	Outcome2	0.97	6.1	0.0	No		5.130237825594559				ShowChoice	Gain
4.0	1	54.135	0.015	134.722	6.1	0.48	14.375	1.0	955.0	4.2	Outcome2	0.97	6.1	0.0	No		5.130237825594559				ShowResult	Gain
4.0	1	55.151	0.016	135.738	6.1	0.48	14.375	2.011	955.0	4.2	Outcome2	0.97	6.1	0.0	No		5.130237825594559				ISITrial	Gain
5.0	1	57.184	0.022	137.771	-0.7	-3.0	14.2875	3.0	955.0	0.66	Outcome2	-6.08	-0.7	2582.5	Yes	2.0	5.38278595696489	1.679	58.863		GetAnswer	Mixed
5.0	1	58.883	0.02	139.47	-0.7	-3.0	14.2875	4.0	955.0	0.66	Outcome2	-6.08	-0.7	2582.5	Yes		5.38278595696489				ShowChoice	Mixed
5.0	1	62.898	0.015	143.485	-0.7	-3.0	14.2875	1.0	955.0	0.66	Outcome2	-6.08	-0.7	2582.5	Yes		5.38278595696489				ShowResult	Mixed
5.0	1	63.915	0.017	144.502	-0.7	-3.0	14.2875	5.129	955.0	0.66	Outcome2	-6.08	-0.7	2582.5	Yes		5.38278595696489				ISITrial	Mixed
5.0	1	71.662	0.017	152.249	-0.7	-3.0	14.2875	3.722	955.0	0.66	Outcome2	-6.08	-0.7	2582.5	Yes		5.38278595696489			712.0	TrialHappiness	Mixed
5.0	1	75.677	4.015	156.264	-0.7	-3.0	14.2875	2.33	955.0	0.66	Outcome2	-6.08	-0.7	2582.5	Yes		5.38278595696489				ISIRate	Mixed
6.0	1	78.026	0.019	158.613	3.96	1.98	14.7825	3.0	955.0	2.22	Outcome1	3.96	5.1	0.0	No	2.0	-1.1400528501321299	1.154	79.18		GetAnswer	Gain
6.0	1	79.193	0.013	159.78	3.96	1.98	14.7825	4.0	955.0	2.22	Outcome1	3.96	5.1	0.0	No		-1.1400528501321299				ShowChoice	Gain
6.0	1	83.208	0.015	163.795	3.96	1.98	14.7825	1.0	955.0	2.22	Outcome1	3.96	5.1	0.0	No		-1.1400528501321299				ShowResult	Gain
6.0	1	84.224	0.016	164.811	3.96	1.98	14.7825	6.232	955.0	2.22	Outcome1	3.96	5.1	0.0	No		-1.1400528501321299				ISITrial	Gain
7.0	1	90.472	0.016	171.059	-0.3	-3.0	14.745	3.0	955.0	1.0	Outcome1	-0.3	-6.55	0.0	No	2.0	6.25028312570781	1.659	92.131		GetAnswer	Mixed
7.0	1	92.155	0.024	172.742	-0.3	-3.0	14.745	4.0	955.0	1.0	Outcome1	-0.3	-6.55	0.0	No		6.25028312570781				ShowChoice	Mixed
7.0	1	96.17	0.015	176.757	-0.3	-3.0	14.745	1.0	955.0	1.0	Outcome1	-0.3	-6.55	0.0	No		6.25028312570781				ShowResult	Mixed
7.0	1	97.186	0.016	177.773	-0.3	-3.0	14.745	2.305	955.0	1.0	Outcome1	-0.3	-6.55	0.0	No		6.25028312570781				ISITrial	Mixed
8.0	1	99.519	0.028	180.106	-1.0	-1.0	14.62	3.0	955.0	1.2	Certain	-4.63	1.9	3112.5	Yes	4.0	6.52548131370328	1.756	101.275		GetAnswer	Mixed
8.0	1	101.301	0.026	181.888	-1.0	-1.0	14.62	4.0	955.0	1.2	Certain	-4.63	1.9	3112.5	Yes		6.52548131370328				ShowChoice	Mixed
8.0	1	105.317	0.016	185.904	-1.0	-1.0	14.62	1.0	955.0	1.2	Certain	-4.63	1.9	3112.5	Yes		6.52548131370328				ShowResult	Mixed
8.0	1	106.333	0.016	186.92	-1.0	-1.0	14.62	3.506	955.0	1.2	Certain	-4.63	1.9	3112.5	Yes		6.52548131370328				ISITrial	Mixed
8.0	1	112.997	0.02	193.584	-1.0	-1.0	14.62	3.623	955.0	1.2	Certain	-4.63	1.9	3112.5	Yes	2{-2}2{-2}2{-2}2{-2}2{-2}2{-2}2{-2}2{-2}2{-2}	6.52548131370328	3.623	116.62	688.0	TrialHappiness	Mixed
8.0	1	117.012	4.015	197.599	-1.0	-1.0	14.62	4.45	955.0	1.2	Certain	-4.63	1.9	3112.5	Yes		6.52548131370328				ISIRate	Mixed
9.0	1	121.477	0.015	202.064	-4.0	-4.0	14.12	3.0	955.0	0.82	Certain	-7.71	-0.5	0.0	No	4.0	7.2083805209513	2.13	123.607		GetAnswer	Mixed
9.0	1	123.627	0.02	204.214	-4.0	-4.0	14.12	4.0	955.0	0.82	Certain	-7.71	-0.5	0.0	No		7.2083805209513				ShowChoice	Mixed
9.0	1	127.642	0.015	208.229	-4.0	-4.0	14.12	1.0	955.0	0.82	Certain	-7.71	-0.5	0.0	No		7.2083805209513				ShowResult	Mixed
9.0	1	128.658	0.016	209.245	-4.0	-4.0	14.12	2.0	955.0	0.82	Certain	-7.71	-0.5	0.0	No		7.2083805209513				ISITrial	Mixed
10.0	1	130.674	0.016	211.261	9.7	1.1	15.3325	3.0	955.0	3.16	Outcome2	2.19	9.7	4000.0	Yes	2.0	7.510758776896941	0.959	131.633		GetAnswer	Gain
10.0	1	131.657	0.024	212.244	9.7	1.1	15.3325	4.0	955.0	3.16	Outcome2	2.19	9.7	4000.0	Yes		7.510758776896941				ShowChoice	Gain
10.0	1	135.672	0.015	216.259	9.7	1.1	15.3325	1.0	955.0	3.16	Outcome2	2.19	9.7	4000.0	Yes		7.510758776896941				ShowResult	Gain
10.0	1	136.689	0.017	217.276	9.7	1.1	15.3325	2.0	955.0	3.16	Outcome2	2.19	9.7	4000.0	Yes		7.510758776896941				ISITrial	Gain
10.0	1	142.72	0.015	223.307	9.7	1.1	15.3325	3.424	955.0	3.16	Outcome2	2.19	9.7	4000.0	Yes		7.510758776896941			712.0	TrialHappiness	Gain
10.0	1	146.735	4.015	227.322	9.7	1.1	15.3325	8.0	955.0	3.16	Outcome2	2.19	9.7	4000.0	Yes		7.510758776896941				ISIRate	Gain
11.0	1	154.766	0.031	235.353	5.5	2.0	16.02	3.0	955.0	2.8	Outcome1	5.5	-1.91	0.0	No	2.0	7.40543601359003	1.658	156.424		GetAnswer	Gain
11.0	1	156.448	0.024	237.035	5.5	2.0	16.02	4.0	955.0	2.8	Outcome1	5.5	-1.91	0.0	No		7.40543601359003				ShowChoice	Gain
11.0	1	160.464	0.016	241.051	5.5	2.0	16.02	1.0	955.0	2.8	Outcome1	5.5	-1.91	0.0	No		7.40543601359003				ShowResult	Gain
11.0	1	161.48	0.016	242.067	5.5	2.0	16.02	3.324	955.0	2.8	Outcome1	5.5	-1.91	0.0	No		7.40543601359003				ISITrial	Gain
12.0	1	164.829	0.025	245.416	-1.0	-1.0	15.895	3.0	955.0	0.2	Certain	2.5	-5.18	2618.75	Yes	4.0	7.6806342015855	1.295	166.124		GetAnswer	Mixed
12.0	1	166.145	0.021	246.732	-1.0	-1.0	15.895	4.0	955.0	0.2	Certain	2.5	-5.18	2618.75	Yes		7.6806342015855				ShowChoice	Mixed
12.0	1	170.16	0.015	250.747	-1.0	-1.0	15.895	1.0	955.0	0.2	Certain	2.5	-5.18	2618.75	Yes		7.6806342015855				ShowResult	Mixed
12.0	1	171.176	0.016	251.763	-1.0	-1.0	15.895	6.642	955.0	0.2	Certain	2.5	-5.18	2618.75	Yes		7.6806342015855				ISITrial	Mixed
12.0	1	180.49	0.03	261.077	-1.0	-1.0	15.895	3.893	955.0	0.2	Certain	2.5	-5.18	2618.75	Yes		7.6806342015855			620.0	TrialHappiness	Mixed
12.0	1	184.505	4.015	265.092	-1.0	-1.0	15.895	2.475	955.0	0.2	Certain	2.5	-5.18	2618.75	Yes		7.6806342015855				ISIRate	Mixed
13.0	1	187.004	0.024	267.591	-6.0	-6.0	15.145	3.0	955.0	0.4	Certain	-1.1	-10.62	0.0	No	4.0	9.51868629671574	2.555	189.559		GetAnswer	Mixed
13.0	1	189.57	0.011	270.157	-6.0	-6.0	15.145	4.0	955.0	0.4	Certain	-1.1	-10.62	0.0	No		9.51868629671574				ShowChoice	Mixed
13.0	1	193.585	0.015	274.172	-6.0	-6.0	15.145	1.0	955.0	0.4	Certain	-1.1	-10.62	0.0	No		9.51868629671574				ShowResult	Mixed
13.0	1	194.601	0.016	275.188	-6.0	-6.0	15.145	3.48	955.0	0.4	Certain	-1.1	-10.62	0.0	No		9.51868629671574				ISITrial	Mixed
14.0	1	198.1	0.019	278.687	4.9	0.0	15.7575	3.0	955.0	2.0	Outcome2	-5.0	4.9	0.0	No	2.0	9.89807474518686	1.962	200.062		GetAnswer	Gain
14.0	1	200.083	0.021	280.67	4.9	0.0	15.7575	4.0	955.0	2.0	Outcome2	-5.0	4.9	0.0	No		9.89807474518686				ShowChoice	Gain
14.0	1	204.098	0.015	284.685	4.9	0.0	15.7575	1.0	955.0	2.0	Outcome2	-5.0	4.9	0.0	No		9.89807474518686				ShowResult	Gain
14.0	1	205.114	0.016	285.701	4.9	0.0	15.7575	5.019	955.0	2.0	Outcome2	-5.0	4.9	0.0	No		9.89807474518686				ISITrial	Gain
15.0	1	210.163	0.03	290.75	9.1	-0.59	16.895	3.0	955.0	2.22	Outcome2	-1.18	9.1	3348.5	Yes	2.0	10.277463193658	1.852	212.015		GetAnswer	Gain
15.0	1	212.029	0.014	292.616	9.1	-0.59	16.895	4.0	955.0	2.22	Outcome2	-1.18	9.1	3348.5	Yes		10.277463193658				ShowChoice	Gain
15.0	1	216.044	0.015	296.631	9.1	-0.59	16.895	1.0	955.0	2.22	Outcome2	-1.18	9.1	3348.5	Yes		10.277463193658				ShowResult	Gain
15.0	1	217.06	0.016	297.647	9.1	-0.59	16.895	7.614	955.0	2.22	Outcome2	-1.18	9.1	3348.5	Yes		10.277463193658				ISITrial	Gain
15.0	1	228.056	0.017	308.643	9.1	-0.59	16.895	3.464	955.0	2.22	Outcome2	-1.18	9.1	3348.5	Yes		10.277463193658			708.0	TrialHappiness	Gain
15.0	1	232.071	4.015	312.658	9.1	-0.59	16.895	5.394	955.0	2.22	Outcome2	-1.18	9.1	3348.5	Yes		10.277463193658				ISIRate	Gain
16.0	1	237.486	0.021	318.073	0.0	0.0	16.895	3.0	955.0	1.2	Certain	-5.26	3.9	0.0	No	4.0	9.161947904869761	2.023	239.509		GetAnswer	Mixed
16.0	1	239.535	0.026	320.122	0.0	0.0	16.895	4.0	955.0	1.2	Certain	-5.26	3.9	0.0	No		9.161947904869761				ShowChoice	Mixed
16.0	1	243.551	0.016	324.138	0.0	0.0	16.895	1.0	955.0	1.2	Certain	-5.26	3.9	0.0	No		9.161947904869761				ShowResult	Mixed
16.0	1	244.567	0.016	325.154	0.0	0.0	16.895	3.008	955.0	1.2	Certain	-5.26	3.9	0.0	No		9.161947904869761				ISITrial	Mixed
17.0	1	247.599	0.024	328.186	12.3	1.43	18.4325	3.0	955.0	5.0	Outcome1	12.3	2.86	3041.5	Yes	2.0	9.441676104190261	1.172	248.771		GetAnswer	Loss
17.0	1	248.782	0.011	329.369	12.3	1.43	18.4325	4.0	955.0	5.0	Outcome1	12.3	2.86	3041.5	Yes		9.441676104190261				ShowChoice	Loss
17.0	1	252.797	0.015	333.384	12.3	1.43	18.4325	1.0	955.0	5.0	Outcome1	12.3	2.86	3041.5	Yes		9.441676104190261				ShowResult	Loss
17.0	1	253.814	0.017	334.401	12.3	1.43	18.4325	3.566	955.0	5.0	Outcome1	12.3	2.86	3041.5	Yes		9.441676104190261				ISITrial	Loss
17.0	1	260.461	0.023	341.048	12.3	1.43	18.4325	2.988	955.0	5.0	Outcome1	12.3	2.86	3041.5	Yes		9.441676104190261			760.0	TrialHappiness	Loss
17.0	1	264.477	4.016	345.064	12.3	1.43	18.4325	4.166	955.0	5.0	Outcome1	12.3	2.86	3041.5	Yes		9.441676104190261				ISIRate	Loss
18.0	1	268.658	0.015	349.245	12.7	1.93	20.02	3.0	955.0	1.82	Outcome1	12.7	3.86	0.0	No	2.0	8.838052095130239	1.069	269.727		GetAnswer	Loss
18.0	1	269.741	0.013	350.328	12.7	1.93	20.02	4.0	955.0	1.82	Outcome1	12.7	3.86	0.0	No		8.838052095130239				ShowChoice	Loss
18.0	1	273.757	0.016	354.344	12.7	1.93	20.02	1.0	955.0	1.82	Outcome1	12.7	3.86	0.0	No		8.838052095130239				ShowResult	Loss
18.0	1	274.773	0.016	355.36	12.7	1.93	20.02	6.787	955.0	1.82	Outcome1	12.7	3.86	0.0	No		8.838052095130239				ISITrial	Loss
19.0	1	281.587	0.027	362.174	13.9	2.42	21.7575	3.0	955.0	3.6	Outcome2	4.84	13.9	0.0	No	2.0	9.05889014722537	1.079	282.666		GetAnswer	Loss
19.0	1	282.687	0.021	363.274	13.9	2.42	21.7575	4.0	955.0	3.6	Outcome2	4.84	13.9	0.0	No		9.05889014722537				ShowChoice	Loss
19.0	1	286.702	0.015	367.289	13.9	2.42	21.7575	1.0	955.0	3.6	Outcome2	4.84	13.9	0.0	No		9.05889014722537				ShowResult	Loss
19.0	1	287.718	0.016	368.305	13.9	2.42	21.7575	2.0	955.0	3.6	Outcome2	4.84	13.9	0.0	No		9.05889014722537				ISITrial	Loss
20.0	1	289.734	0.016	370.321	-6.0	-6.0	21.0075	3.0	955.0	0.2	Certain	-1.5	-10.78	2921.25	Yes	4.0	9.2797281993205	1.808	291.542		GetAnswer	Mixed
20.0	1	291.567	0.025	372.154	-6.0	-6.0	21.0075	4.0	955.0	0.2	Certain	-1.5	-10.78	2921.25	Yes		9.2797281993205				ShowChoice	Mixed
20.0	1	295.582	0.015	376.169	-6.0	-6.0	21.0075	1.0	955.0	0.2	Certain	-1.5	-10.78	2921.25	Yes		9.2797281993205				ShowResult	Mixed
20.0	1	296.599	0.017	377.186	-6.0	-6.0	21.0075	8.0	955.0	0.2	Certain	-1.5	-10.78	2921.25	Yes		9.2797281993205				ISITrial	Mixed
20.0	1	307.561	0.028	388.148	-6.0	-6.0	21.0075	1.04	955.0	0.2	Certain	-1.5	-10.78	2921.25	Yes		9.2797281993205			528.0	TrialHappiness	Mixed
20.0	1	311.577	4.016	392.164	-6.0	-6.0	21.0075	3.685	955.0	0.2	Certain	-1.5	-10.78	2921.25	Yes		9.2797281993205				ISIRate	Mixed
21.0	1	315.292	0.03	395.879	0.0	0.0	21.0075	3.0	955.0	2.0	Certain	6.9	-6.54	0.0	No	4.0	13.441676104190302	1.67	316.962		GetAnswer	Gain
21.0	1	316.975	0.013	397.562	0.0	0.0	21.0075	4.0	955.0	2.0	Certain	6.9	-6.54	0.0	No		13.441676104190302				ShowChoice	Gain
21.0	1	320.99	0.015	401.577	0.0	0.0	21.0075	1.0	955.0	2.0	Certain	6.9	-6.54	0.0	No		13.441676104190302				ShowResult	Gain
21.0	1	322.006	0.016	402.593	0.0	0.0	21.0075	3.555	955.0	2.0	Certain	6.9	-6.54	0.0	No		13.441676104190302				ISITrial	Gain
22.0	1	325.588	0.027	406.175	4.7	-2.0	21.595	3.0	955.0	1.82	Outcome2	-9.23	4.7	3219.5	Yes	2.0	13.925254813137	2.014	327.602		GetAnswer	Gain
22.0	1	327.621	0.019	408.208	4.7	-2.0	21.595	4.0	955.0	1.82	Outcome2	-9.23	4.7	3219.5	Yes		13.925254813137				ShowChoice	Gain
22.0	1	331.636	0.015	412.223	4.7	-2.0	21.595	1.0	955.0	1.82	Outcome2	-9.23	4.7	3219.5	Yes		13.925254813137				ShowResult	Gain
22.0	1	332.652	0.016	413.239	4.7	-2.0	21.595	6.793	955.0	1.82	Outcome2	-9.23	4.7	3219.5	Yes		13.925254813137				ISITrial	Gain
22.0	1	342.715	0.028	423.302	4.7	-2.0	21.595	1.673	955.0	1.82	Outcome2	-9.23	4.7	3219.5	Yes		13.925254813137			616.0	TrialHappiness	Gain
22.0	1	346.731	4.016	427.318	4.7	-2.0	21.595	4.878	955.0	1.82	Outcome2	-9.23	4.7	3219.5	Yes		13.925254813137				ISIRate	Gain
23.0	1	351.629	0.02	432.216	0.0	0.0	21.595	3.0	955.0	3.6	Certain	5.9	-7.01	0.0	No	4.0	12.9139297848245	1.372	353.001		GetAnswer	Gain
23.0	1	353.012	0.011	433.599	0.0	0.0	21.595	4.0	955.0	3.6	Certain	5.9	-7.01	0.0	No		12.9139297848245				ShowChoice	Gain
23.0	1	357.027	0.015	437.614	0.0	0.0	21.595	1.0	955.0	3.6	Certain	5.9	-7.01	0.0	No		12.9139297848245				ShowResult	Gain
23.0	1	358.043	0.016	438.63	0.0	0.0	21.595	8.0	955.0	3.6	Certain	5.9	-7.01	0.0	No		12.9139297848245				ISITrial	Gain
24.0	1	366.074	0.031	446.661	-7.0	-7.0	20.72	3.0	955.0	0.52	Certain	-0.9	-14.2	3255.0	Yes	4.0	13.2978482446206	2.234	368.308		GetAnswer	Mixed
24.0	1	368.323	0.015	448.91	-7.0	-7.0	20.72	4.0	955.0	0.52	Certain	-0.9	-14.2	3255.0	Yes		13.2978482446206				ShowChoice	Mixed
24.0	1	372.338	0.015	452.925	-7.0	-7.0	20.72	1.0	955.0	0.52	Certain	-0.9	-14.2	3255.0	Yes		13.2978482446206				ShowResult	Mixed
24.0	1	373.355	0.017	453.942	-7.0	-7.0	20.72	2.0	955.0	0.52	Certain	-0.9	-14.2	3255.0	Yes		13.2978482446206				ISITrial	Mixed
24.0	1	378.653	0.027	459.24	-7.0	-7.0	20.72	0.606	955.0	0.52	Certain	-0.9	-14.2	3255.0	Yes		13.2978482446206			472.0	TrialHappiness	Mixed
24.0	1	382.668	4.015	463.255	-7.0	-7.0	20.72	5.02	955.0	0.52	Certain	-0.9	-14.2	3255.0	Yes		13.2978482446206				ISIRate	Mixed
25.0	1	387.716	0.028	468.303	7.7	0.0	21.6825	3.0	955.0	3.16	Outcome1	7.7	-8.43	0.0	No	2.0	16.127972819932	1.929	389.645		GetAnswer	Gain
25.0	1	389.665	0.02	470.252	7.7	0.0	21.6825	4.0	955.0	3.16	Outcome1	7.7	-8.43	0.0	No		16.127972819932				ShowChoice	Gain
25.0	1	393.681	0.016	474.268	7.7	0.0	21.6825	1.0	955.0	3.16	Outcome1	7.7	-8.43	0.0	No		16.127972819932				ShowResult	Gain
25.0	1	394.697	0.016	475.284	7.7	0.0	21.6825	3.749	955.0	3.16	Outcome1	7.7	-8.43	0.0	No		16.127972819932				ISITrial	Gain
26.0	1	398.462	0.016	479.049	7.63	3.82	22.6363	3.0	955.0	5.0	Outcome2	10.3	7.63	0.0	No	2.0	-2.66591166477916	1.074	399.536		GetAnswer	Gain
26.0	1	399.562	0.026	480.149	7.63	3.82	22.6363	4.0	955.0	5.0	Outcome2	10.3	7.63	0.0	No		-2.66591166477916				ShowChoice	Gain
26.0	1	403.577	0.015	484.164	7.63	3.82	22.6363	1.0	955.0	5.0	Outcome2	10.3	7.63	0.0	No		-2.66591166477916				ShowResult	Gain
26.0	1	404.593	0.016	485.18	7.63	3.82	22.6363	7.834	955.0	5.0	Outcome2	10.3	7.63	0.0	No		-2.66591166477916				ISITrial	Gain
27.0	1	412.457	0.03	493.044	7.39	3.7	23.5601	3.0	955.0	4.2	Outcome2	10.1	7.39	2549.75	Yes	2.0	-2.7114949037372593	1.042	413.499		GetAnswer	Gain
27.0	1	413.524	0.025	494.111	7.39	3.7	23.5601	4.0	955.0	4.2	Outcome2	10.1	7.39	2549.75	Yes		-2.7114949037372593				ShowChoice	Gain
27.0	1	417.539	0.015	498.126	7.39	3.7	23.5601	1.0	955.0	4.2	Outcome2	10.1	7.39	2549.75	Yes		-2.7114949037372593				ShowResult	Gain
27.0	1	418.555	0.016	499.142	7.39	3.7	23.5601	4.225	955.0	4.2	Outcome2	10.1	7.39	2549.75	Yes		-2.7114949037372593				ISITrial	Gain
27.0	1	425.386	0.032	505.973	7.39	3.7	23.5601	2.689	955.0	4.2	Outcome2	10.1	7.39	2549.75	Yes		-2.7114949037372593			648.0	TrialHappiness	Gain
27.0	1	429.401	4.015	509.988	7.39	3.7	23.5601	2.199	955.0	4.2	Outcome2	10.1	7.39	2549.75	Yes		-2.7114949037372593				ISIRate	Gain
	1	431.634	0.034	512.221				-0.001								{SPACE}		31.452	463.086		Rest	
	1	463.106	0.02	543.693				4.0													BlockHappyPreview	
	1	467.121	0.015	547.708				3.256												684.0	BlockStartHappiness	
	1	473.319	0.025	553.906				-0.001								5.0		2.971	476.29		ScanWait	
	2	0.028	0.028	556.905				10.0													GetReady	
28.0	2	10.058	0.03	566.935	-7.14	-2.0	22.6676	3.0	70.0	0.66	Outcome2	3.3	-7.14	0.0	No	2.0	-10.4421768707483	1.755	11.813		GetAnswer	Mixed
28.0	2	11.84	0.027	568.717	-7.14	-2.0	22.6676	4.0	70.0	0.66	Outcome2	3.3	-7.14	0.0	No		-10.4421768707483				ShowChoice	Mixed
28.0	2	15.856	0.016	572.733	-7.14	-2.0	22.6676	1.0	70.0	0.66	Outcome2	3.3	-7.14	0.0	No		-10.4421768707483				ShowResult	Mixed
28.0	2	16.872	0.016	573.749	-7.14	-2.0	22.6676	3.575	70.0	0.66	Outcome2	3.3	-7.14	0.0	No		-10.4421768707483				ISITrial	Mixed
29.0	2	20.471	0.024	577.348	2.56	1.28	22.9876	3.0	70.0	3.16	Outcome1	2.56	13.7	3529.0	Yes	2.0	-11.1383219954649	1.163	21.634		GetAnswer	Loss
29.0	2	21.654	0.02	578.531	2.56	1.28	22.9876	4.0	70.0	3.16	Outcome1	2.56	13.7	3529.0	Yes		-11.1383219954649				ShowChoice	Loss
29.0	2	25.669	0.015	582.546	2.56	1.28	22.9876	1.0	70.0	3.16	Outcome1	2.56	13.7	3529.0	Yes		-11.1383219954649				ShowResult	Loss
29.0	2	26.685	0.016	583.562	2.56	1.28	22.9876	3.955	70.0	3.16	Outcome1	2.56	13.7	3529.0	Yes		-11.1383219954649				ISITrial	Loss
29.0	2	34.216	0.02	591.093	2.56	1.28	22.9876	1.82	70.0	3.16	Outcome1	2.56	13.7	3529.0	Yes		-11.1383219954649			420.0	TrialHappiness	Loss
29.0	2	38.231	4.015	595.108	2.56	1.28	22.9876	6.116	70.0	3.16	Outcome1	2.56	13.7	3529.0	Yes		-11.1383219954649				ISIRate	Loss
30.0	2	44.379	0.032	601.256	-2.0	-2.0	22.7376	3.0	70.0	0.66	Certain	-6.04	1.3	0.0	No	4.0	-7.344671201814059	1.422	45.801		GetAnswer	Mixed
30.0	2	45.828	0.027	602.705	-2.0	-2.0	22.7376	4.0	70.0	0.66	Certain	-6.04	1.3	0.0	No		-7.344671201814059				ShowChoice	Mixed
30.0	2	49.844	0.016	606.721	-2.0	-2.0	22.7376	1.0	70.0	0.66	Certain	-6.04	1.3	0.0	No		-7.344671201814059				ShowResult	Mixed
30.0	2	50.86	0.016	607.737	-2.0	-2.0	22.7376	4.453	70.0	0.66	Certain	-6.04	1.3	0.0	No		-7.344671201814059				ISITrial	Mixed
31.0	2	55.342	0.029	612.219	-2.0	-2.0	22.4876	3.0	70.0	1.0	Certain	-6.04	1.7	2503.25	Yes	4.0	-7.7414965986394595	1.696	57.038		GetAnswer	Mixed
31.0	2	57.058	0.019	613.935	-2.0	-2.0	22.4876	4.0	70.0	1.0	Certain	-6.04	1.7	2503.25	Yes		-7.7414965986394595				ShowChoice	Mixed
31.0	2	61.073	0.015	617.95	-2.0	-2.0	22.4876	1.0	70.0	1.0	Certain	-6.04	1.7	2503.25	Yes		-7.7414965986394595				ShowResult	Mixed
31.0	2	62.089	0.016	618.966	-2.0	-2.0	22.4876	4.786	70.0	1.0	Certain	-6.04	1.7	2503.25	Yes		-7.7414965986394595				ISITrial	Mixed
31.0	2	69.42	0.03	626.297	-2.0	-2.0	22.4876	2.023	70.0	1.0	Certain	-6.04	1.7	2503.25	Yes		-7.7414965986394595			560.0	TrialHappiness	Mixed
31.0	2	73.435	4.015	630.312	-2.0	-2.0	22.4876	2.013	70.0	1.0	Certain	-6.04	1.7	2503.25	Yes		-7.7414965986394595				ISIRate	Mixed
32.0	2	75.468	0.02	632.345	3.12	2.0	22.8776	3.0	70.0	1.68	Outcome2	0.95	3.12	0.0	No	2.0	2.17290249433107	1.703	77.171		GetAnswer	Loss
32.0	2	77.184	0.013	634.061	3.12	2.0	22.8776	4.0	70.0	1.68	Outcome2	0.95	3.12	0.0	No		2.17290249433107				ShowChoice	Loss
32.0	2	81.199	0.015	638.076	3.12	2.0	22.8776	1.0	70.0	1.68	Outcome2	0.95	3.12	0.0	No		2.17290249433107				ShowResult	Loss
32.0	2	82.215	0.016	639.092	3.12	2.0	22.8776	2.0	70.0	1.68	Outcome2	0.95	3.12	0.0	No		2.17290249433107				ISITrial	Loss
33.0	2	84.231	0.016	641.108	-3.17	2.0	22.4813	3.0	70.0	3.6	Outcome2	7.9	-3.17	0.0	No	2.0	-11.074829931972802	1.617	85.848		GetAnswer	Gain
33.0	2	85.864	0.016	642.741	-3.17	2.0	22.4813	4.0	70.0	3.6	Outcome2	7.9	-3.17	0.0	No		-11.074829931972802				ShowChoice	Gain
33.0	2	89.879	0.015	646.756	-3.17	2.0	22.4813	1.0	70.0	3.6	Outcome2	7.9	-3.17	0.0	No		-11.074829931972802				ShowResult	Gain
33.0	2	90.896	0.017	647.773	-3.17	2.0	22.4813	5.099	70.0	3.6	Outcome2	7.9	-3.17	0.0	No		-11.074829931972802				ISITrial	Gain
34.0	2	96.01	0.015	652.887	-5.0	-5.0	21.8563	3.0	70.0	0.4	Certain	-10.73	0.9	3231.5	Yes	4.0	-11.6303854875283	1.699	97.709		GetAnswer	Mixed
34.0	2	97.727	0.018	654.604	-5.0	-5.0	21.8563	4.0	70.0	0.4	Certain	-10.73	0.9	3231.5	Yes		-11.6303854875283				ShowChoice	Mixed
34.0	2	101.742	0.015	658.619	-5.0	-5.0	21.8563	1.0	70.0	0.4	Certain	-10.73	0.9	3231.5	Yes		-11.6303854875283				ShowResult	Mixed
34.0	2	102.758	0.016	659.635	-5.0	-5.0	21.8563	4.784	70.0	0.4	Certain	-10.73	0.9	3231.5	Yes		-11.6303854875283				ISITrial	Mixed
34.0	2	110.805	0.017	667.682	-5.0	-5.0	21.8563	1.223	70.0	0.4	Certain	-10.73	0.9	3231.5	Yes		-11.6303854875283			432.0	TrialHappiness	Mixed
34.0	2	114.82	4.015	671.697	-5.0	-5.0	21.8563	4.926	70.0	0.4	Certain	-10.73	0.9	3231.5	Yes		-11.6303854875283				ISIRate	Mixed
35.0	2	119.769	0.023	676.646	2.89	1.44	22.2175	3.0	70.0	2.0	Outcome1	2.89	12.9	0.0	No	2.0	-10.0090702947846	1.285	121.054		GetAnswer	Loss
35.0	2	121.068	0.014	677.945	2.89	1.44	22.2175	4.0	70.0	2.0	Outcome1	2.89	12.9	0.0	No		-10.0090702947846				ShowChoice	Loss
35.0	2	125.083	0.015	681.96	2.89	1.44	22.2175	1.0	70.0	2.0	Outcome1	2.89	12.9	0.0	No		-10.0090702947846				ShowResult	Loss
35.0	2	126.1	0.017	682.977	2.89	1.44	22.2175	2.098	70.0	2.0	Outcome1	2.89	12.9	0.0	No		-10.0090702947846				ISITrial	Loss
36.0	2	128.216	0.018	685.093	1.48	0.74	22.4025	3.0	70.0	3.6	Outcome2	11.9	1.48	3335.75	Yes	2.0	-10.4195011337868	1.183	129.399		GetAnswer	Loss
36.0	2	129.415	0.015	686.292	1.48	0.74	22.4025	4.0	70.0	3.6	Outcome2	11.9	1.48	3335.75	Yes		-10.4195011337868				ShowChoice	Loss
36.0	2	133.43	0.015	690.307	1.48	0.74	22.4025	1.0	70.0	3.6	Outcome2	11.9	1.48	3335.75	Yes		-10.4195011337868				ShowResult	Loss
36.0	2	134.447	0.017	691.324	1.48	0.74	22.4025	5.156	70.0	3.6	Outcome2	11.9	1.48	3335.75	Yes		-10.4195011337868				ISITrial	Loss
36.0	2	142.994	0.03	699.871	1.48	0.74	22.4025	1.956	70.0	3.6	Outcome2	11.9	1.48	3335.75	Yes		-10.4195011337868			556.0	TrialHappiness	Loss
36.0	2	147.009	4.015	703.886	1.48	0.74	22.4025	5.343	70.0	3.6	Outcome2	11.9	1.48	3335.75	Yes		-10.4195011337868				ISIRate	Loss
37.0	2	152.374	0.022	709.251	-3.0	-3.0	22.0275	3.0	70.0	0.82	Certain	-9.44	3.5	0.0	No	4.0	-12.9387755102041	1.691	154.065		GetAnswer	Mixed
37.0	2	154.09	0.025	710.967	-3.0	-3.0	22.0275	4.0	70.0	0.82	Certain	-9.44	3.5	0.0	No		-12.9387755102041				ShowChoice	Mixed
37.0	2	158.105	0.015	714.982	-3.0	-3.0	22.0275	1.0	70.0	0.82	Certain	-9.44	3.5	0.0	No		-12.9387755102041				ShowResult	Mixed
37.0	2	159.121	0.016	715.998	-3.0	-3.0	22.0275	3.598	70.0	0.82	Certain	-9.44	3.5	0.0	No		-12.9387755102041				ISITrial	Mixed
38.0	2	162.737	0.018	719.614	-2.0	-2.0	21.7775	3.0	70.0	1.68	Certain	-8.99	4.5	0.0	No	4.0	-13.4897959183673	1.494	164.231		GetAnswer	Gain
38.0	2	164.253	0.022	721.13	-2.0	-2.0	21.7775	4.0	70.0	1.68	Certain	-8.99	4.5	0.0	No		-13.4897959183673				ShowChoice	Gain
38.0	2	168.268	0.015	725.145	-2.0	-2.0	21.7775	1.0	70.0	1.68	Certain	-8.99	4.5	0.0	No		-13.4897959183673				ShowResult	Gain
38.0	2	169.284	0.016	726.161	-2.0	-2.0	21.7775	4.787	70.0	1.68	Certain	-8.99	4.5	0.0	No		-13.4897959183673				ISITrial	Gain
39.0	2	174.099	0.028	730.976	-6.0	-6.0	21.0275	3.0	70.0	0.52	Certain	-12.94	1.1	2864.25	Yes	4.0	-14.0408163265306	0.205	174.304		GetAnswer	Mixed
39.0	2	174.316	0.012	731.193	-6.0	-6.0	21.0275	4.0	70.0	0.52	Certain	-12.94	1.1	2864.25	Yes		-14.0408163265306				ShowChoice	Mixed
39.0	2	178.331	0.015	735.208	-6.0	-6.0	21.0275	1.0	70.0	0.52	Certain	-12.94	1.1	2864.25	Yes		-14.0408163265306				ShowResult	Mixed
39.0	2	179.347	0.016	736.224	-6.0	-6.0	21.0275	2.348	70.0	0.52	Certain	-12.94	1.1	2864.25	Yes		-14.0408163265306				ISITrial	Mixed
39.0	2	184.596	0.019	741.473	-6.0	-6.0	21.0275	3.222	70.0	0.52	Certain	-12.94	1.1	2864.25	Yes	4{-4}4{-4}	-14.0408163265306	3.222	187.818	464.0	TrialHappiness	Mixed
39.0	2	188.611	4.015	745.488	-6.0	-6.0	21.0275	3.457	70.0	0.52	Certain	-12.94	1.1	2864.25	Yes		-14.0408163265306				ISIRate	Mixed
40.0	2	192.093	0.025	748.97	-5.0	-5.0	20.4025	3.0	70.0	0.82	Certain	-11.53	1.5	0.0	No	4.0	-13.0272108843537	1.001	193.094		GetAnswer	Mixed
40.0	2	193.109	0.015	749.986	-5.0	-5.0	20.4025	4.0	70.0	0.82	Certain	-11.53	1.5	0.0	No		-13.0272108843537				ShowChoice	Mixed
40.0	2	197.124	0.015	754.001	-5.0	-5.0	20.4025	1.0	70.0	0.82	Certain	-11.53	1.5	0.0	No		-13.0272108843537				ShowResult	Mixed
40.0	2	198.141	0.017	755.018	-5.0	-5.0	20.4025	3.158	70.0	0.82	Certain	-11.53	1.5	0.0	No		-13.0272108843537				ISITrial	Mixed
41.0	2	201.323	0.024	758.2	1.08	0.0	20.5375	3.0	70.0	2.0	Outcome1	1.08	-1.09	4000.0	Yes	2.0	2.16515495086924	1.243	202.566		GetAnswer	Mixed
41.0	2	202.589	0.023	759.466	1.08	0.0	20.5375	4.0	70.0	2.0	Outcome1	1.08	-1.09	4000.0	Yes		2.16515495086924				ShowChoice	Mixed
41.0	2	206.604	0.015	763.481	1.08	0.0	20.5375	1.0	70.0	2.0	Outcome1	1.08	-1.09	4000.0	Yes		2.16515495086924				ShowResult	Mixed
41.0	2	207.621	0.017	764.498	1.08	0.0	20.5375	4.506	70.0	2.0	Outcome1	1.08	-1.09	4000.0	Yes		2.16515495086924				ISITrial	Mixed
41.0	2	216.168	0.016	773.045	1.08	0.0	20.5375	1.863	70.0	2.0	Outcome1	1.08	-1.09	4000.0	Yes		2.16515495086924			472.0	TrialHappiness	Mixed
41.0	2	220.183	4.015	777.06	1.08	0.0	20.5375	8.0	70.0	2.0	Outcome1	1.08	-1.09	4000.0	Yes		2.16515495086924				ISIRate	Mixed
42.0	2	228.213	0.03	785.09	-3.36	-1.68	20.1175	3.0	70.0	1.82	Outcome1	-3.36	10.7	0.0	No	2.0	-14.056689342403601	1.565	229.778		GetAnswer	Loss
42.0	2	229.796	0.018	786.673	-3.36	-1.68	20.1175	4.0	70.0	1.82	Outcome1	-3.36	10.7	0.0	No		-14.056689342403601				ShowChoice	Loss
42.0	2	233.811	0.015	790.688	-3.36	-1.68	20.1175	1.0	70.0	1.82	Outcome1	-3.36	10.7	0.0	No		-14.056689342403601				ShowResult	Loss
42.0	2	234.828	0.017	791.705	-3.36	-1.68	20.1175	6.248	70.0	1.82	Outcome1	-3.36	10.7	0.0	No		-14.056689342403601				ISITrial	Loss
43.0	2	241.092	0.016	797.969	2.72	1.0	20.4575	3.0	70.0	2.0	Outcome1	2.72	0.45	2775.75	Yes	2.0	2.27286470143613	1.344	242.436		GetAnswer	Loss
43.0	2	242.458	0.021	799.335	2.72	1.0	20.4575	4.0	70.0	2.0	Outcome1	2.72	0.45	2775.75	Yes		2.27286470143613				ShowChoice	Loss
43.0	2	246.474	0.016	803.351	2.72	1.0	20.4575	1.0	70.0	2.0	Outcome1	2.72	0.45	2775.75	Yes		2.27286470143613				ShowResult	Loss
43.0	2	247.49	0.016	804.367	2.72	1.0	20.4575	4.596	70.0	2.0	Outcome1	2.72	0.45	2775.75	Yes		2.27286470143613				ISITrial	Loss
43.0	2	254.904	0.023	811.781	2.72	1.0	20.4575	2.316	70.0	2.0	Outcome1	2.72	0.45	2775.75	Yes	2{-2}2{-2}2{-2}2{-2}	2.27286470143613	2.316	257.22	588.0	TrialHappiness	Loss
43.0	2	258.919	4.015	815.796	2.72	1.0	20.4575	3.103	70.0	2.0	Outcome1	2.72	0.45	2775.75	Yes		2.27286470143613				ISIRate	Loss
44.0	2	262.051	0.029	818.928	-5.64	-2.82	19.7525	3.0	70.0	2.48	Outcome2	11.3	-5.64	0.0	No	2.0	-16.941043083900198	1.759	263.81		GetAnswer	Loss
44.0	2	263.834	0.024	820.711	-5.64	-2.82	19.7525	4.0	70.0	2.48	Outcome2	11.3	-5.64	0.0	No		-16.941043083900198				ShowChoice	Loss
44.0	2	267.849	0.015	824.726	-5.64	-2.82	19.7525	1.0	70.0	2.48	Outcome2	11.3	-5.64	0.0	No		-16.941043083900198				ShowResult	Loss
44.0	2	268.866	0.017	825.743	-5.64	-2.82	19.7525	2.42	70.0	2.48	Outcome2	11.3	-5.64	0.0	No		-16.941043083900198				ISITrial	Loss
45.0	2	271.315	0.029	828.192	2.92	1.0	20.1175	3.0	70.0	3.16	Outcome1	2.92	0.09	0.0	No	2.0	2.83106575963719	1.444	272.759		GetAnswer	Loss
45.0	2	272.781	0.022	829.658	2.92	1.0	20.1175	4.0	70.0	3.16	Outcome1	2.92	0.09	0.0	No		2.83106575963719				ShowChoice	Loss
45.0	2	276.796	0.015	833.673	2.92	1.0	20.1175	1.0	70.0	3.16	Outcome1	2.92	0.09	0.0	No		2.83106575963719				ShowResult	Loss
45.0	2	277.812	0.016	834.689	2.92	1.0	20.1175	3.144	70.0	3.16	Outcome1	2.92	0.09	0.0	No		2.83106575963719				ISITrial	Loss
46.0	2	280.978	0.022	837.855	-1.0	-1.0	19.9925	3.0	70.0	2.0	Certain	-2.31	0.57	3841.25	Yes	4.0	2.88000755857899	1.858	282.836		GetAnswer	Mixed
46.0	2	282.861	0.025	839.738	-1.0	-1.0	19.9925	4.0	70.0	2.0	Certain	-2.31	0.57	3841.25	Yes		2.88000755857899				ShowChoice	Mixed
46.0	2	286.876	0.015	843.753	-1.0	-1.0	19.9925	1.0	70.0	2.0	Certain	-2.31	0.57	3841.25	Yes		2.88000755857899				ShowResult	Mixed
46.0	2	287.892	0.016	844.769	-1.0	-1.0	19.9925	2.246	70.0	2.0	Certain	-2.31	0.57	3841.25	Yes		2.88000755857899				ISITrial	Mixed
46.0	2	294.023	0.024	850.9	-1.0	-1.0	19.9925	2.806	70.0	2.0	Certain	-2.31	0.57	3841.25	Yes		2.88000755857899			448.0	TrialHappiness	Mixed
46.0	2	298.039	4.016	854.916	-1.0	-1.0	19.9925	7.365	70.0	2.0	Certain	-2.31	0.57	3841.25	Yes		2.88000755857899				ISIRate	Mixed
47.0	2	305.419	0.015	862.296	-7.0	-7.0	19.1175	3.0	70.0	0.3	Certain	0.7	-15.62	0.0	No	4.0	-16.3219954648526	1.565	306.984		GetAnswer	Mixed
47.0	2	307.002	0.018	863.879	-7.0	-7.0	19.1175	4.0	70.0	0.3	Certain	0.7	-15.62	0.0	No		-16.3219954648526				ShowChoice	Mixed
47.0	2	311.017	0.015	867.894	-7.0	-7.0	19.1175	1.0	70.0	0.3	Certain	0.7	-15.62	0.0	No		-16.3219954648526				ShowResult	Mixed
47.0	2	312.034	0.017	868.911	-7.0	-7.0	19.1175	2.0	70.0	0.3	Certain	0.7	-15.62	0.0	No		-16.3219954648526				ISITrial	Mixed
48.0	2	314.05	0.016	870.927	-5.0	-5.0	18.4925	3.0	70.0	0.4	Certain	-13.85	2.9	2831.75	Yes	4.0	-16.750566893424	2.137	316.187		GetAnswer	Mixed
48.0	2	316.199	0.012	873.076	-5.0	-5.0	18.4925	4.0	70.0	0.4	Certain	-13.85	2.9	2831.75	Yes		-16.750566893424				ShowChoice	Mixed
48.0	2	320.214	0.015	877.091	-5.0	-5.0	18.4925	1.0	70.0	0.4	Certain	-13.85	2.9	2831.75	Yes		-16.750566893424				ShowResult	Mixed
48.0	2	321.23	0.016	878.107	-5.0	-5.0	18.4925	3.692	70.0	0.4	Certain	-13.85	2.9	2831.75	Yes		-16.750566893424				ISITrial	Mixed
48.0	2	327.795	0.017	884.672	-5.0	-5.0	18.4925	2.223	70.0	0.4	Certain	-13.85	2.9	2831.75	Yes		-16.750566893424			396.0	TrialHappiness	Mixed
48.0	2	331.81	4.015	888.687	-5.0	-5.0	18.4925	3.327	70.0	0.4	Certain	-13.85	2.9	2831.75	Yes		-16.750566893424				ISIRate	Mixed
49.0	2	335.159	0.022	892.036	2.78	1.0	18.84	3.0	70.0	2.22	Outcome2	0.56	2.78	0.0	No	2.0	2.22033257747543	1.477	336.636		GetAnswer	Loss
49.0	2	336.658	0.022	893.535	2.78	1.0	18.84	4.0	70.0	2.22	Outcome2	0.56	2.78	0.0	No		2.22033257747543				ShowChoice	Loss
49.0	2	340.673	0.015	897.55	2.78	1.0	18.84	1.0	70.0	2.22	Outcome2	0.56	2.78	0.0	No		2.22033257747543				ShowResult	Loss
49.0	2	341.69	0.017	898.567	2.78	1.0	18.84	8.0	70.0	2.22	Outcome2	0.56	2.78	0.0	No		2.22033257747543				ISITrial	Loss
50.0	2	349.72	0.03	906.597	-4.0	-4.0	18.34	3.0	70.0	1.0	Certain	-12.96	3.7	3547.25	Yes	4.0	-16.6643990929705	1.182	350.902		GetAnswer	Mixed
50.0	2	350.92	0.018	907.797	-4.0	-4.0	18.34	4.0	70.0	1.0	Certain	-12.96	3.7	3547.25	Yes		-16.6643990929705				ShowChoice	Mixed
50.0	2	354.935	0.015	911.812	-4.0	-4.0	18.34	1.0	70.0	1.0	Certain	-12.96	3.7	3547.25	Yes		-16.6643990929705				ShowResult	Mixed
50.0	2	355.951	0.016	912.828	-4.0	-4.0	18.34	7.537	70.0	1.0	Certain	-12.96	3.7	3547.25	Yes		-16.6643990929705				ISITrial	Mixed
50.0	2	367.064	0.018	923.941	-4.0	-4.0	18.34	2.006	70.0	1.0	Certain	-12.96	3.7	3547.25	Yes		-16.6643990929705			544.0	TrialHappiness	Mixed
50.0	2	371.079	4.015	927.956	-4.0	-4.0	18.34	6.189	70.0	1.0	Certain	-12.96	3.7	3547.25	Yes		-16.6643990929705				ISIRate	Mixed
51.0	2	377.294	0.026	934.171	-3.0	-3.0	17.965	3.0	70.0	5.0	Certain	6.3	-13.25	0.0	No	4.0	-19.551020408163303	1.391	378.685		GetAnswer	Gain
51.0	2	378.71	0.025	935.587	-3.0	-3.0	17.965	4.0	70.0	5.0	Certain	6.3	-13.25	0.0	No		-19.551020408163303				ShowChoice	Gain
51.0	2	382.725	0.015	939.602	-3.0	-3.0	17.965	1.0	70.0	5.0	Certain	6.3	-13.25	0.0	No		-19.551020408163303				ShowResult	Gain
51.0	2	383.741	0.016	940.618	-3.0	-3.0	17.965	5.508	70.0	5.0	Certain	6.3	-13.25	0.0	No		-19.551020408163303				ISITrial	Gain
52.0	2	389.273	0.024	946.15	-9.0	-9.0	16.84	3.0	70.0	0.2	Certain	0.5	-19.59	0.0	No	4.0	-20.0884353741497	1.344	390.617		GetAnswer	Mixed
52.0	2	390.639	0.022	947.516	-9.0	-9.0	16.84	4.0	70.0	0.2	Certain	0.5	-19.59	0.0	No		-20.0884353741497				ShowChoice	Mixed
52.0	2	394.654	0.015	951.531	-9.0	-9.0	16.84	1.0	70.0	0.2	Certain	0.5	-19.59	0.0	No		-20.0884353741497				ShowResult	Mixed
52.0	2	395.671	0.017	952.548	-9.0	-9.0	16.84	5.913	70.0	0.2	Certain	0.5	-19.59	0.0	No		-20.0884353741497				ISITrial	Mixed
53.0	2	401.602	0.018	958.479	-7.0	-7.0	15.965	3.0	70.0	0.52	Certain	-17.53	3.1	2996.75	Yes	4.0	-20.6258503401361	1.541	403.143		GetAnswer	Mixed
53.0	2	403.168	0.025	960.045	-7.0	-7.0	15.965	4.0	70.0	0.52	Certain	-17.53	3.1	2996.75	Yes		-20.6258503401361				ShowChoice	Mixed
53.0	2	407.183	0.015	964.06	-7.0	-7.0	15.965	1.0	70.0	0.52	Certain	-17.53	3.1	2996.75	Yes		-20.6258503401361				ShowResult	Mixed
53.0	2	408.199	0.016	965.076	-7.0	-7.0	15.965	3.66	70.0	0.52	Certain	-17.53	3.1	2996.75	Yes		-20.6258503401361				ISITrial	Mixed
53.0	2	414.897	0.019	971.774	-7.0	-7.0	15.965	2.499	70.0	0.52	Certain	-17.53	3.1	2996.75	Yes		-20.6258503401361			404.0	TrialHappiness	Mixed
53.0	2	418.912	4.015	975.789	-7.0	-7.0	15.965	3.987	70.0	0.52	Certain	-17.53	3.1	2996.75	Yes		-20.6258503401361				ISIRate	Mixed
54.0	2	422.928	0.029	979.805	2.08	1.0	16.225	3.0	70.0	5.0	Outcome2	-0.37	2.08	0.0	No	2.0	2.44879062736206	1.756	424.684		GetAnswer	Gain
54.0	2	424.71	0.026	981.587	2.08	1.0	16.225	4.0	70.0	5.0	Outcome2	-0.37	2.08	0.0	No		2.44879062736206				ShowChoice	Gain
54.0	2	428.725	0.015	985.602	2.08	1.0	16.225	1.0	70.0	5.0	Outcome2	-0.37	2.08	0.0	No		2.44879062736206				ShowResult	Gain
54.0	2	429.742	0.017	986.619	2.08	1.0	16.225	8.0	70.0	5.0	Outcome2	-0.37	2.08	0.0	No		2.44879062736206				ISITrial	Gain
	2	437.772	0.03	994.649				-0.001								{SPACE}		56.355	494.127		Rest	
	2	494.152	0.025	1051.029				4.0													BlockHappyPreview	
	2	498.167	0.015	1055.044				2.323								2{-2}2{-2}2{-2}2{-2}2{-2}2{-2}		2.323	500.49	624.0	BlockStartHappiness	
	2	503.999	0.016	1060.876				-0.001								5.0		2.311	506.31		ScanWait	
	3	0.021	0.021	1063.208				10.0													GetReady	
55.0	3	10.034	0.013	1073.221	-3.0	-3.0	15.85	3.0	955.0	1.2	Certain	-5.72	-0.1	2533.25	Yes	4.0	5.62287655719139	1.471	11.505		GetAnswer	Mixed
55.0	3	11.517	0.012	1074.704	-3.0	-3.0	15.85	4.0	955.0	1.2	Certain	-5.72	-0.1	2533.25	Yes		5.62287655719139				ShowChoice	Mixed
55.0	3	15.532	0.015	1078.719	-3.0	-3.0	15.85	1.0	955.0	1.2	Certain	-5.72	-0.1	2533.25	Yes		5.62287655719139				ShowResult	Mixed
55.0	3	16.549	0.017	1079.736	-3.0	-3.0	15.85	7.709	955.0	1.2	Certain	-5.72	-0.1	2533.25	Yes		5.62287655719139				ISITrial	Mixed
55.0	3	26.828	0.016	1090.015	-3.0	-3.0	15.85	1.226	955.0	1.2	Certain	-5.72	-0.1	2533.25	Yes		5.62287655719139			472.0	TrialHappiness	Mixed
55.0	3	30.844	4.016	1094.031	-3.0	-3.0	15.85	2.133	955.0	1.2	Certain	-5.72	-0.1	2533.25	Yes		5.62287655719139				ISIRate	Mixed
56.0	3	32.993	0.016	1096.18	13.1	2.26	17.4875	3.0	955.0	2.22	Outcome1	13.1	4.52	0.0	No	2.0	8.57984144960362	1.01	34.003		GetAnswer	Loss
56.0	3	34.026	0.023	1097.213	13.1	2.26	17.4875	4.0	955.0	2.22	Outcome1	13.1	4.52	0.0	No		8.57984144960362				ShowChoice	Loss
56.0	3	38.041	0.015	1101.228	13.1	2.26	17.4875	1.0	955.0	2.22	Outcome1	13.1	4.52	0.0	No		8.57984144960362				ShowResult	Loss
56.0	3	39.057	0.016	1102.244	13.1	2.26	17.4875	4.697	955.0	2.22	Outcome1	13.1	4.52	0.0	No		8.57984144960362				ISITrial	Loss
57.0	3	43.772	0.018	1106.959	0.0	0.0	17.4875	3.0	955.0	1.5	Certain	4.1	-5.03	0.0	No	4.0	9.12684031710079	1.355	45.127		GetAnswer	Mixed
57.0	3	45.138	0.011	1108.325	0.0	0.0	17.4875	4.0	955.0	1.5	Certain	4.1	-5.03	0.0	No		9.12684031710079				ShowChoice	Mixed
57.0	3	49.154	0.016	1112.341	0.0	0.0	17.4875	1.0	955.0	1.5	Certain	4.1	-5.03	0.0	No		9.12684031710079				ShowResult	Mixed
57.0	3	50.17	0.016	1113.357	0.0	0.0	17.4875	4.291	955.0	1.5	Certain	4.1	-5.03	0.0	No		9.12684031710079				ISITrial	Mixed
58.0	3	54.485	0.024	1117.672	-2.0	-2.0	17.2375	3.0	955.0	0.3	Certain	-6.97	2.7	3045.75	Yes	4.0	9.673839184597961	1.334	55.819		GetAnswer	Mixed
58.0	3	55.835	0.016	1119.022	-2.0	-2.0	17.2375	4.0	955.0	0.3	Certain	-6.97	2.7	3045.75	Yes		9.673839184597961				ShowChoice	Mixed
58.0	3	59.85	0.015	1123.037	-2.0	-2.0	17.2375	1.0	955.0	0.3	Certain	-6.97	2.7	3045.75	Yes		9.673839184597961				ShowResult	Mixed
58.0	3	60.866	0.016	1124.053	-2.0	-2.0	17.2375	2.037	955.0	0.3	Certain	-6.97	2.7	3045.75	Yes		9.673839184597961				ISITrial	Mixed
58.0	3	65.981	0.02	1129.168	-2.0	-2.0	17.2375	2.569	955.0	0.3	Certain	-6.97	2.7	3045.75	Yes		9.673839184597961			452.0	TrialHappiness	Mixed
58.0	3	69.996	4.015	1133.183	-2.0	-2.0	17.2375	4.183	955.0	0.3	Certain	-6.97	2.7	3045.75	Yes		9.673839184597961				ISIRate	Mixed
59.0	3	74.195	0.016	1137.382	7.3	2.0	18.15	3.0	955.0	2.48	Outcome2	-3.26	7.3	0.0	No	2.0	10.5605889014723	1.694	75.889		GetAnswer	Gain
59.0	3	75.911	0.022	1139.098	7.3	2.0	18.15	4.0	955.0	2.48	Outcome2	-3.26	7.3	0.0	No		10.5605889014723				ShowChoice	Gain
59.0	3	79.926	0.015	1143.113	7.3	2.0	18.15	1.0	955.0	2.48	Outcome2	-3.26	7.3	0.0	No		10.5605889014723				ShowResult	Gain
59.0	3	80.942	0.016	1144.129	7.3	2.0	18.15	5.064	955.0	2.48	Outcome2	-3.26	7.3	0.0	No		10.5605889014723				ISITrial	Gain
60.0	3	86.024	0.018	1149.211	8.9	-1.12	19.2625	3.0	955.0	2.0	Outcome2	-2.23	8.9	3562.5	Yes	2.0	11.1302378255946	1.464	87.488		GetAnswer	Gain
60.0	3	87.507	0.019	1150.694	8.9	-1.12	19.2625	4.0	955.0	2.0	Outcome2	-2.23	8.9	3562.5	Yes		11.1302378255946				ShowChoice	Gain
60.0	3	91.522	0.015	1154.709	8.9	-1.12	19.2625	1.0	955.0	2.0	Outcome2	-2.23	8.9	3562.5	Yes		11.1302378255946				ShowResult	Gain
60.0	3	92.538	0.016	1155.725	8.9	-1.12	19.2625	8.0	955.0	2.0	Outcome2	-2.23	8.9	3562.5	Yes		11.1302378255946				ISITrial	Gain
60.0	3	104.134	0.02	1167.321	8.9	-1.12	19.2625	2.432	955.0	2.0	Outcome2	-2.23	8.9	3562.5	Yes		11.1302378255946			640.0	TrialHappiness	Gain
60.0	3	108.149	4.015	1171.336	8.9	-1.12	19.2625	6.25	955.0	2.0	Outcome2	-2.23	8.9	3562.5	Yes		11.1302378255946				ISIRate	Gain
61.0	3	114.43	0.031	1177.617	8.1	-0.2	20.275	3.0	955.0	4.2	Outcome2	-0.41	8.1	0.0	No	2.0	8.50622876557191	1.657	116.087		GetAnswer	Gain
61.0	3	116.113	0.026	1179.3	8.1	-0.2	20.275	4.0	955.0	4.2	Outcome2	-0.41	8.1	0.0	No		8.50622876557191				ShowChoice	Gain
61.0	3	120.128	0.015	1183.315	8.1	-0.2	20.275	1.0	955.0	4.2	Outcome2	-0.41	8.1	0.0	No		8.50622876557191				ShowResult	Gain
61.0	3	121.145	0.017	1184.332	8.1	-0.2	20.275	4.586	955.0	4.2	Outcome2	-0.41	8.1	0.0	No		8.50622876557191				ISITrial	Gain
62.0	3	125.76	0.029	1188.947	9.3	0.22	21.4375	3.0	955.0	2.48	Outcome1	9.3	0.44	3748.75	Yes	2.0	8.862967157417891	1.354	127.114		GetAnswer	Gain
62.0	3	127.126	0.012	1190.313	9.3	0.22	21.4375	4.0	955.0	2.48	Outcome1	9.3	0.44	3748.75	Yes		8.862967157417891				ShowChoice	Gain
62.0	3	131.141	0.015	1194.328	9.3	0.22	21.4375	1.0	955.0	2.48	Outcome1	9.3	0.44	3748.75	Yes		8.862967157417891				ShowResult	Gain
62.0	3	132.158	0.017	1195.345	9.3	0.22	21.4375	5.212	955.0	2.48	Outcome1	9.3	0.44	3748.75	Yes		8.862967157417891				ISITrial	Gain
62.0	3	141.154	0.016	1204.341	9.3	0.22	21.4375	3.406	955.0	2.48	Outcome1	9.3	0.44	3748.75	Yes		8.862967157417891			720.0	TrialHappiness	Gain
62.0	3	145.17	4.016	1208.357	9.3	0.22	21.4375	6.995	955.0	2.48	Outcome1	9.3	0.44	3748.75	Yes		8.862967157417891				ISIRate	Gain
63.0	3	152.184	0.019	1215.371	5.7	2.0	22.15	3.0	955.0	3.16	Outcome1	5.7	-2.16	0.0	No	2.0	7.86070215175538	1.439	153.623		GetAnswer	Gain
63.0	3	153.65	0.027	1216.837	5.7	2.0	22.15	4.0	955.0	3.16	Outcome1	5.7	-2.16	0.0	No		7.86070215175538				ShowChoice	Gain
63.0	3	157.665	0.015	1220.852	5.7	2.0	22.15	1.0	955.0	3.16	Outcome1	5.7	-2.16	0.0	No		7.86070215175538				ShowResult	Gain
63.0	3	158.681	0.016	1221.868	5.7	2.0	22.15	5.595	955.0	3.16	Outcome1	5.7	-2.16	0.0	No		7.86070215175538				ISITrial	Gain
64.0	3	164.296	0.02	1227.483	-5.0	-5.0	21.525	3.0	955.0	0.3	Certain	-9.43	-1.3	0.0	No	4.0	8.12684031710079	1.701	165.997		GetAnswer	Mixed
64.0	3	166.012	0.015	1229.199	-5.0	-5.0	21.525	4.0	955.0	0.3	Certain	-9.43	-1.3	0.0	No		8.12684031710079				ShowChoice	Mixed
64.0	3	170.027	0.015	1233.214	-5.0	-5.0	21.525	1.0	955.0	0.3	Certain	-9.43	-1.3	0.0	No		8.12684031710079				ShowResult	Mixed
64.0	3	171.044	0.017	1234.231	-5.0	-5.0	21.525	5.47	955.0	0.3	Certain	-9.43	-1.3	0.0	No		8.12684031710079				ISITrial	Mixed
65.0	3	176.542	0.028	1239.729	-2.0	-2.0	21.275	3.0	955.0	1.5	Certain	-6.29	2.1	2996.75	Yes	4.0	8.39297848244621	1.664	178.206		GetAnswer	Mixed
65.0	3	178.224	0.018	1241.411	-2.0	-2.0	21.275	4.0	955.0	1.5	Certain	-6.29	2.1	2996.75	Yes		8.39297848244621				ShowChoice	Mixed
65.0	3	182.24	0.016	1245.427	-2.0	-2.0	21.275	1.0	955.0	1.5	Certain	-6.29	2.1	2996.75	Yes		8.39297848244621				ShowResult	Mixed
65.0	3	183.256	0.016	1246.443	-2.0	-2.0	21.275	3.344	955.0	1.5	Certain	-6.29	2.1	2996.75	Yes		8.39297848244621				ISITrial	Mixed
65.0	3	189.637	0.019	1252.824	-2.0	-2.0	21.275	1.14	955.0	1.5	Certain	-6.29	2.1	2996.75	Yes		8.39297848244621			448.0	TrialHappiness	Mixed
65.0	3	193.652	4.015	1256.839	-2.0	-2.0	21.275	3.987	955.0	1.5	Certain	-6.29	2.1	2996.75	Yes		8.39297848244621				ISIRate	Mixed
66.0	3	197.668	0.029	1260.855	0.0	0.0	21.275	3.0	955.0	2.22	Certain	7.1	-6.18	0.0	No	4.0	13.2797281993205	1.797	199.465		GetAnswer	Gain
66.0	3	199.484	0.019	1262.671	0.0	0.0	21.275	4.0	955.0	2.22	Certain	7.1	-6.18	0.0	No		13.2797281993205				ShowChoice	Gain
66.0	3	203.499	0.015	1266.686	0.0	0.0	21.275	1.0	955.0	2.22	Certain	7.1	-6.18	0.0	No		13.2797281993205				ShowResult	Gain
66.0	3	204.515	0.016	1267.702	0.0	0.0	21.275	3.959	955.0	2.22	Certain	7.1	-6.18	0.0	No		13.2797281993205				ISITrial	Gain
67.0	3	208.497	0.023	1271.684	13.3	-0.28	22.9375	3.0	955.0	2.48	Outcome1	13.3	-0.55	2918.5	Yes	2.0	13.853907134767802	1.284	209.781		GetAnswer	Loss
67.0	3	209.797	0.016	1272.984	13.3	-0.28	22.9375	4.0	955.0	2.48	Outcome1	13.3	-0.55	2918.5	Yes		13.853907134767802				ShowChoice	Loss
67.0	3	213.812	0.015	1276.999	13.3	-0.28	22.9375	1.0	955.0	2.48	Outcome1	13.3	-0.55	2918.5	Yes		13.853907134767802				ShowResult	Loss
67.0	3	214.828	0.016	1278.015	13.3	-0.28	22.9375	4.199	955.0	2.48	Outcome1	13.3	-0.55	2918.5	Yes		13.853907134767802				ISITrial	Loss
67.0	3	221.976	0.015	1285.163	13.3	-0.28	22.9375	3.983	955.0	2.48	Outcome1	13.3	-0.55	2918.5	Yes		13.853907134767802			604.0	TrialHappiness	Loss
67.0	3	225.991	4.015	1289.178	13.3	-0.28	22.9375	3.674	955.0	2.48	Outcome1	13.3	-0.55	2918.5	Yes		13.853907134767802				ISIRate	Loss
68.0	3	229.689	0.024	1292.876	3.39	1.7	23.3613	3.0	955.0	2.48	Outcome1	3.39	5.3	0.0	No	2.0	-1.90902227255568	1.632	231.321		GetAnswer	Gain
68.0	3	231.339	0.018	1294.526	3.39	1.7	23.3613	4.0	955.0	2.48	Outcome1	3.39	5.3	0.0	No		-1.90902227255568				ShowChoice	Gain
68.0	3	235.354	0.015	1298.541	3.39	1.7	23.3613	1.0	955.0	2.48	Outcome1	3.39	5.3	0.0	No		-1.90902227255568				ShowResult	Gain
68.0	3	236.37	0.016	1299.557	3.39	1.7	23.3613	2.185	955.0	2.48	Outcome1	3.39	5.3	0.0	No		-1.90902227255568				ISITrial	Gain
69.0	3	238.586	0.031	1301.773	9.9	-1.14	24.5988	3.0	955.0	3.6	Outcome2	-2.28	9.9	0.0	No	2.0	12.1755379388448	1.932	240.518		GetAnswer	Gain
69.0	3	240.536	0.018	1303.723	9.9	-1.14	24.5988	4.0	955.0	3.6	Outcome2	-2.28	9.9	0.0	No		12.1755379388448				ShowChoice	Gain
69.0	3	244.551	0.015	1307.738	9.9	-1.14	24.5988	1.0	955.0	3.6	Outcome2	-2.28	9.9	0.0	No		12.1755379388448				ShowResult	Gain
69.0	3	245.567	0.016	1308.754	9.9	-1.14	24.5988	2.0	955.0	3.6	Outcome2	-2.28	9.9	0.0	No		12.1755379388448				ISITrial	Gain
70.0	3	247.583	0.016	1310.77	0.0	0.0	24.5988	3.0	955.0	1.68	Certain	6.5	-6.07	3651.25	Yes	4.0	12.5730464326161	1.912	249.495		GetAnswer	Gain
70.0	3	249.516	0.021	1312.703	0.0	0.0	24.5988	4.0	955.0	1.68	Certain	6.5	-6.07	3651.25	Yes		12.5730464326161				ShowChoice	Gain
70.0	3	253.531	0.015	1316.718	0.0	0.0	24.5988	1.0	955.0	1.68	Certain	6.5	-6.07	3651.25	Yes		12.5730464326161				ShowResult	Gain
70.0	3	254.547	0.016	1317.734	0.0	0.0	24.5988	2.623	955.0	1.68	Certain	6.5	-6.07	3651.25	Yes		12.5730464326161				ISITrial	Gain
70.0	3	260.878	0.031	1324.065	0.0	0.0	24.5988	2.307	955.0	1.68	Certain	6.5	-6.07	3651.25	Yes		12.5730464326161			568.0	TrialHappiness	Gain
70.0	3	264.894	4.016	1328.081	0.0	0.0	24.5988	6.605	955.0	1.68	Certain	6.5	-6.07	3651.25	Yes		12.5730464326161				ISIRate	Gain
71.0	3	271.525	0.026	1334.712	10.5	-1.54	25.9113	3.0	955.0	1.68	Outcome1	10.5	-3.08	0.0	No	2.0	13.582106455266098	1.136	272.661		GetAnswer	Loss
71.0	3	272.674	0.013	1335.861	10.5	-1.54	25.9113	4.0	955.0	1.68	Outcome1	10.5	-3.08	0.0	No		13.582106455266098				ShowChoice	Loss
71.0	3	276.689	0.015	1339.876	10.5	-1.54	25.9113	1.0	955.0	1.68	Outcome1	10.5	-3.08	0.0	No		13.582106455266098				ShowResult	Loss
71.0	3	277.706	0.017	1340.893	10.5	-1.54	25.9113	5.499	955.0	1.68	Outcome1	10.5	-3.08	0.0	No		13.582106455266098				ISITrial	Loss
72.0	3	283.22	0.015	1346.407	11.5	-1.26	27.3488	3.0	955.0	2.8	Outcome2	-2.52	11.5	3080.5	Yes	2.0	14.0203850509626	1.54	284.76		GetAnswer	Loss
72.0	3	284.787	0.027	1347.974	11.5	-1.26	27.3488	4.0	955.0	2.8	Outcome2	-2.52	11.5	3080.5	Yes		14.0203850509626				ShowChoice	Loss
72.0	3	288.802	0.015	1351.989	11.5	-1.26	27.3488	1.0	955.0	2.8	Outcome2	-2.52	11.5	3080.5	Yes		14.0203850509626				ShowResult	Loss
72.0	3	289.818	0.016	1353.005	11.5	-1.26	27.3488	5.672	955.0	2.8	Outcome2	-2.52	11.5	3080.5	Yes		14.0203850509626				ISITrial	Loss
72.0	3	298.615	0.019	1361.802	11.5	-1.26	27.3488	2.989	955.0	2.8	Outcome2	-2.52	11.5	3080.5	Yes	2{-2}	14.0203850509626	2.989	301.604	544.0	TrialHappiness	Loss
72.0	3	302.63	4.015	1365.817	11.5	-1.26	27.3488	4.322	955.0	2.8	Outcome2	-2.52	11.5	3080.5	Yes		14.0203850509626				ISIRate	Loss
73.0	3	306.979	0.027	1370.166	4.38	2.19	27.8963	3.0	955.0	1.82	Outcome1	4.38	6.7	0.0	No	2.0	-2.3249339373348397	1.063	308.042		GetAnswer	Gain
73.0	3	308.062	0.02	1371.249	4.38	2.19	27.8963	4.0	955.0	1.82	Outcome1	4.38	6.7	0.0	No		-2.3249339373348397				ShowChoice	Gain
73.0	3	312.077	0.015	1375.264	4.38	2.19	27.8963	1.0	955.0	1.82	Outcome1	4.38	6.7	0.0	No		-2.3249339373348397				ShowResult	Gain
73.0	3	313.093	0.016	1376.28	4.38	2.19	27.8963	4.616	955.0	1.82	Outcome1	4.38	6.7	0.0	No		-2.3249339373348397				ISITrial	Gain
74.0	3	317.725	0.016	1380.912	-7.0	-7.0	27.0213	3.0	955.0	2.0	Certain	0.3	-15.03	3056.25	Yes	4.0	15.3318233295583	1.104	318.829		GetAnswer	Mixed
74.0	3	318.841	0.012	1382.028	-7.0	-7.0	27.0213	4.0	955.0	2.0	Certain	0.3	-15.03	3056.25	Yes		15.3318233295583				ShowChoice	Mixed
74.0	3	322.856	0.015	1386.043	-7.0	-7.0	27.0213	1.0	955.0	2.0	Certain	0.3	-15.03	3056.25	Yes		15.3318233295583				ShowResult	Mixed
74.0	3	323.873	0.017	1387.06	-7.0	-7.0	27.0213	3.909	955.0	2.0	Certain	0.3	-15.03	3056.25	Yes		15.3318233295583				ISITrial	Mixed
74.0	3	330.887	0.026	1394.074	-7.0	-7.0	27.0213	0.69	955.0	2.0	Certain	0.3	-15.03	3056.25	Yes		15.3318233295583			456.0	TrialHappiness	Mixed
74.0	3	334.902	4.015	1398.089	-7.0	-7.0	27.0213	4.225	955.0	2.0	Certain	0.3	-15.03	3056.25	Yes		15.3318233295583				ISIRate	Mixed
75.0	3	339.151	0.024	1402.338	5.74	2.87	27.7388	3.0	955.0	1.68	Outcome1	5.74	8.5	0.0	No	2.0	-2.75962627406569	1.181	340.332		GetAnswer	Gain
75.0	3	340.35	0.018	1403.537	5.74	2.87	27.7388	4.0	955.0	1.68	Outcome1	5.74	8.5	0.0	No		-2.75962627406569				ShowChoice	Gain
75.0	3	344.365	0.015	1407.552	5.74	2.87	27.7388	1.0	955.0	1.68	Outcome1	5.74	8.5	0.0	No		-2.75962627406569				ShowResult	Gain
75.0	3	345.382	0.017	1408.569	5.74	2.87	27.7388	4.979	955.0	1.68	Outcome1	5.74	8.5	0.0	No		-2.75962627406569				ISITrial	Gain
76.0	3	350.38	0.019	1413.567	0.0	0.0	27.7388	3.0	955.0	1.82	Certain	8.7	-9.16	0.0	No	4.0	17.857304643261603	1.164	351.544		GetAnswer	Gain
76.0	3	351.563	0.019	1414.75	0.0	0.0	27.7388	4.0	955.0	1.82	Certain	8.7	-9.16	0.0	No		17.857304643261603				ShowChoice	Gain
76.0	3	355.578	0.015	1418.765	0.0	0.0	27.7388	1.0	955.0	1.82	Certain	8.7	-9.16	0.0	No		17.857304643261603				ShowResult	Gain
76.0	3	356.594	0.016	1419.781	0.0	0.0	27.7388	3.931	955.0	1.82	Certain	8.7	-9.16	0.0	No		17.857304643261603				ISITrial	Gain
77.0	3	360.543	0.018	1423.73	-9.0	-9.0	26.6138	3.0	955.0	1.5	Certain	0.1	-18.32	4000.0	Yes	4.0	18.4224235560589	2.362	362.905		GetAnswer	Mixed
77.0	3	362.925	0.02	1426.112	-9.0	-9.0	26.6138	4.0	955.0	1.5	Certain	0.1	-18.32	4000.0	Yes		18.4224235560589				ShowChoice	Mixed
77.0	3	366.941	0.016	1430.128	-9.0	-9.0	26.6138	1.0	955.0	1.5	Certain	0.1	-18.32	4000.0	Yes		18.4224235560589				ShowResult	Mixed
77.0	3	367.957	0.016	1431.144	-9.0	-9.0	26.6138	7.022	955.0	1.5	Certain	0.1	-18.32	4000.0	Yes		18.4224235560589				ISITrial	Mixed
77.0	3	379.02	0.016	1442.207	-9.0	-9.0	26.6138	1.857	955.0	1.5	Certain	0.1	-18.32	4000.0	Yes		18.4224235560589			424.0	TrialHappiness	Mixed
77.0	3	383.035	4.015	1446.222	-9.0	-9.0	26.6138	8.0	955.0	1.5	Certain	0.1	-18.32	4000.0	Yes		18.4224235560589				ISIRate	Mixed
78.0	3	391.065	0.03	1454.252	12.1	2.0	28.1263	3.0	955.0	4.2	Outcome2	-7.43	12.1	0.0	No	2.0	19.5311438278596	1.31	392.375		GetAnswer	Loss
78.0	3	392.398	0.023	1455.585	12.1	2.0	28.1263	4.0	955.0	4.2	Outcome2	-7.43	12.1	0.0	No		19.5311438278596				ShowChoice	Loss
78.0	3	396.414	0.016	1459.601	12.1	2.0	28.1263	1.0	955.0	4.2	Outcome2	-7.43	12.1	0.0	No		19.5311438278596				ShowResult	Loss
78.0	3	397.43	0.016	1460.617	12.1	2.0	28.1263	2.078	955.0	4.2	Outcome2	-7.43	12.1	0.0	No		19.5311438278596				ISITrial	Loss
79.0	3	399.529	0.021	1462.716	-6.0	-6.0	27.3763	3.0	955.0	1.2	Certain	-16.23	3.9	2729.5	Yes	4.0	20.132502831257103	1.294	400.823		GetAnswer	Mixed
79.0	3	400.845	0.022	1464.032	-6.0	-6.0	27.3763	4.0	955.0	1.2	Certain	-16.23	3.9	2729.5	Yes		20.132502831257103				ShowChoice	Mixed
79.0	3	404.861	0.016	1468.048	-6.0	-6.0	27.3763	1.0	955.0	1.2	Certain	-16.23	3.9	2729.5	Yes		20.132502831257103				ShowResult	Mixed
79.0	3	405.877	0.016	1469.064	-6.0	-6.0	27.3763	3.829	955.0	1.2	Certain	-16.23	3.9	2729.5	Yes		20.132502831257103				ISITrial	Mixed
79.0	3	412.474	0.019	1475.661	-6.0	-6.0	27.3763	1.627	955.0	1.2	Certain	-16.23	3.9	2729.5	Yes		20.132502831257103			568.0	TrialHappiness	Mixed
79.0	3	416.49	4.016	1479.677	-6.0	-6.0	27.3763	2.918	955.0	1.2	Certain	-16.23	3.9	2729.5	Yes		20.132502831257103				ISIRate	Mixed
80.0	3	419.439	0.031	1482.626	-1.0	-1.0	27.2513	3.0	955.0	2.0	Certain	-2.25	0.3	0.0	No	4.0	-2.5466213665534196	1.659	421.098		GetAnswer	Mixed
80.0	3	421.121	0.023	1484.308	-1.0	-1.0	27.2513	4.0	955.0	2.0	Certain	-2.25	0.3	0.0	No		-2.5466213665534196				ShowChoice	Mixed
80.0	3	425.137	0.016	1488.324	-1.0	-1.0	27.2513	1.0	955.0	2.0	Certain	-2.25	0.3	0.0	No		-2.5466213665534196				ShowResult	Mixed
80.0	3	426.153	0.016	1489.34	-1.0	-1.0	27.2513	3.336	955.0	2.0	Certain	-2.25	0.3	0.0	No		-2.5466213665534196				ISITrial	Mixed
81.0	3	429.518	0.029	1492.705	13.5	-2.62	28.9388	3.0	955.0	2.8	Outcome2	-5.23	13.5	3923.75	Yes	2.0	18.7259343148358	1.722	431.24		GetAnswer	Loss
81.0	3	431.251	0.011	1494.438	13.5	-2.62	28.9388	4.0	955.0	2.8	Outcome2	-5.23	13.5	3923.75	Yes		18.7259343148358				ShowChoice	Loss
81.0	3	435.266	0.015	1498.453	13.5	-2.62	28.9388	1.0	955.0	2.8	Outcome2	-5.23	13.5	3923.75	Yes		18.7259343148358				ShowResult	Loss
81.0	3	436.283	0.017	1499.47	13.5	-2.62	28.9388	3.919	955.0	2.8	Outcome2	-5.23	13.5	3923.75	Yes		18.7259343148358				ISITrial	Loss
81.0	3	444.163	0.024	1507.35	13.5	-2.62	28.9388	2.406	955.0	2.8	Outcome2	-5.23	13.5	3923.75	Yes		18.7259343148358			600.0	TrialHappiness	Loss
81.0	3	448.178	4.015	1511.365	13.5	-2.62	28.9388	7.695	955.0	2.8	Outcome2	-5.23	13.5	3923.75	Yes		18.7259343148358				ISIRate	Loss
	3	455.892	0.019	1519.079				3.0													CurrentEarnings	
	3	458.908	0.016	1522.095				-0.001								4.0		74.168	533.076		Goodbye	
