trial_number	block	onset	onset_delay	onset_unadjusted	amount_change	certain_amount	current_amount	duration	mood_target	multiplier	outcome	outcome1_amount	outcome2_amount	question_duration	rating	response	rpe	rt	rt_time	slider_response	trial_phase	trial_type
	0	-41.706	0.021	25.875				-0.001								{SPACE}		3.846	-37.86		Welcome	
	0	-37.844	0.016	29.737				5.0													LifeHappyPreview	
	0	-32.812	0.032	34.769				2.163												464.0	LifeHappiness	
	0	-15.394	0.019	52.187				4.0													BlockHappyPreview	
	0	-11.382	0.012	56.199				0.857												492.0	BlockStartHappiness	
	0	-2.739	0.018	64.842				-0.001								5.0					ScanWait	
	1	0.019	0.019	67.6				10.0													GetReady	
1.0	1	10.049	0.03	77.63	4.3	0.0	10.5375	3.0	955.0	2.0	Outcome2	-3.57	4.3	0.0	No	2.0	7.865232163080409	0.934	10.983		GetAnswer	Mixed
1.0	1	11.002	0.019	78.583	4.3	0.0	10.5375	4.0	955.0	2.0	Outcome2	-3.57	4.3	0.0	No		7.865232163080409				ShowChoice	Mixed
1.0	1	15.014	0.012	82.595	4.3	0.0	10.5375	1.0	955.0	2.0	Outcome2	-3.57	4.3	0.0	No		7.865232163080409				ShowResult	Mixed
1.0	1	16.034	0.02	83.615	4.3	0.0	10.5375	2.431	955.0	2.0	Outcome2	-3.57	4.3	0.0	No		7.865232163080409				ISITrial	Mixed
2.0	1	18.491	0.026	86.072	0.7	-3.0	10.625	3.0	955.0	0.3	Outcome2	-7.69	0.7	0.0	No		8.38958097395244				GetAnswer	Mixed
2.0	1	21.517	0.026	89.098	0.7	-3.0	10.625	4.0	955.0	0.3	Outcome2	-7.69	0.7	0.0	No		8.38958097395244				ShowChoice	Mixed
2.0	1	25.529	0.012	93.11	0.7	-3.0	10.625	1.0	955.0	0.3	Outcome2	-7.69	0.7	0.0	No		8.38958097395244				ShowResult	Mixed
2.0	1	26.548	0.019	94.129	0.7	-3.0	10.625	4.568	955.0	0.3	Outcome2	-7.69	0.7	0.0	No		8.38958097395244				ISITrial	Mixed
3.0	1	31.146	0.03	98.727	8.9	0.0	11.7375	3.0	955.0	2.0	Outcome2	-0.01	8.9	2868.0	Yes	2.0	8.913929784824461	1.064	32.21		GetAnswer	Gain
3.0	1	32.232	0.022	99.813	8.9	0.0	11.7375	4.0	955.0	2.0	Outcome2	-0.01	8.9	2868.0	Yes		8.913929784824461				ShowChoice	Gain
3.0	1	36.244	0.012	103.825	8.9	0.0	11.7375	1.0	955.0	2.0	Outcome2	-0.01	8.9	2868.0	Yes		8.913929784824461				ShowResult	Gain
3.0	1	37.264	0.02	104.845	8.9	0.0	11.7375	3.243	955.0	2.0	Outcome2	-0.01	8.9	2868.0	Yes		8.913929784824461				ISITrial	Gain
3.0	1	43.416	0.024	110.997	8.9	0.0	11.7375	0.731	955.0	2.0	Outcome2	-0.01	8.9	2868.0	Yes	2{-2}	8.913929784824461	0.731	44.147	532.0	TrialHappiness	Gain
3.0	1	47.428	4.012	115.009	8.9	0.0	11.7375	3.472	955.0	2.0	Outcome2	-0.01	8.9	2868.0	Yes		8.913929784824461				ISIRate	Gain
4.0	1	50.921	0.021	118.502	-2.95	-2.0	11.3687	3.0	955.0	0.4	Outcome1	-2.95	-1.1	0.0	No	2.0	-1.84767836919592	2.037	52.958		GetAnswer	Mixed
4.0	1	52.978	0.02	120.559	-2.95	-2.0	11.3687	4.0	955.0	0.4	Outcome1	-2.95	-1.1	0.0	No		-1.84767836919592				ShowChoice	Mixed
4.0	1	56.99	0.012	124.571	-2.95	-2.0	11.3687	1.0	955.0	0.4	Outcome1	-2.95	-1.1	0.0	No		-1.84767836919592				ShowResult	Mixed
4.0	1	58.009	0.019	125.59	-2.95	-2.0	11.3687	2.011	955.0	0.4	Outcome1	-2.95	-1.1	0.0	No		-1.84767836919592				ISITrial	Mixed
5.0	1	60.049	0.029	127.63	0.0	0.0	11.3687	3.0	955.0	0.2	Certain	-1.39	0.5	2582.5	Yes	4.0	-1.8875990939977398	1.481	61.53		GetAnswer	Mixed
5.0	1	61.553	0.023	129.134	0.0	0.0	11.3687	4.0	955.0	0.2	Certain	-1.39	0.5	2582.5	Yes		-1.8875990939977398				ShowChoice	Mixed
5.0	1	65.565	0.012	133.146	0.0	0.0	11.3687	1.0	955.0	0.2	Certain	-1.39	0.5	2582.5	Yes		-1.8875990939977398				ShowResult	Mixed
5.0	1	66.585	0.02	134.166	0.0	0.0	11.3687	5.129	955.0	0.2	Certain	-1.39	0.5	2582.5	Yes		-1.8875990939977398				ISITrial	Mixed
5.0	1	74.341	0.025	141.922	0.0	0.0	11.3687	0.743	955.0	0.2	Certain	-1.39	0.5	2582.5	Yes		-1.8875990939977398			496.0	TrialHappiness	Mixed
5.0	1	78.353	4.012	145.934	0.0	0.0	11.3687	2.33	955.0	0.2	Certain	-1.39	0.5	2582.5	Yes		-1.8875990939977398				ISIRate	Mixed
6.0	1	80.71	0.027	148.291	9.1	-0.62	12.5062	3.0	955.0	2.22	Outcome1	9.1	-1.23	0.0	No	2.0	10.3284258210646	1.119	81.829		GetAnswer	Gain
6.0	1	81.847	0.018	149.428	9.1	-0.62	12.5062	4.0	955.0	2.22	Outcome1	9.1	-1.23	0.0	No		10.3284258210646				ShowChoice	Gain
6.0	1	85.859	0.012	153.44	9.1	-0.62	12.5062	1.0	955.0	2.22	Outcome1	9.1	-1.23	0.0	No		10.3284258210646				ShowResult	Gain
6.0	1	86.879	0.02	154.46	9.1	-0.62	12.5062	6.232	955.0	2.22	Outcome1	9.1	-1.23	0.0	No		10.3284258210646				ISITrial	Gain
7.0	1	93.131	0.02	160.712	11.5	0.32	13.9437	3.0	955.0	2.8	Outcome2	0.65	11.5	0.0	No	2.0	10.848244620611599	1.171	94.302		GetAnswer	Loss
7.0	1	94.318	0.016	161.899	11.5	0.32	13.9437	4.0	955.0	2.8	Outcome2	0.65	11.5	0.0	No		10.848244620611599				ShowChoice	Loss
7.0	1	98.33	0.012	165.911	11.5	0.32	13.9437	1.0	955.0	2.8	Outcome2	0.65	11.5	0.0	No		10.848244620611599				ShowResult	Loss
7.0	1	99.349	0.019	166.93	11.5	0.32	13.9437	2.305	955.0	2.8	Outcome2	0.65	11.5	0.0	No		10.848244620611599				ISITrial	Loss
8.0	1	101.673	0.019	169.254	11.7	0.16	15.4062	3.0	955.0	3.16	Outcome2	0.33	11.7	3112.5	Yes	2.0	11.368063420158501	0.859	102.532		GetAnswer	Loss
8.0	1	102.559	0.027	170.14	11.7	0.16	15.4062	4.0	955.0	3.16	Outcome2	0.33	11.7	3112.5	Yes		11.368063420158501				ShowChoice	Loss
8.0	1	106.571	0.012	174.152	11.7	0.16	15.4062	1.0	955.0	3.16	Outcome2	0.33	11.7	3112.5	Yes		11.368063420158501				ShowResult	Loss
8.0	1	107.591	0.02	175.172	11.7	0.16	15.4062	3.506	955.0	3.16	Outcome2	0.33	11.7	3112.5	Yes		11.368063420158501				ISITrial	Loss
8.0	1	114.244	0.014	181.825	11.7	0.16	15.4062	0.881	955.0	3.16	Outcome2	0.33	11.7	3112.5	Yes		11.368063420158501			556.0	TrialHappiness	Loss
8.0	1	118.256	4.012	185.837	11.7	0.16	15.4062	4.45	955.0	3.16	Outcome2	0.33	11.7	3112.5	Yes		11.368063420158501				ISIRate	Loss
9.0	1	122.736	0.03	190.317	8.7	-1.08	16.4937	3.0	955.0	1.82	Outcome2	-2.17	8.7	0.0	No	2.0	10.8686296715742	0.788	123.524		GetAnswer	Gain
9.0	1	123.538	0.014	191.119	8.7	-1.08	16.4937	4.0	955.0	1.82	Outcome2	-2.17	8.7	0.0	No		10.8686296715742				ShowChoice	Gain
9.0	1	127.55	0.012	195.131	8.7	-1.08	16.4937	1.0	955.0	1.82	Outcome2	-2.17	8.7	0.0	No		10.8686296715742				ShowResult	Gain
9.0	1	128.57	0.02	196.151	8.7	-1.08	16.4937	2.0	955.0	1.82	Outcome2	-2.17	8.7	0.0	No		10.8686296715742				ISITrial	Gain
10.0	1	130.593	0.023	198.174	-0.9	-6.0	16.3812	3.0	955.0	0.52	Outcome1	-0.9	-12.22	4000.0	Yes	2.0	11.320498301245802	0.873	131.466		GetAnswer	Mixed
10.0	1	131.479	0.013	199.06	-0.9	-6.0	16.3812	4.0	955.0	0.52	Outcome1	-0.9	-12.22	4000.0	Yes		11.320498301245802				ShowChoice	Mixed
10.0	1	135.491	0.012	203.072	-0.9	-6.0	16.3812	1.0	955.0	0.52	Outcome1	-0.9	-12.22	4000.0	Yes		11.320498301245802				ShowResult	Mixed
10.0	1	136.511	0.02	204.092	-0.9	-6.0	16.3812	2.0	955.0	0.52	Outcome1	-0.9	-12.22	4000.0	Yes		11.320498301245802				ISITrial	Mixed
10.0	1	142.562	0.029	210.143	-0.9	-6.0	16.3812	1.126	955.0	0.52	Outcome1	-0.9	-12.22	4000.0	Yes		11.320498301245802			576.0	TrialHappiness	Mixed
10.0	1	146.574	4.012	214.155	-0.9	-6.0	16.3812	8.0	955.0	0.52	Outcome1	-0.9	-12.22	4000.0	Yes		11.320498301245802				ISIRate	Mixed
11.0	1	154.598	0.024	222.179	1.9	-4.0	16.6187	3.0	955.0	1.2	Outcome1	1.9	-9.53	0.0	No	2.0	11.432616081540198	0.791	155.389		GetAnswer	Mixed
11.0	1	155.4	0.011	222.981	1.9	-4.0	16.6187	4.0	955.0	1.2	Outcome1	1.9	-9.53	0.0	No		11.432616081540198				ShowChoice	Mixed
11.0	1	159.412	0.012	226.993	1.9	-4.0	16.6187	1.0	955.0	1.2	Outcome1	1.9	-9.53	0.0	No		11.432616081540198				ShowResult	Mixed
11.0	1	160.432	0.02	228.013	1.9	-4.0	16.6187	3.324	955.0	1.2	Outcome1	1.9	-9.53	0.0	No		11.432616081540198				ISITrial	Mixed
12.0	1	163.775	0.019	231.356	13.9	1.02	18.3562	3.0	955.0	3.6	Outcome2	2.04	13.9	2618.75	Yes	2.0	11.861834654586598	0.999	164.774		GetAnswer	Loss
12.0	1	164.795	0.021	232.376	13.9	1.02	18.3562	4.0	955.0	3.6	Outcome2	2.04	13.9	2618.75	Yes		11.861834654586598				ShowChoice	Loss
12.0	1	168.807	0.012	236.388	13.9	1.02	18.3562	1.0	955.0	3.6	Outcome2	2.04	13.9	2618.75	Yes		11.861834654586598				ShowResult	Loss
12.0	1	169.827	0.02	237.408	13.9	1.02	18.3562	6.642	955.0	3.6	Outcome2	2.04	13.9	2618.75	Yes		11.861834654586598				ISITrial	Loss
12.0	1	179.121	0.022	246.702	13.9	1.02	18.3562	1.365	955.0	3.6	Outcome2	2.04	13.9	2618.75	Yes		11.861834654586598			592.0	TrialHappiness	Loss
12.0	1	183.133	4.012	250.714	13.9	1.02	18.3562	2.475	955.0	3.6	Outcome2	2.04	13.9	2618.75	Yes		11.861834654586598				ISIRate	Loss
13.0	1	185.624	0.016	253.205	10.3	-0.86	19.6437	3.0	955.0	5.0	Outcome1	10.3	-1.72	0.0	No	2.0	12.019252548131401	0.797	186.421		GetAnswer	Gain
13.0	1	186.443	0.021	254.024	10.3	-0.86	19.6437	4.0	955.0	5.0	Outcome1	10.3	-1.72	0.0	No		12.019252548131401				ShowChoice	Gain
13.0	1	190.455	0.012	258.036	10.3	-0.86	19.6437	1.0	955.0	5.0	Outcome1	10.3	-1.72	0.0	No		12.019252548131401				ShowResult	Gain
13.0	1	191.475	0.02	259.056	10.3	-0.86	19.6437	3.48	955.0	5.0	Outcome1	10.3	-1.72	0.0	No		12.019252548131401				ISITrial	Gain
14.0	1	194.985	0.03	262.566	-2.0	-2.0	19.3937	3.0	955.0	1.5	Certain	-8.33	4.1	0.0	No	4.0	12.4303510758777	1.415	196.4		GetAnswer	Mixed
14.0	1	196.423	0.023	264.004	-2.0	-2.0	19.3937	4.0	955.0	1.5	Certain	-8.33	4.1	0.0	No		12.4303510758777				ShowChoice	Mixed
14.0	1	200.435	0.012	268.016	-2.0	-2.0	19.3937	1.0	955.0	1.5	Certain	-8.33	4.1	0.0	No		12.4303510758777				ShowResult	Mixed
14.0	1	201.455	0.02	269.036	-2.0	-2.0	19.3937	5.019	955.0	1.5	Certain	-8.33	4.1	0.0	No		12.4303510758777				ISITrial	Mixed
15.0	1	206.503	0.029	274.084	1.1	-5.0	19.5312	3.0	955.0	0.52	Outcome1	1.1	-11.74	3348.5	Yes	2.0	12.841449603624001	0.687	207.19		GetAnswer	Mixed
15.0	1	207.205	0.015	274.786	1.1	-5.0	19.5312	4.0	955.0	0.52	Outcome1	1.1	-11.74	3348.5	Yes		12.841449603624001				ShowChoice	Mixed
15.0	1	211.217	0.012	278.798	1.1	-5.0	19.5312	1.0	955.0	0.52	Outcome1	1.1	-11.74	3348.5	Yes		12.841449603624001				ShowResult	Mixed
15.0	1	212.237	0.02	279.818	1.1	-5.0	19.5312	7.614	955.0	0.52	Outcome1	1.1	-11.74	3348.5	Yes		12.841449603624001				ISITrial	Mixed
15.0	1	223.253	0.028	290.834	1.1	-5.0	19.5312	1.779	955.0	0.52	Outcome1	1.1	-11.74	3348.5	Yes		12.841449603624001			620.0	TrialHappiness	Mixed
15.0	1	227.265	4.012	294.846	1.1	-5.0	19.5312	5.394	955.0	0.52	Outcome1	1.1	-11.74	3348.5	Yes		12.841449603624001				ISIRate	Mixed
16.0	1	232.681	0.022	300.262	7.9	1.0	20.5187	3.0	955.0	3.6	Outcome1	7.9	-4.88	0.0	No	2.0	12.7768969422424	1.339	234.02		GetAnswer	Gain
16.0	1	234.036	0.016	301.617	7.9	1.0	20.5187	4.0	955.0	3.6	Outcome1	7.9	-4.88	0.0	No		12.7768969422424				ShowChoice	Gain
16.0	1	238.048	0.012	305.629	7.9	1.0	20.5187	1.0	955.0	3.6	Outcome1	7.9	-4.88	0.0	No		12.7768969422424				ShowResult	Gain
16.0	1	239.067	0.019	306.648	7.9	1.0	20.5187	3.008	955.0	3.6	Outcome1	7.9	-4.88	0.0	No		12.7768969422424				ISITrial	Gain
17.0	1	242.093	0.018	309.674	-1.88	-1.0	20.2837	3.0	955.0	1.5	Outcome1	-1.88	0.1	3041.5	Yes	2.0	-1.98159682899207	1.111	243.204		GetAnswer	Mixed
17.0	1	243.23	0.026	310.811	-1.88	-1.0	20.2837	4.0	955.0	1.5	Outcome1	-1.88	0.1	3041.5	Yes		-1.98159682899207				ShowChoice	Mixed
17.0	1	247.242	0.012	314.823	-1.88	-1.0	20.2837	1.0	955.0	1.5	Outcome1	-1.88	0.1	3041.5	Yes		-1.98159682899207				ShowResult	Mixed
17.0	1	248.261	0.019	315.842	-1.88	-1.0	20.2837	3.566	955.0	1.5	Outcome1	-1.88	0.1	3041.5	Yes		-1.98159682899207				ISITrial	Mixed
17.0	1	254.898	0.017	322.479	-1.88	-1.0	20.2837	0.851	955.0	1.5	Outcome1	-1.88	0.1	3041.5	Yes		-1.98159682899207			572.0	TrialHappiness	Mixed
17.0	1	258.91	4.012	326.491	-1.88	-1.0	20.2837	4.166	955.0	1.5	Outcome1	-1.88	0.1	3041.5	Yes		-1.98159682899207				ISIRate	Mixed
18.0	1	263.106	0.03	330.687	-7.0	-7.0	19.4087	3.0	955.0	1.0	Certain	-14.65	-0.3	0.0	No	4.0	14.3510758776897	1.428	264.534		GetAnswer	Mixed
18.0	1	264.56	0.026	332.141	-7.0	-7.0	19.4087	4.0	955.0	1.0	Certain	-14.65	-0.3	0.0	No		14.3510758776897				ShowChoice	Mixed
18.0	1	268.572	0.012	336.153	-7.0	-7.0	19.4087	1.0	955.0	1.0	Certain	-14.65	-0.3	0.0	No		14.3510758776897				ShowResult	Mixed
18.0	1	269.592	0.02	337.173	-7.0	-7.0	19.4087	6.787	955.0	1.0	Certain	-14.65	-0.3	0.0	No		14.3510758776897				ISITrial	Mixed
19.0	1	276.412	0.033	343.993	7.5	0.0	20.3462	3.0	955.0	2.8	Outcome1	7.5	-7.28	0.0	No	2.0	14.7848244620612	1.316	277.728		GetAnswer	Gain
19.0	1	277.75	0.022	345.331	7.5	0.0	20.3462	4.0	955.0	2.8	Outcome1	7.5	-7.28	0.0	No		14.7848244620612				ShowChoice	Gain
19.0	1	281.762	0.012	349.343	7.5	0.0	20.3462	1.0	955.0	2.8	Outcome1	7.5	-7.28	0.0	No		14.7848244620612				ShowResult	Gain
19.0	1	282.781	0.019	350.362	7.5	0.0	20.3462	2.0	955.0	2.8	Outcome1	7.5	-7.28	0.0	No		14.7848244620612				ISITrial	Gain
20.0	1	284.804	0.023	352.385	2.7	-5.0	20.6837	3.0	955.0	0.3	Outcome2	-12.52	2.7	2921.25	Yes	2.0	15.2185730464326	1.569	286.373		GetAnswer	Mixed
20.0	1	286.392	0.019	353.973	2.7	-5.0	20.6837	4.0	955.0	0.3	Outcome2	-12.52	2.7	2921.25	Yes		15.2185730464326				ShowChoice	Mixed
20.0	1	290.404	0.012	357.985	2.7	-5.0	20.6837	1.0	955.0	0.3	Outcome2	-12.52	2.7	2921.25	Yes		15.2185730464326				ShowResult	Mixed
20.0	1	291.424	0.02	359.005	2.7	-5.0	20.6837	8.0	955.0	0.3	Outcome2	-12.52	2.7	2921.25	Yes		15.2185730464326				ISITrial	Mixed
20.0	1	302.39	0.021	369.971	2.7	-5.0	20.6837	2.251	955.0	0.3	Outcome2	-12.52	2.7	2921.25	Yes		15.2185730464326			616.0	TrialHappiness	Mixed
20.0	1	306.402	4.012	373.983	2.7	-5.0	20.6837	3.685	955.0	0.3	Outcome2	-12.52	2.7	2921.25	Yes		15.2185730464326				ISIRate	Mixed
21.0	1	310.113	0.026	377.694	6.1	-1.0	21.4462	3.0	955.0	4.2	Outcome2	-8.8	6.1	0.0	No	2.0	14.904869762174402	1.199	311.312		GetAnswer	Gain
21.0	1	311.333	0.021	378.914	6.1	-1.0	21.4462	4.0	955.0	4.2	Outcome2	-8.8	6.1	0.0	No		14.904869762174402				ShowChoice	Gain
21.0	1	315.345	0.012	382.926	6.1	-1.0	21.4462	1.0	955.0	4.2	Outcome2	-8.8	6.1	0.0	No		14.904869762174402				ShowResult	Gain
21.0	1	316.365	0.02	383.946	6.1	-1.0	21.4462	3.555	955.0	4.2	Outcome2	-8.8	6.1	0.0	No		14.904869762174402				ISITrial	Gain
22.0	1	319.942	0.022	387.523	10.7	-2.3	22.7837	3.0	955.0	1.82	Outcome2	-4.59	10.7	3219.5	Yes	2.0	15.288788221970599	2.19	322.132		GetAnswer	Loss
22.0	1	322.149	0.017	389.73	10.7	-2.3	22.7837	4.0	955.0	1.82	Outcome2	-4.59	10.7	3219.5	Yes		15.288788221970599				ShowChoice	Loss
22.0	1	326.161	0.012	393.742	10.7	-2.3	22.7837	1.0	955.0	1.82	Outcome2	-4.59	10.7	3219.5	Yes		15.288788221970599				ShowResult	Loss
22.0	1	327.181	0.02	394.762	10.7	-2.3	22.7837	6.793	955.0	1.82	Outcome2	-4.59	10.7	3219.5	Yes		15.288788221970599				ISITrial	Loss
22.0	1	337.227	0.023	404.808	10.7	-2.3	22.7837	2.276	955.0	1.82	Outcome2	-4.59	10.7	3219.5	Yes		15.288788221970599			636.0	TrialHappiness	Loss
22.0	1	341.239	4.012	408.82	10.7	-2.3	22.7837	4.878	955.0	1.82	Outcome2	-4.59	10.7	3219.5	Yes		15.288788221970599				ISIRate	Loss
23.0	1	346.137	0.02	413.718	0.3	-7.0	22.8212	3.0	955.0	2.0	Outcome2	-15.03	0.3	0.0	No	2.0	15.332955832389601	2.555	348.692		GetAnswer	Mixed
23.0	1	348.712	0.02	416.293	0.3	-7.0	22.8212	4.0	955.0	2.0	Outcome2	-15.03	0.3	0.0	No		15.332955832389601				ShowChoice	Mixed
23.0	1	352.724	0.012	420.305	0.3	-7.0	22.8212	1.0	955.0	2.0	Outcome2	-15.03	0.3	0.0	No		15.332955832389601				ShowResult	Mixed
23.0	1	353.743	0.019	421.324	0.3	-7.0	22.8212	8.0	955.0	2.0	Outcome2	-15.03	0.3	0.0	No		15.332955832389601				ISITrial	Mixed
24.0	1	361.767	0.024	429.348	9.9	2.0	24.0587	3.0	955.0	3.6	Outcome1	9.9	-5.79	3255.0	Yes	2.0	15.6942242355606	1.053	362.82		GetAnswer	Gain
24.0	1	362.837	0.017	430.418	9.9	2.0	24.0587	4.0	955.0	3.6	Outcome1	9.9	-5.79	3255.0	Yes		15.6942242355606				ShowChoice	Gain
24.0	1	366.849	0.012	434.43	9.9	2.0	24.0587	1.0	955.0	3.6	Outcome1	9.9	-5.79	3255.0	Yes		15.6942242355606				ShowResult	Gain
24.0	1	367.869	0.02	435.45	9.9	2.0	24.0587	2.0	955.0	3.6	Outcome1	9.9	-5.79	3255.0	Yes		15.6942242355606				ISITrial	Gain
24.0	1	373.168	0.021	440.749	9.9	2.0	24.0587	2.154	955.0	3.6	Outcome1	9.9	-5.79	3255.0	Yes		15.6942242355606			660.0	TrialHappiness	Gain
24.0	1	377.197	4.029	444.778	9.9	2.0	24.0587	5.02	955.0	3.6	Outcome1	9.9	-5.79	3255.0	Yes		15.6942242355606				ISIRate	Gain
25.0	1	382.245	0.028	449.826	-1.0	-1.0	23.9337	3.0	955.0	0.82	Certain	-0.5	-2.58	0.0	No	4.0	-2.08352208380521	2.642	384.887		GetAnswer	Mixed
25.0	1	384.903	0.016	452.484	-1.0	-1.0	23.9337	4.0	955.0	0.82	Certain	-0.5	-2.58	0.0	No		-2.08352208380521				ShowChoice	Mixed
25.0	1	388.915	0.012	456.496	-1.0	-1.0	23.9337	1.0	955.0	0.82	Certain	-0.5	-2.58	0.0	No		-2.08352208380521				ShowResult	Mixed
25.0	1	389.935	0.02	457.516	-1.0	-1.0	23.9337	3.749	955.0	0.82	Certain	-0.5	-2.58	0.0	No		-2.08352208380521				ISITrial	Mixed
26.0	1	393.713	0.029	461.294	3.19	1.6	24.3325	3.0	955.0	2.48	Outcome1	3.19	5.3	0.0	No	2.0	-2.1113627784069497	1.026	394.739		GetAnswer	Gain
26.0	1	394.766	0.027	462.347	3.19	1.6	24.3325	4.0	955.0	2.48	Outcome1	3.19	5.3	0.0	No		-2.1113627784069497				ShowChoice	Gain
26.0	1	398.778	0.012	466.359	3.19	1.6	24.3325	1.0	955.0	2.48	Outcome1	3.19	5.3	0.0	No		-2.1113627784069497				ShowResult	Gain
26.0	1	399.798	0.02	467.379	3.19	1.6	24.3325	7.834	955.0	2.48	Outcome1	3.19	5.3	0.0	No		-2.1113627784069497				ISITrial	Gain
27.0	1	407.655	0.023	475.236	13.5	-1.41	26.02	3.0	955.0	2.8	Outcome1	13.5	-2.82	2549.75	Yes	2.0	16.3159682899207	1.355	409.01		GetAnswer	Loss
27.0	1	409.025	0.015	476.606	13.5	-1.41	26.02	4.0	955.0	2.8	Outcome1	13.5	-2.82	2549.75	Yes		16.3159682899207				ShowChoice	Loss
27.0	1	413.054	0.029	480.635	13.5	-1.41	26.02	1.0	955.0	2.8	Outcome1	13.5	-2.82	2549.75	Yes		16.3159682899207				ShowResult	Loss
27.0	1	414.074	0.02	481.655	13.5	-1.41	26.02	4.225	955.0	2.8	Outcome1	13.5	-2.82	2549.75	Yes		16.3159682899207				ISITrial	Loss
27.0	1	420.894	0.024	488.475	13.5	-1.41	26.02	0.858	955.0	2.8	Outcome1	13.5	-2.82	2549.75	Yes		16.3159682899207			656.0	TrialHappiness	Loss
27.0	1	424.923	4.029	492.504	13.5	-1.41	26.02	2.199	955.0	2.8	Outcome1	13.5	-2.82	2549.75	Yes		16.3159682899207				ISIRate	Loss
	1	427.146	0.024	494.727				-0.001								{SPACE}		39.35	466.496		Rest	
	1	466.514	0.018	534.095				4.0													BlockHappyPreview	
	1	470.526	0.012	538.107				2.401												660.0	BlockStartHappiness	
	1	477.647	0.015	545.228				-0.001								5.0		2.317	479.964		ScanWait	
	2	0.024	0.024	547.569				10.0													GetReady	
28.0	2	10.054	0.03	557.599	1.27	0.64	26.1788	3.0	70.0	2.48	Outcome2	11.3	1.27	0.0	No	2.0	-10.0340136054422	1.096	11.15		GetAnswer	Loss
28.0	2	11.174	0.024	558.719	1.27	0.64	26.1788	4.0	70.0	2.48	Outcome2	11.3	1.27	0.0	No		-10.0340136054422				ShowChoice	Loss
28.0	2	15.202	0.028	562.747	1.27	0.64	26.1788	1.0	70.0	2.48	Outcome2	11.3	1.27	0.0	No		-10.0340136054422				ShowResult	Loss
28.0	2	16.222	0.02	563.767	1.27	0.64	26.1788	3.575	70.0	2.48	Outcome2	11.3	1.27	0.0	No		-10.0340136054422				ISITrial	Loss
29.0	2	19.816	0.019	567.361	-6.8	-1.0	25.3288	3.0	70.0	1.2	Outcome1	-6.8	3.9	3529.0	Yes	2.0	-10.702947845805	1.472	21.288		GetAnswer	Mixed
29.0	2	21.304	0.016	568.849	-6.8	-1.0	25.3288	4.0	70.0	1.2	Outcome1	-6.8	3.9	3529.0	Yes		-10.702947845805				ShowChoice	Mixed
29.0	2	25.333	0.029	572.878	-6.8	-1.0	25.3288	1.0	70.0	1.2	Outcome1	-6.8	3.9	3529.0	Yes		-10.702947845805				ShowResult	Mixed
29.0	2	26.352	0.019	573.897	-6.8	-1.0	25.3288	3.955	70.0	1.2	Outcome1	-6.8	3.9	3529.0	Yes		-10.702947845805				ISITrial	Mixed
29.0	2	33.892	0.032	581.437	-6.8	-1.0	25.3288	2.213	70.0	1.2	Outcome1	-6.8	3.9	3529.0	Yes		-10.702947845805			528.0	TrialHappiness	Mixed
29.0	2	37.92	4.028	585.465	-6.8	-1.0	25.3288	6.116	70.0	1.2	Outcome1	-6.8	3.9	3529.0	Yes		-10.702947845805				ISIRate	Mixed
30.0	2	44.055	0.019	591.6	-7.83	-3.0	24.35	3.0	70.0	0.66	Outcome1	-7.83	1.3	0.0	No	2.0	-9.126984126984132	1.89	45.945		GetAnswer	Mixed
30.0	2	45.961	0.016	593.506	-7.83	-3.0	24.35	4.0	70.0	0.66	Outcome1	-7.83	1.3	0.0	No		-9.126984126984132				ShowChoice	Mixed
30.0	2	49.99	0.029	597.535	-7.83	-3.0	24.35	1.0	70.0	0.66	Outcome1	-7.83	1.3	0.0	No		-9.126984126984132				ShowResult	Mixed
30.0	2	51.009	0.019	598.554	-7.83	-3.0	24.35	4.453	70.0	0.66	Outcome1	-7.83	1.3	0.0	No		-9.126984126984132				ISITrial	Mixed
31.0	2	55.489	0.027	603.034	-2.55	2.0	24.0312	3.0	70.0	2.22	Outcome2	7.1	-2.55	2503.25	Yes	2.0	-9.64625850340136	1.614	57.103		GetAnswer	Gain
31.0	2	57.128	0.025	604.673	-2.55	2.0	24.0312	4.0	70.0	2.22	Outcome2	7.1	-2.55	2503.25	Yes		-9.64625850340136				ShowChoice	Gain
31.0	2	61.14	0.012	608.685	-2.55	2.0	24.0312	1.0	70.0	2.22	Outcome2	7.1	-2.55	2503.25	Yes		-9.64625850340136				ShowResult	Gain
31.0	2	62.159	0.019	609.704	-2.55	2.0	24.0312	4.786	70.0	2.22	Outcome2	7.1	-2.55	2503.25	Yes		-9.64625850340136				ISITrial	Gain
31.0	2	69.498	0.021	617.043	-2.55	2.0	24.0312	0.893	70.0	2.22	Outcome2	7.1	-2.55	2503.25	Yes		-9.64625850340136			472.0	TrialHappiness	Gain
31.0	2	73.51	4.012	621.055	-2.55	2.0	24.0312	2.013	70.0	2.22	Outcome2	7.1	-2.55	2503.25	Yes		-9.64625850340136				ISIRate	Gain
32.0	2	75.549	0.026	623.094	1.29	0.64	24.1924	3.0	70.0	1.68	Outcome1	1.29	10.5	0.0	No	2.0	-9.213151927437641	1.175	76.724		GetAnswer	Loss
32.0	2	76.736	0.012	624.281	1.29	0.64	24.1924	4.0	70.0	1.68	Outcome1	1.29	10.5	0.0	No		-9.213151927437641				ShowChoice	Loss
32.0	2	80.748	0.012	628.293	1.29	0.64	24.1924	1.0	70.0	1.68	Outcome1	1.29	10.5	0.0	No		-9.213151927437641				ShowResult	Loss
32.0	2	81.768	0.02	629.313	1.29	0.64	24.1924	2.0	70.0	1.68	Outcome1	1.29	10.5	0.0	No		-9.213151927437641				ISITrial	Loss
33.0	2	83.791	0.023	631.336	-0.37	-0.18	24.1462	3.0	70.0	2.48	Outcome1	-0.37	9.3	0.0	No	2.0	-9.66893424036281	1.547	85.338		GetAnswer	Gain
33.0	2	85.362	0.024	632.907	-0.37	-0.18	24.1462	4.0	70.0	2.48	Outcome1	-0.37	9.3	0.0	No		-9.66893424036281				ShowChoice	Gain
33.0	2	89.374	0.012	636.919	-0.37	-0.18	24.1462	1.0	70.0	2.48	Outcome1	-0.37	9.3	0.0	No		-9.66893424036281				ShowResult	Gain
33.0	2	90.394	0.02	637.939	-0.37	-0.18	24.1462	5.099	70.0	2.48	Outcome1	-0.37	9.3	0.0	No		-9.66893424036281				ISITrial	Gain
34.0	2	95.509	0.016	643.054	2.58	1.29	24.4687	3.0	70.0	1.82	Outcome2	12.7	2.58	3231.5	Yes	2.0	-10.124716553288	1.205	96.714		GetAnswer	Loss
34.0	2	96.729	0.015	644.274	2.58	1.29	24.4687	4.0	70.0	1.82	Outcome2	12.7	2.58	3231.5	Yes		-10.124716553288				ShowChoice	Loss
34.0	2	100.741	0.012	648.286	2.58	1.29	24.4687	1.0	70.0	1.82	Outcome2	12.7	2.58	3231.5	Yes		-10.124716553288				ShowResult	Loss
34.0	2	101.761	0.02	649.306	2.58	1.29	24.4687	4.784	70.0	1.82	Outcome2	12.7	2.58	3231.5	Yes		-10.124716553288				ISITrial	Loss
34.0	2	109.819	0.028	657.364	2.58	1.29	24.4687	0.0	70.0	1.82	Outcome2	12.7	2.58	3231.5	Yes		-10.124716553288			512.0	TrialHappiness	Loss
34.0	2	113.831	4.012	661.376	2.58	1.29	24.4687	4.926	70.0	1.82	Outcome2	12.7	2.58	3231.5	Yes		-10.124716553288				ISIRate	Loss
35.0	2	118.779	0.022	666.324	0.0	0.0	24.4687	3.0	70.0	5.0	Certain	-4.96	6.3	0.0	No	4.0	-11.260770975056698	1.477	120.256		GetAnswer	Gain
35.0	2	120.266	0.01	667.811	0.0	0.0	24.4687	4.0	70.0	5.0	Certain	-4.96	6.3	0.0	No		-11.260770975056698				ShowChoice	Gain
35.0	2	124.278	0.012	671.823	0.0	0.0	24.4687	1.0	70.0	5.0	Certain	-4.96	6.3	0.0	No		-11.260770975056698				ShowResult	Gain
35.0	2	125.298	0.02	672.843	0.0	0.0	24.4687	2.098	70.0	5.0	Certain	-4.96	6.3	0.0	No		-11.260770975056698				ISITrial	Gain
36.0	2	127.421	0.025	674.966	-5.0	-5.0	23.8437	3.0	70.0	0.4	Certain	0.9	-10.86	3335.75	Yes	4.0	-11.7619047619048	2.214	129.635		GetAnswer	Mixed
36.0	2	129.661	0.026	677.206	-5.0	-5.0	23.8437	4.0	70.0	0.4	Certain	0.9	-10.86	3335.75	Yes		-11.7619047619048				ShowChoice	Mixed
36.0	2	133.673	0.012	681.218	-5.0	-5.0	23.8437	1.0	70.0	0.4	Certain	0.9	-10.86	3335.75	Yes		-11.7619047619048				ShowResult	Mixed
36.0	2	134.693	0.02	682.238	-5.0	-5.0	23.8437	5.156	70.0	0.4	Certain	0.9	-10.86	3335.75	Yes		-11.7619047619048				ISITrial	Mixed
36.0	2	143.235	0.024	690.78	-5.0	-5.0	23.8437	0.0	70.0	0.4	Certain	0.9	-10.86	3335.75	Yes		-11.7619047619048			512.0	TrialHappiness	Mixed
36.0	2	147.247	4.012	694.792	-5.0	-5.0	23.8437	5.343	70.0	0.4	Certain	0.9	-10.86	3335.75	Yes		-11.7619047619048				ISIRate	Mixed
37.0	2	152.613	0.023	700.158	0.0	0.0	23.8437	3.0	70.0	3.6	Certain	5.9	-6.36	0.0	No	4.0	-12.263038548752801	1.421	154.034		GetAnswer	Gain
37.0	2	154.051	0.017	701.596	0.0	0.0	23.8437	4.0	70.0	3.6	Certain	5.9	-6.36	0.0	No		-12.263038548752801				ShowChoice	Gain
37.0	2	158.063	0.012	705.608	0.0	0.0	23.8437	1.0	70.0	3.6	Certain	5.9	-6.36	0.0	No		-12.263038548752801				ShowResult	Gain
37.0	2	159.082	0.019	706.627	0.0	0.0	23.8437	3.598	70.0	3.6	Certain	5.9	-6.36	0.0	No		-12.263038548752801				ISITrial	Gain
38.0	2	162.71	0.03	710.255	-8.06	-1.0	22.8362	3.0	70.0	1.82	Outcome1	-8.06	4.7	0.0	No	2.0	-12.7641723356009	1.619	164.329		GetAnswer	Gain
38.0	2	164.348	0.019	711.893	-8.06	-1.0	22.8362	4.0	70.0	1.82	Outcome1	-8.06	4.7	0.0	No		-12.7641723356009				ShowChoice	Gain
38.0	2	168.36	0.012	715.905	-8.06	-1.0	22.8362	1.0	70.0	1.82	Outcome1	-8.06	4.7	0.0	No		-12.7641723356009				ShowResult	Gain
38.0	2	169.38	0.02	716.925	-8.06	-1.0	22.8362	4.787	70.0	1.82	Outcome1	-8.06	4.7	0.0	No		-12.7641723356009				ISITrial	Gain
39.0	2	174.194	0.027	721.739	3.28	2.0	23.2462	3.0	70.0	2.22	Outcome2	1.01	3.28	2864.25	Yes	2.0	2.27475434618292	1.218	175.412		GetAnswer	Loss
39.0	2	175.431	0.019	722.976	3.28	2.0	23.2462	4.0	70.0	2.22	Outcome2	1.01	3.28	2864.25	Yes		2.27475434618292				ShowChoice	Loss
39.0	2	179.443	0.012	726.988	3.28	2.0	23.2462	1.0	70.0	2.22	Outcome2	1.01	3.28	2864.25	Yes		2.27475434618292				ShowResult	Loss
39.0	2	180.463	0.02	728.008	3.28	2.0	23.2462	2.348	70.0	2.22	Outcome2	1.01	3.28	2864.25	Yes		2.27475434618292				ISITrial	Loss
39.0	2	185.729	0.028	733.274	3.28	2.0	23.2462	0.0	70.0	2.22	Outcome2	1.01	3.28	2864.25	Yes		2.27475434618292			512.0	TrialHappiness	Loss
39.0	2	189.741	4.012	737.286	3.28	2.0	23.2462	3.457	70.0	2.22	Outcome2	1.01	3.28	2864.25	Yes		2.27475434618292				ISIRate	Loss
40.0	2	193.218	0.02	740.763	-4.0	-4.0	22.7462	3.0	70.0	0.52	Certain	3.1	-10.67	0.0	No	4.0	-13.7664399092971	1.876	195.094		GetAnswer	Mixed
40.0	2	195.107	0.013	742.652	-4.0	-4.0	22.7462	4.0	70.0	0.52	Certain	3.1	-10.67	0.0	No		-13.7664399092971				ShowChoice	Mixed
40.0	2	199.119	0.012	746.664	-4.0	-4.0	22.7462	1.0	70.0	0.52	Certain	3.1	-10.67	0.0	No		-13.7664399092971				ShowResult	Mixed
40.0	2	200.139	0.02	747.684	-4.0	-4.0	22.7462	3.158	70.0	0.52	Certain	3.1	-10.67	0.0	No		-13.7664399092971				ISITrial	Mixed
41.0	2	203.315	0.018	750.86	-2.0	-2.0	22.4962	3.0	70.0	2.0	Certain	-9.37	4.9	4000.0	Yes	4.0	-14.267573696145101	1.684	204.999		GetAnswer	Gain
41.0	2	205.02	0.021	752.565	-2.0	-2.0	22.4962	4.0	70.0	2.0	Certain	-9.37	4.9	4000.0	Yes		-14.267573696145101				ShowChoice	Gain
41.0	2	209.032	0.012	756.577	-2.0	-2.0	22.4962	1.0	70.0	2.0	Certain	-9.37	4.9	4000.0	Yes		-14.267573696145101				ShowResult	Gain
41.0	2	210.052	0.02	757.597	-2.0	-2.0	22.4962	4.506	70.0	2.0	Certain	-9.37	4.9	4000.0	Yes		-14.267573696145101				ISITrial	Gain
41.0	2	218.61	0.028	766.155	-2.0	-2.0	22.4962	0.595	70.0	2.0	Certain	-9.37	4.9	4000.0	Yes		-14.267573696145101			492.0	TrialHappiness	Gain
41.0	2	222.622	4.012	770.167	-2.0	-2.0	22.4962	8.0	70.0	2.0	Certain	-9.37	4.9	4000.0	Yes		-14.267573696145101				ISIRate	Gain
42.0	2	230.646	0.024	778.191	2.38	1.0	22.7937	3.0	70.0	2.8	Outcome1	2.38	0.06	0.0	No	2.0	2.3187830687830697	0.975	231.621		GetAnswer	Gain
42.0	2	231.633	0.012	779.178	2.38	1.0	22.7937	4.0	70.0	2.8	Outcome1	2.38	0.06	0.0	No		2.3187830687830697				ShowChoice	Gain
42.0	2	235.645	0.012	783.19	2.38	1.0	22.7937	1.0	70.0	2.8	Outcome1	2.38	0.06	0.0	No		2.3187830687830697				ShowResult	Gain
42.0	2	236.664	0.019	784.209	2.38	1.0	22.7937	6.248	70.0	2.8	Outcome1	2.38	0.06	0.0	No		2.3187830687830697				ISITrial	Gain
43.0	2	242.933	0.021	790.478	-9.0	-9.0	21.6687	3.0	70.0	0.3	Certain	-1.3	-16.21	2775.75	Yes	4.0	-14.907029478458	1.571	244.504		GetAnswer	Mixed
43.0	2	244.521	0.017	792.066	-9.0	-9.0	21.6687	4.0	70.0	0.3	Certain	-1.3	-16.21	2775.75	Yes		-14.907029478458				ShowChoice	Mixed
43.0	2	248.533	0.012	796.078	-9.0	-9.0	21.6687	1.0	70.0	0.3	Certain	-1.3	-16.21	2775.75	Yes		-14.907029478458				ShowResult	Mixed
43.0	2	249.553	0.02	797.098	-9.0	-9.0	21.6687	4.596	70.0	0.3	Certain	-1.3	-16.21	2775.75	Yes		-14.907029478458				ISITrial	Mixed
43.0	2	256.958	0.015	804.503	-9.0	-9.0	21.6687	0.866	70.0	0.3	Certain	-1.3	-16.21	2775.75	Yes		-14.907029478458			468.0	TrialHappiness	Mixed
43.0	2	260.97	4.012	808.515	-9.0	-9.0	21.6687	3.103	70.0	0.3	Certain	-1.3	-16.21	2775.75	Yes		-14.907029478458				ISIRate	Mixed
44.0	2	264.096	0.023	811.641	1.92	1.0	21.9087	3.0	70.0	3.16	Outcome2	-0.38	1.92	0.0	No	2.0	2.30102040816327	1.159	265.255		GetAnswer	Gain
44.0	2	265.267	0.011	812.812	1.92	1.0	21.9087	4.0	70.0	3.16	Outcome2	-0.38	1.92	0.0	No		2.30102040816327				ShowChoice	Gain
44.0	2	269.279	0.012	816.824	1.92	1.0	21.9087	1.0	70.0	3.16	Outcome2	-0.38	1.92	0.0	No		2.30102040816327				ShowResult	Gain
44.0	2	270.298	0.019	817.843	1.92	1.0	21.9087	2.42	70.0	3.16	Outcome2	-0.38	1.92	0.0	No		2.30102040816327				ISITrial	Gain
45.0	2	272.739	0.021	820.284	-10.33	-2.0	20.6175	3.0	70.0	2.22	Outcome2	5.1	-10.33	0.0	No	2.0	-15.4285714285714	1.273	274.012		GetAnswer	Gain
45.0	2	274.026	0.014	821.571	-10.33	-2.0	20.6175	4.0	70.0	2.22	Outcome2	5.1	-10.33	0.0	No		-15.4285714285714				ShowChoice	Gain
45.0	2	278.038	0.012	825.583	-10.33	-2.0	20.6175	1.0	70.0	2.22	Outcome2	5.1	-10.33	0.0	No		-15.4285714285714				ShowResult	Gain
45.0	2	279.058	0.02	826.603	-10.33	-2.0	20.6175	3.144	70.0	2.22	Outcome2	5.1	-10.33	0.0	No		-15.4285714285714				ISITrial	Gain
46.0	2	282.217	0.015	829.762	-3.98	-1.99	20.12	3.0	70.0	3.6	Outcome2	11.9	-3.98	3841.25	Yes	2.0	-15.879818594104302	1.328	283.545		GetAnswer	Loss
46.0	2	283.571	0.026	831.116	-3.98	-1.99	20.12	4.0	70.0	3.6	Outcome2	11.9	-3.98	3841.25	Yes		-15.879818594104302				ShowChoice	Loss
46.0	2	287.583	0.012	835.128	-3.98	-1.99	20.12	1.0	70.0	3.6	Outcome2	11.9	-3.98	3841.25	Yes		-15.879818594104302				ShowResult	Loss
46.0	2	288.603	0.02	836.148	-3.98	-1.99	20.12	2.246	70.0	3.6	Outcome2	11.9	-3.98	3841.25	Yes		-15.879818594104302				ISITrial	Loss
46.0	2	294.721	0.02	842.266	-3.98	-1.99	20.12	1.278	70.0	3.6	Outcome2	11.9	-3.98	3841.25	Yes		-15.879818594104302			416.0	TrialHappiness	Loss
46.0	2	298.733	4.012	846.278	-3.98	-1.99	20.12	7.365	70.0	3.6	Outcome2	11.9	-3.98	3841.25	Yes		-15.879818594104302				ISIRate	Loss
47.0	2	306.122	0.024	853.667	-8.75	-1.0	19.0262	3.0	70.0	1.82	Outcome1	-8.75	6.7	0.0	No	2.0	-15.4467120181406	1.336	307.458		GetAnswer	Gain
47.0	2	307.476	0.018	855.021	-8.75	-1.0	19.0262	4.0	70.0	1.82	Outcome1	-8.75	6.7	0.0	No		-15.4467120181406				ShowChoice	Gain
47.0	2	311.488	0.012	859.033	-8.75	-1.0	19.0262	1.0	70.0	1.82	Outcome1	-8.75	6.7	0.0	No		-15.4467120181406				ShowResult	Gain
47.0	2	312.508	0.02	860.053	-8.75	-1.0	19.0262	2.0	70.0	1.82	Outcome1	-8.75	6.7	0.0	No		-15.4467120181406				ISITrial	Gain
48.0	2	314.531	0.023	862.076	0.0	0.0	19.0262	3.0	70.0	2.48	Certain	7.3	-8.54	2831.75	Yes	4.0	-15.8390022675737	1.531	316.062		GetAnswer	Gain
48.0	2	316.085	0.023	863.63	0.0	0.0	19.0262	4.0	70.0	2.48	Certain	7.3	-8.54	2831.75	Yes		-15.8390022675737				ShowChoice	Gain
48.0	2	320.097	0.012	867.642	0.0	0.0	19.0262	1.0	70.0	2.48	Certain	7.3	-8.54	2831.75	Yes		-15.8390022675737				ShowResult	Gain
48.0	2	321.117	0.02	868.662	0.0	0.0	19.0262	3.692	70.0	2.48	Certain	7.3	-8.54	2831.75	Yes		-15.8390022675737				ISITrial	Gain
48.0	2	327.687	0.027	875.232	0.0	0.0	19.0262	1.912	70.0	2.48	Certain	7.3	-8.54	2831.75	Yes		-15.8390022675737			424.0	TrialHappiness	Gain
48.0	2	331.699	4.012	879.244	0.0	0.0	19.0262	3.327	70.0	2.48	Certain	7.3	-8.54	2831.75	Yes		-15.8390022675737				ISIRate	Gain
49.0	2	335.042	0.016	882.587	2.0	2.0	19.2762	3.0	70.0	4.2	Certain	-6.27	10.1	0.0	No	4.0	-16.367346938775498	2.154	337.196		GetAnswer	Gain
49.0	2	337.215	0.019	884.76	2.0	2.0	19.2762	4.0	70.0	4.2	Certain	-6.27	10.1	0.0	No		-16.367346938775498				ShowChoice	Gain
49.0	2	341.227	0.012	888.772	2.0	2.0	19.2762	1.0	70.0	4.2	Certain	-6.27	10.1	0.0	No		-16.367346938775498				ShowResult	Gain
49.0	2	342.247	0.02	889.792	2.0	2.0	19.2762	8.0	70.0	4.2	Certain	-6.27	10.1	0.0	No		-16.367346938775498				ISITrial	Gain
50.0	2	350.271	0.024	897.816	-1.0	-1.0	19.1512	3.0	70.0	2.0	Certain	-9.87	6.9	3547.25	Yes	4.0	-16.7687074829932	1.535	351.806		GetAnswer	Gain
50.0	2	351.825	0.019	899.37	-1.0	-1.0	19.1512	4.0	70.0	2.0	Certain	-9.87	6.9	3547.25	Yes		-16.7687074829932				ShowChoice	Gain
50.0	2	355.837	0.012	903.382	-1.0	-1.0	19.1512	1.0	70.0	2.0	Certain	-9.87	6.9	3547.25	Yes		-16.7687074829932				ShowResult	Gain
50.0	2	356.857	0.02	904.402	-1.0	-1.0	19.1512	7.537	70.0	2.0	Certain	-9.87	6.9	3547.25	Yes		-16.7687074829932				ISITrial	Gain
50.0	2	367.974	0.014	915.519	-1.0	-1.0	19.1512	1.411	70.0	2.0	Certain	-9.87	6.9	3547.25	Yes		-16.7687074829932			432.0	TrialHappiness	Gain
50.0	2	371.986	4.012	919.531	-1.0	-1.0	19.1512	6.189	70.0	2.0	Certain	-9.87	6.9	3547.25	Yes		-16.7687074829932				ISIRate	Gain
51.0	2	378.204	0.029	925.749	-5.01	-2.5	18.5249	3.0	70.0	5.0	Outcome2	12.3	-5.01	0.0	No	2.0	-17.3061224489796	1.653	379.857		GetAnswer	Loss
51.0	2	379.876	0.019	927.421	-5.01	-2.5	18.5249	4.0	70.0	5.0	Outcome2	12.3	-5.01	0.0	No		-17.3061224489796				ShowChoice	Loss
51.0	2	383.888	0.012	931.433	-5.01	-2.5	18.5249	1.0	70.0	5.0	Outcome2	12.3	-5.01	0.0	No		-17.3061224489796				ShowResult	Loss
51.0	2	384.908	0.02	932.453	-5.01	-2.5	18.5249	5.508	70.0	5.0	Outcome2	12.3	-5.01	0.0	No		-17.3061224489796				ISITrial	Loss
52.0	2	390.441	0.025	937.986	-5.22	-2.61	17.8724	3.0	70.0	1.68	Outcome2	12.5	-5.22	0.0	No	2.0	-17.7165532879819	2.107	392.548		GetAnswer	Loss
52.0	2	392.564	0.016	940.109	-5.22	-2.61	17.8724	4.0	70.0	1.68	Outcome2	12.5	-5.22	0.0	No		-17.7165532879819				ShowChoice	Loss
52.0	2	396.576	0.012	944.121	-5.22	-2.61	17.8724	1.0	70.0	1.68	Outcome2	12.5	-5.22	0.0	No		-17.7165532879819				ShowResult	Loss
52.0	2	397.596	0.02	945.141	-5.22	-2.61	17.8724	5.913	70.0	1.68	Outcome2	12.5	-5.22	0.0	No		-17.7165532879819				ISITrial	Loss
53.0	2	403.53	0.021	951.075	-6.0	-6.0	17.1224	3.0	70.0	0.4	Certain	2.9	-15.23	2996.75	Yes	4.0	-18.1269841269841	2.116	405.646		GetAnswer	Mixed
53.0	2	405.67	0.024	953.215	-6.0	-6.0	17.1224	4.0	70.0	0.4	Certain	2.9	-15.23	2996.75	Yes		-18.1269841269841				ShowChoice	Mixed
53.0	2	409.682	0.012	957.227	-6.0	-6.0	17.1224	1.0	70.0	0.4	Certain	2.9	-15.23	2996.75	Yes		-18.1269841269841				ShowResult	Mixed
53.0	2	410.701	0.019	958.246	-6.0	-6.0	17.1224	3.66	70.0	0.4	Certain	2.9	-15.23	2996.75	Yes		-18.1269841269841				ISITrial	Mixed
53.0	2	417.405	0.029	964.95	-6.0	-6.0	17.1224	0.724	70.0	0.4	Certain	2.9	-15.23	2996.75	Yes	4{-4}	-18.1269841269841	0.724	418.129	384.0	TrialHappiness	Mixed
53.0	2	421.417	4.012	968.962	-6.0	-6.0	17.1224	3.987	70.0	0.4	Certain	2.9	-15.23	2996.75	Yes		-18.1269841269841				ISIRate	Mixed
54.0	2	425.429	0.025	972.974	0.0	0.0	17.1224	3.0	70.0	2.0	Certain	0.57	-1.74	0.0	No	4.0	2.3074452003023396	1.414	426.843		GetAnswer	Mixed
54.0	2	426.866	0.023	974.411	0.0	0.0	17.1224	4.0	70.0	2.0	Certain	0.57	-1.74	0.0	No		2.3074452003023396				ShowChoice	Mixed
54.0	2	430.878	0.012	978.423	0.0	0.0	17.1224	1.0	70.0	2.0	Certain	0.57	-1.74	0.0	No		2.3074452003023396				ShowResult	Mixed
54.0	2	431.898	0.02	979.443	0.0	0.0	17.1224	8.0	70.0	2.0	Certain	0.57	-1.74	0.0	No		2.3074452003023396				ISITrial	Mixed
	2	439.922	0.024	987.467				-0.001								{SPACE}		92.357	532.279		Rest	
	2	532.298	0.019	1079.843				4.0													BlockHappyPreview	
	2	536.31	0.012	1083.855				1.412												416.0	BlockStartHappiness	
	2	542.462	0.023	1090.007				-0.001								5.0		2.107	544.569		ScanWait	
	3	0.016	0.016	1092.13				10.0													GetReady	
55.0	3	10.029	0.013	1102.143	8.1	-0.53	18.1349	3.0	955.0	4.2	Outcome1	8.1	-1.06	2533.25	Yes	2.0	9.156285390713482	1.569	11.598		GetAnswer	Gain
55.0	3	11.617	0.019	1103.731	8.1	-0.53	18.1349	4.0	955.0	4.2	Outcome1	8.1	-1.06	2533.25	Yes		9.156285390713482				ShowChoice	Gain
55.0	3	15.629	0.012	1107.743	8.1	-0.53	18.1349	1.0	955.0	4.2	Outcome1	8.1	-1.06	2533.25	Yes		9.156285390713482				ShowResult	Gain
55.0	3	16.649	0.02	1108.763	8.1	-0.53	18.1349	7.709	955.0	4.2	Outcome1	8.1	-1.06	2533.25	Yes		9.156285390713482				ISITrial	Gain
55.0	3	26.93	0.025	1119.044	8.1	-0.53	18.1349	0.626	955.0	4.2	Outcome1	8.1	-1.06	2533.25	Yes	4{-4}	9.156285390713482	0.626	27.556	488.0	TrialHappiness	Gain
55.0	3	30.942	4.012	1123.056	8.1	-0.53	18.1349	2.133	955.0	4.2	Outcome1	8.1	-1.06	2533.25	Yes		9.156285390713482				ISIRate	Gain
56.0	3	33.098	0.023	1125.212	3.3	-1.0	18.5474	3.0	955.0	0.66	Outcome2	-5.24	3.3	0.0	No	2.0	8.5436013590034	1.647	34.745		GetAnswer	Mixed
56.0	3	34.77	0.025	1126.884	3.3	-1.0	18.5474	4.0	955.0	0.66	Outcome2	-5.24	3.3	0.0	No		8.5436013590034				ShowChoice	Mixed
56.0	3	38.782	0.012	1130.896	3.3	-1.0	18.5474	1.0	955.0	0.66	Outcome2	-5.24	3.3	0.0	No		8.5436013590034				ShowResult	Mixed
56.0	3	39.802	0.02	1131.916	3.3	-1.0	18.5474	4.697	955.0	0.66	Outcome2	-5.24	3.3	0.0	No		8.5436013590034				ISITrial	Mixed
57.0	3	44.516	0.017	1136.63	-6.0	-6.0	17.7974	3.0	955.0	0.2	Certain	-1.5	-10.57	0.0	No	4.0	9.072480181200449	1.49	46.006		GetAnswer	Mixed
57.0	3	46.02	0.014	1138.134	-6.0	-6.0	17.7974	4.0	955.0	0.2	Certain	-1.5	-10.57	0.0	No		9.072480181200449				ShowChoice	Mixed
57.0	3	50.032	0.012	1142.146	-6.0	-6.0	17.7974	1.0	955.0	0.2	Certain	-1.5	-10.57	0.0	No		9.072480181200449				ShowResult	Mixed
57.0	3	51.052	0.02	1143.166	-6.0	-6.0	17.7974	4.291	955.0	0.2	Certain	-1.5	-10.57	0.0	No		9.072480181200449				ISITrial	Mixed
58.0	3	55.365	0.022	1147.479	1.5	-3.0	17.9849	3.0	955.0	0.82	Outcome1	1.5	-8.1	3045.75	Yes	2.0	9.60135900339751	1.636	57.001		GetAnswer	Mixed
58.0	3	57.02	0.019	1149.134	1.5	-3.0	17.9849	4.0	955.0	0.82	Outcome1	1.5	-8.1	3045.75	Yes		9.60135900339751				ShowChoice	Mixed
58.0	3	61.032	0.012	1153.146	1.5	-3.0	17.9849	1.0	955.0	0.82	Outcome1	1.5	-8.1	3045.75	Yes		9.60135900339751				ShowResult	Mixed
58.0	3	62.052	0.02	1154.166	1.5	-3.0	17.9849	2.037	955.0	0.82	Outcome1	1.5	-8.1	3045.75	Yes		9.60135900339751				ISITrial	Mixed
58.0	3	67.184	0.03	1159.298	1.5	-3.0	17.9849	0.959	955.0	0.82	Outcome1	1.5	-8.1	3045.75	Yes		9.60135900339751			488.0	TrialHappiness	Mixed
58.0	3	71.196	4.012	1163.31	1.5	-3.0	17.9849	4.183	955.0	0.82	Outcome1	1.5	-8.1	3045.75	Yes		9.60135900339751				ISIRate	Mixed
59.0	3	75.408	0.029	1167.522	12.9	1.38	19.5974	3.0	955.0	2.0	Outcome2	2.77	12.9	0.0	No	2.0	10.1302378255946	0.953	76.361		GetAnswer	Loss
59.0	3	76.378	0.017	1168.492	12.9	1.38	19.5974	4.0	955.0	2.0	Outcome2	2.77	12.9	0.0	No		10.1302378255946				ShowChoice	Loss
59.0	3	80.406	0.028	1172.52	12.9	1.38	19.5974	1.0	955.0	2.0	Outcome2	2.77	12.9	0.0	No		10.1302378255946				ShowResult	Loss
59.0	3	81.426	0.02	1173.54	12.9	1.38	19.5974	5.064	955.0	2.0	Outcome2	2.77	12.9	0.0	No		10.1302378255946				ISITrial	Loss
60.0	3	86.508	0.018	1178.622	12.1	0.72	21.1099	3.0	955.0	4.2	Outcome1	12.1	1.44	3562.5	Yes	2.0	10.659116647791599	1.005	87.513		GetAnswer	Loss
60.0	3	87.528	0.015	1179.642	12.1	0.72	21.1099	4.0	955.0	4.2	Outcome1	12.1	1.44	3562.5	Yes		10.659116647791599				ShowChoice	Loss
60.0	3	91.54	0.012	1183.654	12.1	0.72	21.1099	1.0	955.0	4.2	Outcome1	12.1	1.44	3562.5	Yes		10.659116647791599				ShowResult	Loss
60.0	3	92.559	0.019	1184.673	12.1	0.72	21.1099	8.0	955.0	4.2	Outcome1	12.1	1.44	3562.5	Yes		10.659116647791599				ISITrial	Loss
60.0	3	104.161	0.016	1196.275	12.1	0.72	21.1099	1.078	955.0	4.2	Outcome1	12.1	1.44	3562.5	Yes		10.659116647791599			532.0	TrialHappiness	Loss
60.0	3	108.173	4.012	1200.287	12.1	0.72	21.1099	6.25	955.0	4.2	Outcome1	12.1	1.44	3562.5	Yes		10.659116647791599				ISIRate	Loss
61.0	3	114.442	0.019	1206.556	6.51	3.26	21.9237	3.0	955.0	1.68	Outcome2	8.5	6.51	0.0	No	2.0	-1.98782559456399	1.053	115.495		GetAnswer	Gain
61.0	3	115.511	0.016	1207.625	6.51	3.26	21.9237	4.0	955.0	1.68	Outcome2	8.5	6.51	0.0	No		-1.98782559456399				ShowChoice	Gain
61.0	3	119.523	0.012	1211.637	6.51	3.26	21.9237	1.0	955.0	1.68	Outcome2	8.5	6.51	0.0	No		-1.98782559456399				ShowResult	Gain
61.0	3	120.543	0.02	1212.657	6.51	3.26	21.9237	4.586	955.0	1.68	Outcome2	8.5	6.51	0.0	No		-1.98782559456399				ISITrial	Gain
62.0	3	125.157	0.028	1217.271	1.7	-4.0	22.1362	3.0	955.0	1.0	Outcome1	1.7	-9.22	3748.75	Yes	2.0	10.919592298980698	1.622	126.779		GetAnswer	Mixed
62.0	3	126.795	0.016	1218.909	1.7	-4.0	22.1362	4.0	955.0	1.0	Outcome1	1.7	-9.22	3748.75	Yes		10.919592298980698				ShowChoice	Mixed
62.0	3	130.807	0.012	1222.921	1.7	-4.0	22.1362	1.0	955.0	1.0	Outcome1	1.7	-9.22	3748.75	Yes		10.919592298980698				ShowResult	Mixed
62.0	3	131.827	0.02	1223.941	1.7	-4.0	22.1362	5.212	955.0	1.0	Outcome1	1.7	-9.22	3748.75	Yes		10.919592298980698				ISITrial	Mixed
62.0	3	140.837	0.029	1232.951	1.7	-4.0	22.1362	1.351	955.0	1.0	Outcome1	1.7	-9.22	3748.75	Yes		10.919592298980698			544.0	TrialHappiness	Mixed
62.0	3	144.849	4.012	1236.963	1.7	-4.0	22.1362	6.995	955.0	1.0	Outcome1	1.7	-9.22	3748.75	Yes		10.919592298980698				ISIRate	Mixed
63.0	3	151.87	0.026	1243.984	3.68	1.84	22.5962	3.0	955.0	3.16	Outcome1	3.68	5.7	0.0	No	2.0	-2.01896942242356	0.88	152.75		GetAnswer	Gain
63.0	3	152.773	0.023	1244.887	3.68	1.84	22.5962	4.0	955.0	3.16	Outcome1	3.68	5.7	0.0	No		-2.01896942242356				ShowChoice	Gain
63.0	3	156.785	0.012	1248.899	3.68	1.84	22.5962	1.0	955.0	3.16	Outcome1	3.68	5.7	0.0	No		-2.01896942242356				ShowResult	Gain
63.0	3	157.805	0.02	1249.919	3.68	1.84	22.5962	5.595	955.0	3.16	Outcome1	3.68	5.7	0.0	No		-2.01896942242356				ISITrial	Gain
64.0	3	163.421	0.021	1255.535	9.7	-0.98	23.8087	3.0	955.0	3.16	Outcome2	-1.96	9.7	0.0	No	2.0	11.6602491506229	1.578	164.999		GetAnswer	Gain
64.0	3	165.026	0.027	1257.14	9.7	-0.98	23.8087	4.0	955.0	3.16	Outcome2	-1.96	9.7	0.0	No		11.6602491506229				ShowChoice	Gain
64.0	3	169.038	0.012	1261.152	9.7	-0.98	23.8087	1.0	955.0	3.16	Outcome2	-1.96	9.7	0.0	No		11.6602491506229				ShowResult	Gain
64.0	3	170.058	0.02	1262.172	9.7	-0.98	23.8087	5.47	955.0	3.16	Outcome2	-1.96	9.7	0.0	No		11.6602491506229				ISITrial	Gain
65.0	3	175.558	0.03	1267.672	4.4	2.2	24.3587	3.0	955.0	1.68	Outcome2	6.5	4.4	2996.75	Yes	2.0	-2.0965458663646697	1.178	176.736		GetAnswer	Gain
65.0	3	176.761	0.025	1268.875	4.4	2.2	24.3587	4.0	955.0	1.68	Outcome2	6.5	4.4	2996.75	Yes		-2.0965458663646697				ShowChoice	Gain
65.0	3	180.773	0.012	1272.887	4.4	2.2	24.3587	1.0	955.0	1.68	Outcome2	6.5	4.4	2996.75	Yes		-2.0965458663646697				ShowResult	Gain
65.0	3	181.793	0.02	1273.907	4.4	2.2	24.3587	3.344	955.0	1.68	Outcome2	6.5	4.4	2996.75	Yes		-2.0965458663646697				ISITrial	Gain
65.0	3	188.179	0.029	1280.293	4.4	2.2	24.3587	0.541	955.0	1.68	Outcome2	6.5	4.4	2996.75	Yes		-2.0965458663646697			552.0	TrialHappiness	Gain
65.0	3	192.191	4.012	1284.305	4.4	2.2	24.3587	3.987	955.0	1.68	Outcome2	6.5	4.4	2996.75	Yes		-2.0965458663646697				ISIRate	Gain
66.0	3	196.203	0.025	1288.317	0.0	0.0	24.3587	3.0	955.0	2.8	Certain	5.5	-6.96	0.0	No	4.0	12.4552661381653	1.431	197.634		GetAnswer	Gain
66.0	3	197.657	0.023	1289.771	0.0	0.0	24.3587	4.0	955.0	2.8	Certain	5.5	-6.96	0.0	No		12.4552661381653				ShowChoice	Gain
66.0	3	201.686	0.029	1293.8	0.0	0.0	24.3587	1.0	955.0	2.8	Certain	5.5	-6.96	0.0	No		12.4552661381653				ShowResult	Gain
66.0	3	202.705	0.019	1294.819	0.0	0.0	24.3587	3.959	955.0	2.8	Certain	5.5	-6.96	0.0	No		12.4552661381653				ISITrial	Gain
67.0	3	206.684	0.02	1298.798	-2.0	-2.0	24.1087	3.0	955.0	1.68	Certain	-8.41	4.5	2918.5	Yes	4.0	12.911664779161901	1.781	208.465		GetAnswer	Gain
67.0	3	208.489	0.024	1300.603	-2.0	-2.0	24.1087	4.0	955.0	1.68	Certain	-8.41	4.5	2918.5	Yes		12.911664779161901				ShowChoice	Gain
67.0	3	212.501	0.012	1304.615	-2.0	-2.0	24.1087	1.0	955.0	1.68	Certain	-8.41	4.5	2918.5	Yes		12.911664779161901				ShowResult	Gain
67.0	3	213.521	0.02	1305.635	-2.0	-2.0	24.1087	4.199	955.0	1.68	Certain	-8.41	4.5	2918.5	Yes		12.911664779161901				ISITrial	Gain
67.0	3	220.676	0.024	1312.79	-2.0	-2.0	24.1087	0.0	955.0	1.68	Certain	-8.41	4.5	2918.5	Yes		12.911664779161901			512.0	TrialHappiness	Gain
67.0	3	224.688	4.012	1316.802	-2.0	-2.0	24.1087	3.674	955.0	1.68	Certain	-8.41	4.5	2918.5	Yes		12.911664779161901				ISIRate	Gain
68.0	3	228.382	0.02	1320.496	-4.0	-4.0	23.6087	3.0	955.0	0.2	Certain	-11.55	2.5	0.0	No	4.0	14.047565118912802	2.176	230.558		GetAnswer	Mixed
68.0	3	230.572	0.014	1322.686	-4.0	-4.0	23.6087	4.0	955.0	0.2	Certain	-11.55	2.5	0.0	No		14.047565118912802				ShowChoice	Mixed
68.0	3	234.584	0.012	1326.698	-4.0	-4.0	23.6087	1.0	955.0	0.2	Certain	-11.55	2.5	0.0	No		14.047565118912802				ShowResult	Mixed
68.0	3	235.604	0.02	1327.718	-4.0	-4.0	23.6087	2.185	955.0	0.2	Certain	-11.55	2.5	0.0	No		14.047565118912802				ISITrial	Mixed
69.0	3	237.81	0.021	1329.924	1.12	2.0	23.7487	3.0	955.0	0.82	Outcome1	1.12	3.5	0.0	No	2.0	-2.38306908267271	0.842	238.652		GetAnswer	Mixed
69.0	3	238.68	0.028	1330.794	1.12	2.0	23.7487	4.0	955.0	0.82	Outcome1	1.12	3.5	0.0	No		-2.38306908267271				ShowChoice	Mixed
69.0	3	242.692	0.012	1334.806	1.12	2.0	23.7487	1.0	955.0	0.82	Outcome1	1.12	3.5	0.0	No		-2.38306908267271				ShowResult	Mixed
69.0	3	243.711	0.019	1335.825	1.12	2.0	23.7487	2.0	955.0	0.82	Outcome1	1.12	3.5	0.0	No		-2.38306908267271				ISITrial	Mixed
70.0	3	245.734	0.023	1337.848	-7.0	-7.0	22.8737	3.0	955.0	1.2	Certain	-15.15	-0.1	3651.25	Yes	4.0	15.0509626274066	1.101	246.835		GetAnswer	Mixed
70.0	3	246.854	0.019	1338.968	-7.0	-7.0	22.8737	4.0	955.0	1.2	Certain	-15.15	-0.1	3651.25	Yes		15.0509626274066				ShowChoice	Mixed
70.0	3	250.866	0.012	1342.98	-7.0	-7.0	22.8737	1.0	955.0	1.2	Certain	-15.15	-0.1	3651.25	Yes		15.0509626274066				ShowResult	Mixed
70.0	3	251.886	0.02	1344.0	-7.0	-7.0	22.8737	2.623	955.0	1.2	Certain	-15.15	-0.1	3651.25	Yes		15.0509626274066				ISITrial	Mixed
70.0	3	258.205	0.027	1350.319	-7.0	-7.0	22.8737	0.725	955.0	1.2	Certain	-15.15	-0.1	3651.25	Yes		15.0509626274066			496.0	TrialHappiness	Mixed
70.0	3	262.217	4.012	1354.331	-7.0	-7.0	22.8737	6.605	955.0	1.2	Certain	-15.15	-0.1	3651.25	Yes		15.0509626274066				ISIRate	Mixed
71.0	3	268.853	0.031	1360.967	8.37	4.18	23.92	3.0	955.0	2.0	Outcome2	10.9	8.37	0.0	No	2.0	-2.5316157040392597	0.876	269.729		GetAnswer	Loss
71.0	3	269.756	0.027	1361.87	8.37	4.18	23.92	4.0	955.0	2.0	Outcome2	10.9	8.37	0.0	No		-2.5316157040392597				ShowChoice	Loss
71.0	3	273.768	0.012	1365.882	8.37	4.18	23.92	1.0	955.0	2.0	Outcome2	10.9	8.37	0.0	No		-2.5316157040392597				ShowResult	Loss
71.0	3	274.788	0.02	1366.902	8.37	4.18	23.92	5.499	955.0	2.0	Outcome2	10.9	8.37	0.0	No		-2.5316157040392597				ISITrial	Loss
72.0	3	280.304	0.017	1372.418	8.3	0.0	24.9575	3.0	955.0	5.0	Outcome2	-8.04	8.3	3080.5	Yes	2.0	16.3442808607021	1.342	281.646		GetAnswer	Gain
72.0	3	281.658	0.012	1373.772	8.3	0.0	24.9575	4.0	955.0	5.0	Outcome2	-8.04	8.3	3080.5	Yes		16.3442808607021				ShowChoice	Gain
72.0	3	285.67	0.012	1377.784	8.3	0.0	24.9575	1.0	955.0	5.0	Outcome2	-8.04	8.3	3080.5	Yes		16.3442808607021				ShowResult	Gain
72.0	3	286.69	0.02	1378.804	8.3	0.0	24.9575	5.672	955.0	5.0	Outcome2	-8.04	8.3	3080.5	Yes		16.3442808607021				ISITrial	Gain
72.0	3	295.483	0.029	1387.597	8.3	0.0	24.9575	0.0	955.0	5.0	Outcome2	-8.04	8.3	3080.5	Yes		16.3442808607021			512.0	TrialHappiness	Gain
72.0	3	299.495	4.012	1391.609	8.3	0.0	24.9575	4.322	955.0	5.0	Outcome2	-8.04	8.3	3080.5	Yes		16.3442808607021				ISIRate	Gain
73.0	3	303.841	0.024	1395.955	11.1	-2.74	26.345	3.0	955.0	2.22	Outcome2	-5.49	11.1	0.0	No	2.0	16.5922989807475	2.113	305.954		GetAnswer	Loss
73.0	3	305.981	0.027	1398.095	11.1	-2.74	26.345	4.0	955.0	2.22	Outcome2	-5.49	11.1	0.0	No		16.5922989807475				ShowChoice	Loss
73.0	3	309.993	0.012	1402.107	11.1	-2.74	26.345	1.0	955.0	2.22	Outcome2	-5.49	11.1	0.0	No		16.5922989807475				ShowResult	Loss
73.0	3	311.013	0.02	1403.127	11.1	-2.74	26.345	4.616	955.0	2.22	Outcome2	-5.49	11.1	0.0	No		16.5922989807475				ISITrial	Loss
74.0	3	315.66	0.031	1407.774	-6.0	-6.0	25.595	3.0	955.0	1.5	Certain	2.1	-14.99	3056.25	Yes	4.0	17.093997734994304	1.39	317.05		GetAnswer	Mixed
74.0	3	317.064	0.014	1409.178	-6.0	-6.0	25.595	4.0	955.0	1.5	Certain	2.1	-14.99	3056.25	Yes		17.093997734994304				ShowChoice	Mixed
74.0	3	321.076	0.012	1413.19	-6.0	-6.0	25.595	1.0	955.0	1.5	Certain	2.1	-14.99	3056.25	Yes		17.093997734994304				ShowResult	Mixed
74.0	3	322.096	0.02	1414.21	-6.0	-6.0	25.595	3.909	955.0	1.5	Certain	2.1	-14.99	3056.25	Yes		17.093997734994304				ISITrial	Mixed
74.0	3	329.1	0.02	1421.214	-6.0	-6.0	25.595	1.919	955.0	1.5	Certain	2.1	-14.99	3056.25	Yes		17.093997734994304			484.0	TrialHappiness	Mixed
74.0	3	333.112	4.012	1425.226	-6.0	-6.0	25.595	4.225	955.0	1.5	Certain	2.1	-14.99	3056.25	Yes		17.093997734994304				ISIRate	Mixed
75.0	3	337.358	0.021	1429.472	-2.0	-2.0	25.345	3.0	955.0	0.66	Certain	-3.45	-0.7	0.0	No	4.0	-2.75056625141563	2.053	339.411		GetAnswer	Mixed
75.0	3	339.431	0.02	1431.545	-2.0	-2.0	25.345	4.0	955.0	0.66	Certain	-3.45	-0.7	0.0	No		-2.75056625141563				ShowChoice	Mixed
75.0	3	343.443	0.012	1435.557	-2.0	-2.0	25.345	1.0	955.0	0.66	Certain	-3.45	-0.7	0.0	No		-2.75056625141563				ShowResult	Mixed
75.0	3	344.463	0.02	1436.577	-2.0	-2.0	25.345	4.979	955.0	0.66	Certain	-3.45	-0.7	0.0	No		-2.75056625141563				ISITrial	Mixed
76.0	3	349.461	0.019	1441.575	10.5	5.25	26.6575	3.0	955.0	2.48	Outcome2	13.3	10.5	0.0	No	2.0	-2.79501698754247	1.021	350.482		GetAnswer	Loss
76.0	3	350.497	0.015	1442.611	10.5	5.25	26.6575	4.0	955.0	2.48	Outcome2	13.3	10.5	0.0	No		-2.79501698754247				ShowChoice	Loss
76.0	3	354.509	0.012	1446.623	10.5	5.25	26.6575	1.0	955.0	2.48	Outcome2	13.3	10.5	0.0	No		-2.79501698754247				ShowResult	Loss
76.0	3	355.529	0.02	1447.643	10.5	5.25	26.6575	3.931	955.0	2.48	Outcome2	13.3	10.5	0.0	No		-2.79501698754247				ISITrial	Loss
77.0	3	359.491	0.031	1451.605	0.86	2.0	26.765	3.0	955.0	1.0	Outcome1	0.86	3.7	4000.0	Yes	2.0	-2.83946772366931	0.95	360.441		GetAnswer	Mixed
77.0	3	360.46	0.019	1452.574	0.86	2.0	26.765	4.0	955.0	1.0	Outcome1	0.86	3.7	4000.0	Yes		-2.83946772366931				ShowChoice	Mixed
77.0	3	364.472	0.012	1456.586	0.86	2.0	26.765	1.0	955.0	1.0	Outcome1	0.86	3.7	4000.0	Yes		-2.83946772366931				ShowResult	Mixed
77.0	3	365.492	0.02	1457.606	0.86	2.0	26.765	7.022	955.0	1.0	Outcome1	0.86	3.7	4000.0	Yes		-2.83946772366931				ISITrial	Mixed
77.0	3	376.559	0.029	1468.673	0.86	2.0	26.765	0.0	955.0	1.0	Outcome1	0.86	3.7	4000.0	Yes		-2.83946772366931			512.0	TrialHappiness	Mixed
77.0	3	380.571	4.012	1472.685	0.86	2.0	26.765	8.0	955.0	1.0	Outcome1	0.86	3.7	4000.0	Yes		-2.83946772366931				ISIRate	Mixed
78.0	3	388.595	0.024	1480.709	13.7	-2.75	28.4775	3.0	955.0	3.16	Outcome1	13.7	-5.5	0.0	No	2.0	19.1959229898075	1.358	389.953		GetAnswer	Loss
78.0	3	389.965	0.012	1482.079	13.7	-2.75	28.4775	4.0	955.0	3.16	Outcome1	13.7	-5.5	0.0	No		19.1959229898075				ShowChoice	Loss
78.0	3	393.977	0.012	1486.091	13.7	-2.75	28.4775	1.0	955.0	3.16	Outcome1	13.7	-5.5	0.0	No		19.1959229898075				ShowResult	Loss
78.0	3	394.997	0.02	1487.111	13.7	-2.75	28.4775	2.078	955.0	3.16	Outcome1	13.7	-5.5	0.0	No		19.1959229898075				ISITrial	Loss
79.0	3	397.103	0.028	1489.217	-9.0	-9.0	27.3525	3.0	955.0	0.52	Certain	-18.6	1.1	2729.5	Yes	4.0	19.6976217440544	1.194	398.297		GetAnswer	Mixed
79.0	3	398.324	0.027	1490.438	-9.0	-9.0	27.3525	4.0	955.0	0.52	Certain	-18.6	1.1	2729.5	Yes		19.6976217440544				ShowChoice	Mixed
79.0	3	402.336	0.012	1494.45	-9.0	-9.0	27.3525	1.0	955.0	0.52	Certain	-18.6	1.1	2729.5	Yes		19.6976217440544				ShowResult	Mixed
79.0	3	403.355	0.019	1495.469	-9.0	-9.0	27.3525	3.829	955.0	0.52	Certain	-18.6	1.1	2729.5	Yes		19.6976217440544				ISITrial	Mixed
79.0	3	409.958	0.028	1502.072	-9.0	-9.0	27.3525	0.0	955.0	0.52	Certain	-18.6	1.1	2729.5	Yes		19.6976217440544			512.0	TrialHappiness	Mixed
79.0	3	413.97	4.012	1506.084	-9.0	-9.0	27.3525	2.918	955.0	0.52	Certain	-18.6	1.1	2729.5	Yes		19.6976217440544				ISIRate	Mixed
80.0	3	416.913	0.025	1509.027	-1.0	-1.0	27.2275	3.0	955.0	1.0	Certain	-0.3	-3.15	0.0	No	4.0	-2.85390713476784	1.489	418.402		GetAnswer	Mixed
80.0	3	418.417	0.015	1510.531	-1.0	-1.0	27.2275	4.0	955.0	1.0	Certain	-0.3	-3.15	0.0	No		-2.85390713476784				ShowChoice	Mixed
80.0	3	422.429	0.012	1514.543	-1.0	-1.0	27.2275	1.0	955.0	1.0	Certain	-0.3	-3.15	0.0	No		-2.85390713476784				ShowResult	Mixed
80.0	3	423.449	0.02	1515.563	-1.0	-1.0	27.2275	3.336	955.0	1.0	Certain	-0.3	-3.15	0.0	No		-2.85390713476784				ISITrial	Mixed
81.0	3	426.809	0.024	1518.923	5.4	2.7	27.9025	3.0	955.0	5.0	Outcome1	5.4	8.3	3923.75	Yes	2.0	-2.89571536428841	1.028	427.837		GetAnswer	Gain
81.0	3	427.862	0.025	1519.976	5.4	2.7	27.9025	4.0	955.0	5.0	Outcome1	5.4	8.3	3923.75	Yes		-2.89571536428841				ShowChoice	Gain
81.0	3	431.874	0.012	1523.988	5.4	2.7	27.9025	1.0	955.0	5.0	Outcome1	5.4	8.3	3923.75	Yes		-2.89571536428841				ShowResult	Gain
81.0	3	432.894	0.02	1525.008	5.4	2.7	27.9025	3.919	955.0	5.0	Outcome1	5.4	8.3	3923.75	Yes		-2.89571536428841				ISITrial	Gain
81.0	3	440.784	0.021	1532.898	5.4	2.7	27.9025	3.216	955.0	5.0	Outcome1	5.4	8.3	3923.75	Yes		-2.89571536428841			544.0	TrialHappiness	Gain
81.0	3	444.796	4.012	1536.91	5.4	2.7	27.9025	7.695	955.0	5.0	Outcome1	5.4	8.3	3923.75	Yes		-2.89571536428841				ISIRate	Gain
	3	452.519	0.028	1544.633				3.0													CurrentEarnings	
	3	455.545	0.026	1547.659				-0.001								{SPACE}		7.386	462.931		Goodbye	
