trial_number	block	onset	onset_delay	onset_unadjusted	amount_change	certain_amount	current_amount	duration	mood_target	multiplier	outcome	outcome1_amount	outcome2_amount	question_duration	rating	response	rpe	rt	rt_time	slider_response	trial_phase	trial_type
	0	-30.645	0.022	46.152				-0.001								{SPACE}		3.844	-26.801		Welcome	
	0	-26.767	0.034	50.03				5.0													LifeHappyPreview	
	0	-21.735	0.032	55.062				4.004												624.0	LifeHappiness	
	0	-11.956	0.029	64.841				4.0													BlockHappyPreview	
	0	-7.944	0.012	68.853				2.816												704.0	BlockStartHappiness	
	0	-1.642	0.023	75.155				-0.001								5.0					ScanWait	
	1	0.013	0.013	76.81				10.0													GetReady	
1.0	1	10.043	0.03	86.84	7.88	3.94	10.985	3.0	955.0	2.0	Outcome1	7.88	8.9	0.0	No	2.0	-1.0185919214798	1.749	11.792		GetAnswer	Gain
1.0	1	11.815	0.023	88.612	7.88	3.94	10.985	4.0	955.0	2.0	Outcome1	7.88	8.9	0.0	No		-1.0185919214798				ShowChoice	Gain
1.0	1	15.827	0.012	92.624	7.88	3.94	10.985	1.0	955.0	2.0	Outcome1	7.88	8.9	0.0	No		-1.0185919214798				ShowResult	Gain
1.0	1	16.847	0.02	93.644	7.88	3.94	10.985	2.431	955.0	2.0	Outcome1	7.88	8.9	0.0	No		-1.0185919214798				ISITrial	Gain
2.0	1	19.304	0.026	96.101	4.66	2.33	11.5675	3.0	955.0	3.16	Outcome2	5.7	4.66	0.0	No	2.0	-1.04228010570026	1.268	20.572		GetAnswer	Gain
2.0	1	20.591	0.019	97.388	4.66	2.33	11.5675	4.0	955.0	3.16	Outcome2	5.7	4.66	0.0	No		-1.04228010570026				ShowChoice	Gain
2.0	1	24.62	0.029	101.417	4.66	2.33	11.5675	1.0	955.0	3.16	Outcome2	5.7	4.66	0.0	No		-1.04228010570026				ShowResult	Gain
2.0	1	25.64	0.02	102.437	4.66	2.33	11.5675	4.568	955.0	3.16	Outcome2	5.7	4.66	0.0	No		-1.04228010570026				ISITrial	Gain
3.0	1	30.237	0.029	107.034	11.03	5.52	12.9463	3.0	955.0	4.2	Outcome1	11.03	12.1	2868.0	Yes	2.0	-1.06596828992072	1.246	31.483		GetAnswer	Loss
3.0	1	31.507	0.024	108.304	11.03	5.52	12.9463	4.0	955.0	4.2	Outcome1	11.03	12.1	2868.0	Yes		-1.06596828992072				ShowChoice	Loss
3.0	1	35.519	0.012	112.316	11.03	5.52	12.9463	1.0	955.0	4.2	Outcome1	11.03	12.1	2868.0	Yes		-1.06596828992072				ShowResult	Loss
3.0	1	36.539	0.02	113.336	11.03	5.52	12.9463	3.243	955.0	4.2	Outcome1	11.03	12.1	2868.0	Yes		-1.06596828992072				ISITrial	Loss
3.0	1	42.691	0.024	119.488	11.03	5.52	12.9463	3.216	955.0	4.2	Outcome1	11.03	12.1	2868.0	Yes	2{-2}4{-4}	-1.06596828992072	3.216	45.907	704.0	TrialHappiness	Loss
3.0	1	46.719	4.028	123.516	11.03	5.52	12.9463	3.472	955.0	4.2	Outcome1	11.03	12.1	2868.0	Yes		-1.06596828992072				ISIRate	Loss
4.0	1	50.213	0.022	127.01	0.0	0.0	12.9463	3.0	955.0	0.4	Certain	-2.22	2.9	0.0	No	4.0	5.116647791619481	1.716	51.929		GetAnswer	Mixed
4.0	1	51.952	0.023	128.749	0.0	0.0	12.9463	4.0	955.0	0.4	Certain	-2.22	2.9	0.0	No		5.116647791619481				ShowChoice	Mixed
4.0	1	55.98	0.028	132.777	0.0	0.0	12.9463	1.0	955.0	0.4	Certain	-2.22	2.9	0.0	No		5.116647791619481				ShowResult	Mixed
4.0	1	57.0	0.02	133.797	0.0	0.0	12.9463	2.011	955.0	0.4	Certain	-2.22	2.9	0.0	No		5.116647791619481				ISITrial	Mixed
5.0	1	59.04	0.029	135.837	1.5	-1.0	13.1338	3.0	955.0	0.82	Outcome2	-3.9	1.5	2582.5	Yes	2.0	5.4009060022650095	1.852	60.892		GetAnswer	Mixed
5.0	1	60.912	0.02	137.709	1.5	-1.0	13.1338	4.0	955.0	0.82	Outcome2	-3.9	1.5	2582.5	Yes		5.4009060022650095				ShowChoice	Mixed
5.0	1	64.94	0.028	141.737	1.5	-1.0	13.1338	1.0	955.0	0.82	Outcome2	-3.9	1.5	2582.5	Yes		5.4009060022650095				ShowResult	Mixed
5.0	1	65.96	0.02	142.757	1.5	-1.0	13.1338	5.129	955.0	0.82	Outcome2	-3.9	1.5	2582.5	Yes		5.4009060022650095				ISITrial	Mixed
5.0	1	73.717	0.026	150.514	1.5	-1.0	13.1338	0.992	955.0	0.82	Outcome2	-3.9	1.5	2582.5	Yes	2{-2}	5.4009060022650095	0.992	74.709	744.0	TrialHappiness	Mixed
5.0	1	77.729	4.012	154.526	1.5	-1.0	13.1338	2.33	955.0	0.82	Outcome2	-3.9	1.5	2582.5	Yes		5.4009060022650095				ISIRate	Mixed
6.0	1	80.086	0.027	156.883	-1.87	-1.0	12.9	3.0	955.0	0.52	Outcome1	-1.87	-0.9	0.0	No	2.0	-0.974707436768592	2.796	82.882		GetAnswer	Mixed
6.0	1	82.894	0.012	159.691	-1.87	-1.0	12.9	4.0	955.0	0.52	Outcome1	-1.87	-0.9	0.0	No		-0.974707436768592				ShowChoice	Mixed
6.0	1	86.906	0.012	163.703	-1.87	-1.0	12.9	1.0	955.0	0.52	Outcome1	-1.87	-0.9	0.0	No		-0.974707436768592				ShowResult	Mixed
6.0	1	87.926	0.02	164.723	-1.87	-1.0	12.9	6.232	955.0	0.52	Outcome1	-1.87	-0.9	0.0	No		-0.974707436768592				ISITrial	Mixed
7.0	1	94.178	0.02	170.975	8.5	1.63	13.9625	3.0	955.0	1.68	Outcome2	3.26	8.5	0.0	No	2.0	5.244620611551531	1.52	95.698		GetAnswer	Gain
7.0	1	95.716	0.018	172.513	8.5	1.63	13.9625	4.0	955.0	1.68	Outcome2	3.26	8.5	0.0	No		5.244620611551531				ShowChoice	Gain
7.0	1	99.728	0.012	176.525	8.5	1.63	13.9625	1.0	955.0	1.68	Outcome2	3.26	8.5	0.0	No		5.244620611551531				ShowResult	Gain
7.0	1	100.748	0.02	177.545	8.5	1.63	13.9625	2.305	955.0	1.68	Outcome2	3.26	8.5	0.0	No		5.244620611551531				ISITrial	Gain
8.0	1	103.071	0.018	179.868	6.29	3.14	14.7487	3.0	955.0	2.48	Outcome1	6.29	7.3	3112.5	Yes	2.0	-1.01453378633447	1.113	104.184		GetAnswer	Gain
8.0	1	104.208	0.024	181.005	6.29	3.14	14.7487	4.0	955.0	2.48	Outcome1	6.29	7.3	3112.5	Yes		-1.01453378633447				ShowChoice	Gain
8.0	1	108.22	0.012	185.017	6.29	3.14	14.7487	1.0	955.0	2.48	Outcome1	6.29	7.3	3112.5	Yes		-1.01453378633447				ShowResult	Gain
8.0	1	109.24	0.02	186.037	6.29	3.14	14.7487	3.506	955.0	2.48	Outcome1	6.29	7.3	3112.5	Yes		-1.01453378633447				ISITrial	Gain
8.0	1	115.91	0.031	192.707	6.29	3.14	14.7487	2.13	955.0	2.48	Outcome1	6.29	7.3	3112.5	Yes		-1.01453378633447			592.0	TrialHappiness	Gain
8.0	1	119.922	4.012	196.719	6.29	3.14	14.7487	4.45	955.0	2.48	Outcome1	6.29	7.3	3112.5	Yes		-1.01453378633447				ISIRate	Gain
9.0	1	124.402	0.03	201.199	12.7	2.2	16.3362	3.0	955.0	1.82	Outcome1	12.7	4.4	0.0	No	2.0	8.30464326160815	1.628	126.03		GetAnswer	Loss
9.0	1	126.057	0.027	202.854	12.7	2.2	16.3362	4.0	955.0	1.82	Outcome1	12.7	4.4	0.0	No		8.30464326160815				ShowChoice	Loss
9.0	1	130.069	0.012	206.866	12.7	2.2	16.3362	1.0	955.0	1.82	Outcome1	12.7	4.4	0.0	No		8.30464326160815				ShowResult	Loss
9.0	1	131.088	0.019	207.885	12.7	2.2	16.3362	2.0	955.0	1.82	Outcome1	12.7	4.4	0.0	No		8.30464326160815				ISITrial	Loss
10.0	1	133.111	0.023	209.908	9.1	0.19	17.4737	3.0	955.0	2.22	Outcome1	9.1	0.38	4000.0	Yes	2.0	8.71574178935447	1.863	134.974		GetAnswer	Gain
10.0	1	135.0	0.026	211.797	9.1	0.19	17.4737	4.0	955.0	2.22	Outcome1	9.1	0.38	4000.0	Yes		8.71574178935447				ShowChoice	Gain
10.0	1	139.012	0.012	215.809	9.1	0.19	17.4737	1.0	955.0	2.22	Outcome1	9.1	0.38	4000.0	Yes		8.71574178935447				ShowResult	Gain
10.0	1	140.032	0.02	216.829	9.1	0.19	17.4737	2.0	955.0	2.22	Outcome1	9.1	0.38	4000.0	Yes		8.71574178935447				ISITrial	Gain
10.0	1	146.083	0.029	222.88	9.1	0.19	17.4737	2.748	955.0	2.22	Outcome1	9.1	0.38	4000.0	Yes		8.71574178935447			696.0	TrialHappiness	Gain
10.0	1	150.095	4.012	226.892	9.1	0.19	17.4737	8.0	955.0	2.22	Outcome1	9.1	0.38	4000.0	Yes		8.71574178935447				ISIRate	Gain
11.0	1	158.119	0.024	234.916	5.5	2.0	18.1612	3.0	955.0	2.8	Outcome2	-1.86	5.5	0.0	No	2.0	7.36013590033975	1.706	159.825		GetAnswer	Gain
11.0	1	159.841	0.016	236.638	5.5	2.0	18.1612	4.0	955.0	2.8	Outcome2	-1.86	5.5	0.0	No		7.36013590033975				ShowChoice	Gain
11.0	1	163.853	0.012	240.65	5.5	2.0	18.1612	1.0	955.0	2.8	Outcome2	-1.86	5.5	0.0	No		7.36013590033975				ShowResult	Gain
11.0	1	164.873	0.02	241.67	5.5	2.0	18.1612	3.324	955.0	2.8	Outcome2	-1.86	5.5	0.0	No		7.36013590033975				ISITrial	Gain
12.0	1	168.216	0.019	245.013	3.5	0.0	18.5987	3.0	955.0	0.82	Outcome2	-4.15	3.5	2618.75	Yes	2.0	7.65345413363533	1.453	169.669		GetAnswer	Mixed
12.0	1	169.687	0.018	246.484	3.5	0.0	18.5987	4.0	955.0	0.82	Outcome2	-4.15	3.5	2618.75	Yes		7.65345413363533				ShowChoice	Mixed
12.0	1	173.699	0.012	250.496	3.5	0.0	18.5987	1.0	955.0	0.82	Outcome2	-4.15	3.5	2618.75	Yes		7.65345413363533				ShowResult	Mixed
12.0	1	174.719	0.02	251.516	3.5	0.0	18.5987	6.642	955.0	0.82	Outcome2	-4.15	3.5	2618.75	Yes		7.65345413363533				ISITrial	Mixed
12.0	1	184.013	0.022	260.81	3.5	0.0	18.5987	1.126	955.0	0.82	Outcome2	-4.15	3.5	2618.75	Yes		7.65345413363533			752.0	TrialHappiness	Mixed
12.0	1	188.025	4.012	264.822	3.5	0.0	18.5987	2.475	955.0	0.82	Outcome2	-4.15	3.5	2618.75	Yes		7.65345413363533				ISIRate	Mixed
13.0	1	190.516	0.016	267.313	-5.0	-5.0	17.9737	3.0	955.0	0.2	Certain	-8.5	-1.5	0.0	No	4.0	6.995469988674969	2.609	193.125		GetAnswer	Mixed
13.0	1	193.14	0.015	269.937	-5.0	-5.0	17.9737	4.0	955.0	0.2	Certain	-8.5	-1.5	0.0	No		6.995469988674969				ShowChoice	Mixed
13.0	1	197.152	0.012	273.949	-5.0	-5.0	17.9737	1.0	955.0	0.2	Certain	-8.5	-1.5	0.0	No		6.995469988674969				ShowResult	Mixed
13.0	1	198.172	0.02	274.969	-5.0	-5.0	17.9737	3.48	955.0	0.2	Certain	-8.5	-1.5	0.0	No		6.995469988674969				ISITrial	Mixed
14.0	1	201.683	0.031	278.48	0.3	-3.0	18.0112	3.0	955.0	2.0	Outcome1	0.3	-6.93	0.0	No	2.0	7.22536806342016	1.838	203.521		GetAnswer	Mixed
14.0	1	203.538	0.017	280.335	0.3	-3.0	18.0112	4.0	955.0	2.0	Outcome1	0.3	-6.93	0.0	No		7.22536806342016				ShowChoice	Mixed
14.0	1	207.55	0.012	284.347	0.3	-3.0	18.0112	1.0	955.0	2.0	Outcome1	0.3	-6.93	0.0	No		7.22536806342016				ShowResult	Mixed
14.0	1	208.57	0.02	285.367	0.3	-3.0	18.0112	5.019	955.0	2.0	Outcome1	0.3	-6.93	0.0	No		7.22536806342016				ISITrial	Mixed
15.0	1	213.618	0.029	290.415	8.74	4.37	19.1037	3.0	955.0	3.6	Outcome1	8.74	9.9	3348.5	Yes	2.0	-1.15770101925255	1.184	214.802		GetAnswer	Gain
15.0	1	214.822	0.02	291.619	8.74	4.37	19.1037	4.0	955.0	3.6	Outcome1	8.74	9.9	3348.5	Yes		-1.15770101925255				ShowChoice	Gain
15.0	1	218.834	0.012	295.631	8.74	4.37	19.1037	1.0	955.0	3.6	Outcome1	8.74	9.9	3348.5	Yes		-1.15770101925255				ShowResult	Gain
15.0	1	219.854	0.02	296.651	8.74	4.37	19.1037	7.614	955.0	3.6	Outcome1	8.74	9.9	3348.5	Yes		-1.15770101925255				ISITrial	Gain
15.0	1	230.87	0.029	307.667	8.74	4.37	19.1037	3.934	955.0	3.6	Outcome1	8.74	9.9	3348.5	Yes	2{-2}2{-2}2{-2}2{-2}4	-1.15770101925255	3.934	234.804	744.0	TrialHappiness	Gain
15.0	1	234.882	4.012	311.679	8.74	4.37	19.1037	5.394	955.0	3.6	Outcome1	8.74	9.9	3348.5	Yes		-1.15770101925255				ISIRate	Gain
16.0	1	240.298	0.022	317.095	13.1	2.64	20.7412	3.0	955.0	2.22	Outcome1	13.1	5.28	0.0	No	2.0	7.82106455266138	1.157	241.455		GetAnswer	Loss
16.0	1	241.468	0.013	318.265	13.1	2.64	20.7412	4.0	955.0	2.22	Outcome1	13.1	5.28	0.0	No		7.82106455266138				ShowChoice	Loss
16.0	1	245.48	0.012	322.277	13.1	2.64	20.7412	1.0	955.0	2.22	Outcome1	13.1	5.28	0.0	No		7.82106455266138				ShowResult	Loss
16.0	1	246.5	0.02	323.297	13.1	2.64	20.7412	3.008	955.0	2.22	Outcome1	13.1	5.28	0.0	No		7.82106455266138				ISITrial	Loss
17.0	1	249.526	0.018	326.323	8.27	4.14	21.775	3.0	955.0	2.8	Outcome1	8.27	9.5	3041.5	Yes	2.0	-1.2292374480936201	1.766	251.292		GetAnswer	Gain
17.0	1	251.314	0.022	328.111	8.27	4.14	21.775	4.0	955.0	2.8	Outcome1	8.27	9.5	3041.5	Yes		-1.2292374480936201				ShowChoice	Gain
17.0	1	255.326	0.012	332.123	8.27	4.14	21.775	1.0	955.0	2.8	Outcome1	8.27	9.5	3041.5	Yes		-1.2292374480936201				ShowResult	Gain
17.0	1	256.346	0.02	333.143	8.27	4.14	21.775	3.566	955.0	2.8	Outcome1	8.27	9.5	3041.5	Yes		-1.2292374480936201				ISITrial	Gain
17.0	1	262.983	0.018	339.78	8.27	4.14	21.775	1.511	955.0	2.8	Outcome1	8.27	9.5	3041.5	Yes		-1.2292374480936201			680.0	TrialHappiness	Gain
17.0	1	266.995	4.012	343.792	8.27	4.14	21.775	4.166	955.0	2.8	Outcome1	8.27	9.5	3041.5	Yes		-1.2292374480936201				ISIRate	Gain
18.0	1	271.19	0.029	347.987	12.3	1.46	23.3125	3.0	955.0	5.0	Outcome2	2.91	12.3	0.0	No	2.0	9.386183465458661	1.424	272.614		GetAnswer	Loss
18.0	1	272.628	0.014	349.425	12.3	1.46	23.3125	4.0	955.0	5.0	Outcome2	2.91	12.3	0.0	No		9.386183465458661				ShowChoice	Loss
18.0	1	276.64	0.012	353.437	12.3	1.46	23.3125	1.0	955.0	5.0	Outcome2	2.91	12.3	0.0	No		9.386183465458661				ShowResult	Loss
18.0	1	277.66	0.02	354.457	12.3	1.46	23.3125	6.787	955.0	5.0	Outcome2	2.91	12.3	0.0	No		9.386183465458661				ISITrial	Loss
19.0	1	284.464	0.017	361.261	3.9	-1.0	23.8	3.0	955.0	1.2	Outcome2	-5.8	3.9	0.0	No	2.0	9.69762174405436	1.89	286.354		GetAnswer	Mixed
19.0	1	286.369	0.015	363.166	3.9	-1.0	23.8	4.0	955.0	1.2	Outcome2	-5.8	3.9	0.0	No		9.69762174405436				ShowChoice	Mixed
19.0	1	290.381	0.012	367.178	3.9	-1.0	23.8	1.0	955.0	1.2	Outcome2	-5.8	3.9	0.0	No		9.69762174405436				ShowResult	Mixed
19.0	1	291.401	0.02	368.198	3.9	-1.0	23.8	2.0	955.0	1.2	Outcome2	-5.8	3.9	0.0	No		9.69762174405436				ISITrial	Mixed
20.0	1	293.424	0.023	370.221	-0.5	-5.0	23.7375	3.0	955.0	0.82	Outcome1	-0.5	-10.51	2921.25	Yes		10.0090600226501				GetAnswer	Mixed
20.0	1	296.449	0.025	373.246	-0.5	-5.0	23.7375	4.0	955.0	0.82	Outcome1	-0.5	-10.51	2921.25	Yes		10.0090600226501				ShowChoice	Mixed
20.0	1	300.461	0.012	377.258	-0.5	-5.0	23.7375	1.0	955.0	0.82	Outcome1	-0.5	-10.51	2921.25	Yes		10.0090600226501				ShowResult	Mixed
20.0	1	301.481	0.02	378.278	-0.5	-5.0	23.7375	8.0	955.0	0.82	Outcome1	-0.5	-10.51	2921.25	Yes		10.0090600226501				ISITrial	Mixed
20.0	1	312.447	0.021	389.244	-0.5	-5.0	23.7375	3.199	955.0	0.82	Outcome1	-0.5	-10.51	2921.25	Yes		10.0090600226501			688.0	TrialHappiness	Mixed
20.0	1	316.459	4.012	393.256	-0.5	-5.0	23.7375	3.685	955.0	0.82	Outcome1	-0.5	-10.51	2921.25	Yes		10.0090600226501				ISIRate	Mixed
21.0	1	320.17	0.026	396.967	10.9	0.36	25.1	3.0	955.0	2.0	Outcome2	0.72	10.9	0.0	No	2.0	10.1845979614949	1.669	321.839		GetAnswer	Loss
21.0	1	321.859	0.02	398.656	10.9	0.36	25.1	4.0	955.0	2.0	Outcome2	0.72	10.9	0.0	No		10.1845979614949				ShowChoice	Loss
21.0	1	325.871	0.012	402.668	10.9	0.36	25.1	1.0	955.0	2.0	Outcome2	0.72	10.9	0.0	No		10.1845979614949				ShowResult	Loss
21.0	1	326.89	0.019	403.687	10.9	0.36	25.1	3.555	955.0	2.0	Outcome2	0.72	10.9	0.0	No		10.1845979614949				ISITrial	Loss
22.0	1	330.468	0.023	407.265	10.7	0.1	26.4375	3.0	955.0	1.82	Outcome1	10.7	0.21	3219.5	Yes		10.4869762174405				GetAnswer	Loss
22.0	1	333.493	0.025	410.29	10.7	0.1	26.4375	4.0	955.0	1.82	Outcome1	10.7	0.21	3219.5	Yes		10.4869762174405				ShowChoice	Loss
22.0	1	337.505	0.012	414.302	10.7	0.1	26.4375	1.0	955.0	1.82	Outcome1	10.7	0.21	3219.5	Yes		10.4869762174405				ShowResult	Loss
22.0	1	338.525	0.02	415.322	10.7	0.1	26.4375	6.793	955.0	1.82	Outcome1	10.7	0.21	3219.5	Yes		10.4869762174405				ISITrial	Loss
22.0	1	348.572	0.023	425.369	10.7	0.1	26.4375	2.948	955.0	1.82	Outcome1	10.7	0.21	3219.5	Yes		10.4869762174405			640.0	TrialHappiness	Loss
22.0	1	352.584	4.012	429.381	10.7	0.1	26.4375	4.878	955.0	1.82	Outcome1	10.7	0.21	3219.5	Yes		10.4869762174405				ISIRate	Loss
23.0	1	357.482	0.02	434.279	4.3	-1.0	26.975	3.0	955.0	2.0	Outcome1	4.3	-7.3	0.0	No	2.0	11.604756511891301	1.424	358.906		GetAnswer	Mixed
23.0	1	358.919	0.013	435.716	4.3	-1.0	26.975	4.0	955.0	2.0	Outcome1	4.3	-7.3	0.0	No		11.604756511891301				ShowChoice	Mixed
23.0	1	362.931	0.012	439.728	4.3	-1.0	26.975	1.0	955.0	2.0	Outcome1	4.3	-7.3	0.0	No		11.604756511891301				ShowResult	Mixed
23.0	1	363.951	0.02	440.748	4.3	-1.0	26.975	8.0	955.0	2.0	Outcome1	4.3	-7.3	0.0	No		11.604756511891301				ISITrial	Mixed
24.0	1	371.975	0.024	448.772	-1.0	-1.0	26.85	3.0	955.0	1.0	Certain	-0.3	-2.13	3255.0	Yes	4.0	-1.82918082295206	2.34	374.315		GetAnswer	Mixed
24.0	1	374.332	0.017	451.129	-1.0	-1.0	26.85	4.0	955.0	1.0	Certain	-0.3	-2.13	3255.0	Yes		-1.82918082295206				ShowChoice	Mixed
24.0	1	378.344	0.012	455.141	-1.0	-1.0	26.85	1.0	955.0	1.0	Certain	-0.3	-2.13	3255.0	Yes		-1.82918082295206				ShowResult	Mixed
24.0	1	379.364	0.02	456.161	-1.0	-1.0	26.85	2.0	955.0	1.0	Certain	-0.3	-2.13	3255.0	Yes		-1.82918082295206				ISITrial	Mixed
24.0	1	384.663	0.021	461.46	-1.0	-1.0	26.85	3.802	955.0	1.0	Certain	-0.3	-2.13	3255.0	Yes		-1.82918082295206			616.0	TrialHappiness	Mixed
24.0	1	388.675	4.012	465.472	-1.0	-1.0	26.85	5.02	955.0	1.0	Certain	-0.3	-2.13	3255.0	Yes		-1.82918082295206				ISIRate	Mixed
25.0	1	393.724	0.029	470.521	7.34	3.67	27.7675	3.0	955.0	2.48	Outcome1	7.34	9.3	0.0	No	2.0	-1.95630426576066	1.088	394.812		GetAnswer	Gain
25.0	1	394.827	0.015	471.624	7.34	3.67	27.7675	4.0	955.0	2.48	Outcome1	7.34	9.3	0.0	No		-1.95630426576066				ShowChoice	Gain
25.0	1	398.839	0.012	475.636	7.34	3.67	27.7675	1.0	955.0	2.48	Outcome1	7.34	9.3	0.0	No		-1.95630426576066				ShowResult	Gain
25.0	1	399.859	0.02	476.656	7.34	3.67	27.7675	3.749	955.0	2.48	Outcome1	7.34	9.3	0.0	No		-1.95630426576066				ISITrial	Gain
26.0	1	403.636	0.028	480.433	0.1	0.1	27.78	3.0	955.0	2.48	Certain	13.3	0.19	0.0	No	4.0	13.1098527746319	1.909	405.545		GetAnswer	Loss
26.0	1	405.559	0.014	482.356	0.1	0.1	27.78	4.0	955.0	2.48	Certain	13.3	0.19	0.0	No		13.1098527746319				ShowChoice	Loss
26.0	1	409.571	0.012	486.368	0.1	0.1	27.78	1.0	955.0	2.48	Certain	13.3	0.19	0.0	No		13.1098527746319				ShowResult	Loss
26.0	1	410.591	0.02	487.388	0.1	0.1	27.78	7.834	955.0	2.48	Certain	13.3	0.19	0.0	No		13.1098527746319				ISITrial	Loss
27.0	1	418.447	0.022	495.244	11.1	-1.2	29.1675	3.0	955.0	2.22	Outcome1	11.1	-2.39	2549.75	Yes	2.0	13.4937712344281	1.162	419.609		GetAnswer	Loss
27.0	1	419.634	0.025	496.431	11.1	-1.2	29.1675	4.0	955.0	2.22	Outcome1	11.1	-2.39	2549.75	Yes		13.4937712344281				ShowChoice	Loss
27.0	1	423.646	0.012	500.443	11.1	-1.2	29.1675	1.0	955.0	2.22	Outcome1	11.1	-2.39	2549.75	Yes		13.4937712344281				ShowResult	Loss
27.0	1	424.666	0.02	501.463	11.1	-1.2	29.1675	4.225	955.0	2.22	Outcome1	11.1	-2.39	2549.75	Yes		13.4937712344281				ISITrial	Loss
27.0	1	431.486	0.024	508.283	11.1	-1.2	29.1675	3.435	955.0	2.22	Outcome1	11.1	-2.39	2549.75	Yes		13.4937712344281			584.0	TrialHappiness	Loss
27.0	1	435.498	4.012	512.295	11.1	-1.2	29.1675	2.199	955.0	2.22	Outcome1	11.1	-2.39	2549.75	Yes		13.4937712344281				ISIRate	Loss
	1	437.722	0.025	514.519				-0.001								{SPACE}		25.658	463.38		Rest	
	1	463.399	0.019	540.196				4.0													BlockHappyPreview	
	1	467.41	0.011	544.207				1.494												656.0	BlockStartHappiness	
	1	473.094	0.018	549.891				-0.001								5.0		1.863	474.957		ScanWait	
	2	0.009	0.009	551.763				10.0													GetReady	
28.0	2	10.023	0.014	561.777	-2.87	2.0	28.8087	3.0	70.0	2.22	Outcome2	7.1	-2.87	0.0	No	2.0	-9.96598639455782	1.426	11.449		GetAnswer	Gain
28.0	2	11.477	0.028	563.231	-2.87	2.0	28.8087	4.0	70.0	2.22	Outcome2	7.1	-2.87	0.0	No		-9.96598639455782				ShowChoice	Gain
28.0	2	15.489	0.012	567.243	-2.87	2.0	28.8087	1.0	70.0	2.22	Outcome2	7.1	-2.87	0.0	No		-9.96598639455782				ShowResult	Gain
28.0	2	16.509	0.02	568.263	-2.87	2.0	28.8087	3.575	70.0	2.22	Outcome2	7.1	-2.87	0.0	No		-9.96598639455782				ISITrial	Gain
29.0	2	20.103	0.019	571.857	0.0	0.0	28.8087	3.0	70.0	2.48	Certain	-5.33	5.3	3529.0	Yes	4.0	-10.6303854875283	2.03	22.133		GetAnswer	Gain
29.0	2	22.159	0.026	573.913	0.0	0.0	28.8087	4.0	70.0	2.48	Certain	-5.33	5.3	3529.0	Yes		-10.6303854875283				ShowChoice	Gain
29.0	2	26.171	0.012	577.925	0.0	0.0	28.8087	1.0	70.0	2.48	Certain	-5.33	5.3	3529.0	Yes		-10.6303854875283				ShowResult	Gain
29.0	2	27.191	0.02	578.945	0.0	0.0	28.8087	3.955	70.0	2.48	Certain	-5.33	5.3	3529.0	Yes		-10.6303854875283				ISITrial	Gain
29.0	2	34.713	0.015	586.467	0.0	0.0	28.8087	3.033	70.0	2.48	Certain	-5.33	5.3	3529.0	Yes		-10.6303854875283			576.0	TrialHappiness	Gain
29.0	2	38.725	4.012	590.479	0.0	0.0	28.8087	6.116	70.0	2.48	Certain	-5.33	5.3	3529.0	Yes		-10.6303854875283				ISIRate	Gain
30.0	2	44.86	0.019	596.614	-6.83	-2.0	27.9549	3.0	70.0	0.52	Outcome1	-6.83	3.1	0.0	No	2.0	-9.93424036281179	1.332	46.192		GetAnswer	Mixed
30.0	2	46.214	0.022	597.968	-6.83	-2.0	27.9549	4.0	70.0	0.52	Outcome1	-6.83	3.1	0.0	No		-9.93424036281179				ShowChoice	Mixed
30.0	2	50.226	0.012	601.98	-6.83	-2.0	27.9549	1.0	70.0	0.52	Outcome1	-6.83	3.1	0.0	No		-9.93424036281179				ShowResult	Mixed
30.0	2	51.246	0.02	603.0	-6.83	-2.0	27.9549	4.453	70.0	0.52	Outcome1	-6.83	3.1	0.0	No		-9.93424036281179				ISITrial	Mixed
31.0	2	55.726	0.027	607.48	2.0	2.0	28.2049	3.0	70.0	3.6	Certain	-2.61	7.9	2503.25	Yes	4.0	-10.5079365079365	2.048	57.774		GetAnswer	Gain
31.0	2	57.799	0.025	609.553	2.0	2.0	28.2049	4.0	70.0	3.6	Certain	-2.61	7.9	2503.25	Yes		-10.5079365079365				ShowChoice	Gain
31.0	2	61.811	0.012	613.565	2.0	2.0	28.2049	1.0	70.0	3.6	Certain	-2.61	7.9	2503.25	Yes		-10.5079365079365				ShowResult	Gain
31.0	2	62.831	0.02	614.585	2.0	2.0	28.2049	4.786	70.0	3.6	Certain	-2.61	7.9	2503.25	Yes		-10.5079365079365				ISITrial	Gain
31.0	2	70.169	0.021	621.923	2.0	2.0	28.2049	0.661	70.0	3.6	Certain	-2.61	7.9	2503.25	Yes		-10.5079365079365			552.0	TrialHappiness	Gain
31.0	2	74.181	4.012	625.935	2.0	2.0	28.2049	2.013	70.0	3.6	Certain	-2.61	7.9	2503.25	Yes		-10.5079365079365				ISIRate	Gain
32.0	2	76.221	0.027	627.975	-8.37	-3.0	27.1586	3.0	70.0	2.0	Outcome2	2.3	-8.37	0.0	No	2.0	-10.6734693877551	1.511	77.732		GetAnswer	Mixed
32.0	2	77.759	0.027	629.513	-8.37	-3.0	27.1586	4.0	70.0	2.0	Outcome2	2.3	-8.37	0.0	No		-10.6734693877551				ShowChoice	Mixed
32.0	2	81.771	0.012	633.525	-8.37	-3.0	27.1586	1.0	70.0	2.0	Outcome2	2.3	-8.37	0.0	No		-10.6734693877551				ShowResult	Mixed
32.0	2	82.79	0.019	634.544	-8.37	-3.0	27.1586	2.0	70.0	2.0	Outcome2	2.3	-8.37	0.0	No		-10.6734693877551				ISITrial	Mixed
33.0	2	84.813	0.023	636.567	-6.72	-1.0	26.3186	3.0	70.0	1.68	Outcome2	4.5	-6.72	0.0	No	2.0	-11.219954648526098	1.757	86.57		GetAnswer	Gain
33.0	2	86.585	0.014	638.339	-6.72	-1.0	26.3186	4.0	70.0	1.68	Outcome2	4.5	-6.72	0.0	No		-11.219954648526098				ShowChoice	Gain
33.0	2	90.597	0.012	642.351	-6.72	-1.0	26.3186	1.0	70.0	1.68	Outcome2	4.5	-6.72	0.0	No		-11.219954648526098				ShowResult	Gain
33.0	2	91.617	0.02	643.371	-6.72	-1.0	26.3186	5.099	70.0	1.68	Outcome2	4.5	-6.72	0.0	No		-11.219954648526098				ISITrial	Gain
34.0	2	96.732	0.016	648.486	-11.87	-6.0	24.8348	3.0	70.0	1.2	Outcome1	-11.87	-0.1	3231.5	Yes	2.0	-11.7664399092971	2.241	98.973		GetAnswer	Mixed
34.0	2	98.989	0.016	650.743	-11.87	-6.0	24.8348	4.0	70.0	1.2	Outcome1	-11.87	-0.1	3231.5	Yes		-11.7664399092971				ShowChoice	Mixed
34.0	2	103.001	0.012	654.755	-11.87	-6.0	24.8348	1.0	70.0	1.2	Outcome1	-11.87	-0.1	3231.5	Yes		-11.7664399092971				ShowResult	Mixed
34.0	2	104.02	0.019	655.774	-11.87	-6.0	24.8348	4.784	70.0	1.2	Outcome1	-11.87	-0.1	3231.5	Yes		-11.7664399092971				ISITrial	Mixed
34.0	2	112.078	0.028	663.832	-11.87	-6.0	24.8348	0.692	70.0	1.2	Outcome1	-11.87	-0.1	3231.5	Yes		-11.7664399092971			456.0	TrialHappiness	Mixed
34.0	2	116.09	4.012	667.844	-11.87	-6.0	24.8348	4.926	70.0	1.2	Outcome1	-11.87	-0.1	3231.5	Yes		-11.7664399092971				ISIRate	Mixed
35.0	2	121.038	0.022	672.792	3.12	2.0	25.2248	3.0	70.0	1.68	Outcome2	1.21	3.12	0.0	No	2.0	1.9111866969009799	1.483	122.521		GetAnswer	Loss
35.0	2	122.542	0.021	674.296	3.12	2.0	25.2248	4.0	70.0	1.68	Outcome2	1.21	3.12	0.0	No		1.9111866969009799				ShowChoice	Loss
35.0	2	126.554	0.012	678.308	3.12	2.0	25.2248	1.0	70.0	1.68	Outcome2	1.21	3.12	0.0	No		1.9111866969009799				ShowResult	Loss
35.0	2	127.574	0.02	679.328	3.12	2.0	25.2248	2.098	70.0	1.68	Outcome2	1.21	3.12	0.0	No		1.9111866969009799				ISITrial	Loss
36.0	2	129.697	0.025	681.451	1.18	0.0	25.3723	3.0	70.0	1.82	Outcome2	-0.77	1.18	3335.75	Yes	2.0	1.94765684051398	1.654	131.351		GetAnswer	Gain
36.0	2	131.369	0.018	683.123	1.18	0.0	25.3723	4.0	70.0	1.82	Outcome2	-0.77	1.18	3335.75	Yes		1.94765684051398				ShowChoice	Gain
36.0	2	135.381	0.012	687.135	1.18	0.0	25.3723	1.0	70.0	1.82	Outcome2	-0.77	1.18	3335.75	Yes		1.94765684051398				ShowResult	Gain
36.0	2	136.401	0.02	688.155	1.18	0.0	25.3723	5.156	70.0	1.82	Outcome2	-0.77	1.18	3335.75	Yes		1.94765684051398				ISITrial	Gain
36.0	2	144.943	0.024	696.697	1.18	0.0	25.3723	3.551	70.0	1.82	Outcome2	-0.77	1.18	3335.75	Yes		1.94765684051398			408.0	TrialHappiness	Gain
36.0	2	148.971	4.028	700.725	1.18	0.0	25.3723	5.343	70.0	1.82	Outcome2	-0.77	1.18	3335.75	Yes		1.94765684051398				ISIRate	Gain
37.0	2	154.338	0.024	706.092	-0.44	-0.22	25.3173	3.0	70.0	5.0	Outcome1	-0.44	10.3	0.0	No	2.0	-10.739229024943302	1.561	155.899		GetAnswer	Gain
37.0	2	155.926	0.027	707.68	-0.44	-0.22	25.3173	4.0	70.0	5.0	Outcome1	-0.44	10.3	0.0	No		-10.739229024943302				ShowChoice	Gain
37.0	2	159.938	0.012	711.692	-0.44	-0.22	25.3173	1.0	70.0	5.0	Outcome1	-0.44	10.3	0.0	No		-10.739229024943302				ShowResult	Gain
37.0	2	160.957	0.019	712.711	-0.44	-0.22	25.3173	3.598	70.0	5.0	Outcome1	-0.44	10.3	0.0	No		-10.739229024943302				ISITrial	Gain
38.0	2	164.585	0.03	716.339	-2.42	-1.21	25.0148	3.0	70.0	1.82	Outcome2	8.7	-2.42	0.0	No	2.0	-11.122448979591802	1.247	165.832		GetAnswer	Gain
38.0	2	165.855	0.023	717.609	-2.42	-1.21	25.0148	4.0	70.0	1.82	Outcome2	8.7	-2.42	0.0	No		-11.122448979591802				ShowChoice	Gain
38.0	2	169.867	0.012	721.621	-2.42	-1.21	25.0148	1.0	70.0	1.82	Outcome2	8.7	-2.42	0.0	No		-11.122448979591802				ShowResult	Gain
38.0	2	170.887	0.02	722.641	-2.42	-1.21	25.0148	4.787	70.0	1.82	Outcome2	8.7	-2.42	0.0	No		-11.122448979591802				ISITrial	Gain
39.0	2	175.701	0.027	727.455	-10.61	-5.0	23.6885	3.0	70.0	0.4	Outcome1	-10.61	0.9	2864.25	Yes	2.0	-11.5056689342404	1.749	177.45		GetAnswer	Mixed
39.0	2	177.473	0.023	729.227	-10.61	-5.0	23.6885	4.0	70.0	0.4	Outcome1	-10.61	0.9	2864.25	Yes		-11.5056689342404				ShowChoice	Mixed
39.0	2	181.485	0.012	733.239	-10.61	-5.0	23.6885	1.0	70.0	0.4	Outcome1	-10.61	0.9	2864.25	Yes		-11.5056689342404				ShowResult	Mixed
39.0	2	182.505	0.02	734.259	-10.61	-5.0	23.6885	2.348	70.0	0.4	Outcome1	-10.61	0.9	2864.25	Yes		-11.5056689342404				ISITrial	Mixed
39.0	2	187.771	0.028	739.525	-10.61	-5.0	23.6885	1.594	70.0	0.4	Outcome1	-10.61	0.9	2864.25	Yes	4{-4}4{-4}	-11.5056689342404	1.594	189.365	316.0	TrialHappiness	Mixed
39.0	2	191.8	4.029	743.554	-10.61	-5.0	23.6885	3.457	70.0	0.4	Outcome1	-10.61	0.9	2864.25	Yes		-11.5056689342404				ISIRate	Mixed
40.0	2	195.277	0.02	747.031	-6.22	-1.0	22.910999999999998	3.0	70.0	1.5	Outcome2	4.1	-6.22	0.0	No	2.0	-10.324263038548802	1.321	196.598		GetAnswer	Mixed
40.0	2	196.614	0.016	748.368	-6.22	-1.0	22.910999999999998	4.0	70.0	1.5	Outcome2	4.1	-6.22	0.0	No		-10.324263038548802				ShowChoice	Mixed
40.0	2	200.643	0.029	752.397	-6.22	-1.0	22.910999999999998	1.0	70.0	1.5	Outcome2	4.1	-6.22	0.0	No		-10.324263038548802				ShowResult	Mixed
40.0	2	201.662	0.019	753.416	-6.22	-1.0	22.910999999999998	3.158	70.0	1.5	Outcome2	4.1	-6.22	0.0	No		-10.324263038548802				ISITrial	Mixed
41.0	2	204.839	0.019	756.593	-0.9	-0.45	22.7985	3.0	70.0	3.16	Outcome2	9.7	-0.9	4000.0	Yes	2.0	-10.6031746031746	0.914	205.753		GetAnswer	Gain
41.0	2	205.775	0.022	757.529	-0.9	-0.45	22.7985	4.0	70.0	3.16	Outcome2	9.7	-0.9	4000.0	Yes		-10.6031746031746				ShowChoice	Gain
41.0	2	209.803	0.028	761.557	-0.9	-0.45	22.7985	1.0	70.0	3.16	Outcome2	9.7	-0.9	4000.0	Yes		-10.6031746031746				ShowResult	Gain
41.0	2	210.823	0.02	762.577	-0.9	-0.45	22.7985	4.506	70.0	3.16	Outcome2	9.7	-0.9	4000.0	Yes		-10.6031746031746				ISITrial	Gain
41.0	2	219.382	0.029	771.136	-0.9	-0.45	22.7985	2.364	70.0	3.16	Outcome2	9.7	-0.9	4000.0	Yes		-10.6031746031746			200.0	TrialHappiness	Gain
41.0	2	223.411	4.029	775.165	-0.9	-0.45	22.7985	8.0	70.0	3.16	Outcome2	9.7	-0.9	4000.0	Yes		-10.6031746031746				ISIRate	Gain
42.0	2	231.435	0.024	783.189	4.59	2.3	23.3723	3.0	70.0	2.8	Outcome1	4.59	13.5	0.0	No	2.0	-8.909297052154189	0.944	232.379		GetAnswer	Loss
42.0	2	232.404	0.025	784.158	4.59	2.3	23.3723	4.0	70.0	2.8	Outcome1	4.59	13.5	0.0	No		-8.909297052154189				ShowChoice	Loss
42.0	2	236.416	0.012	788.17	4.59	2.3	23.3723	1.0	70.0	2.8	Outcome1	4.59	13.5	0.0	No		-8.909297052154189				ShowResult	Loss
42.0	2	237.436	0.02	789.19	4.59	2.3	23.3723	6.248	70.0	2.8	Outcome1	4.59	13.5	0.0	No		-8.909297052154189				ISITrial	Loss
43.0	2	243.705	0.021	795.459	-0.76	-0.38	23.2773	3.0	70.0	5.0	Outcome1	-0.76	8.3	2775.75	Yes	2.0	-9.056689342403631	1.696	245.401		GetAnswer	Gain
43.0	2	245.427	0.026	797.181	-0.76	-0.38	23.2773	4.0	70.0	5.0	Outcome1	-0.76	8.3	2775.75	Yes		-9.056689342403631				ShowChoice	Gain
43.0	2	249.455	0.028	801.209	-0.76	-0.38	23.2773	1.0	70.0	5.0	Outcome1	-0.76	8.3	2775.75	Yes		-9.056689342403631				ShowResult	Gain
43.0	2	250.475	0.02	802.229	-0.76	-0.38	23.2773	4.596	70.0	5.0	Outcome1	-0.76	8.3	2775.75	Yes		-9.056689342403631				ISITrial	Gain
43.0	2	257.897	0.032	809.651	-0.76	-0.38	23.2773	3.351	70.0	5.0	Outcome1	-0.76	8.3	2775.75	Yes		-9.056689342403631			272.0	TrialHappiness	Gain
43.0	2	261.909	4.012	813.663	-0.76	-0.38	23.2773	3.103	70.0	5.0	Outcome1	-0.76	8.3	2775.75	Yes		-9.056689342403631				ISIRate	Gain
44.0	2	265.035	0.023	816.789	2.02	1.0	23.5298	3.0	70.0	4.2	Outcome2	0.62	2.02	0.0	No	2.0	1.40343915343915	1.478	266.513		GetAnswer	Gain
44.0	2	266.54	0.027	818.294	2.02	1.0	23.5298	4.0	70.0	4.2	Outcome2	0.62	2.02	0.0	No		1.40343915343915				ShowChoice	Gain
44.0	2	270.552	0.012	822.306	2.02	1.0	23.5298	1.0	70.0	4.2	Outcome2	0.62	2.02	0.0	No		1.40343915343915				ShowResult	Gain
44.0	2	271.571	0.019	823.325	2.02	1.0	23.5298	2.42	70.0	4.2	Outcome2	0.62	2.02	0.0	No		1.40343915343915				ISITrial	Gain
45.0	2	274.012	0.021	825.766	-11.96	-6.0	22.0348	3.0	70.0	0.3	Outcome1	-11.96	-1.3	0.0	No	2.0	-10.6575963718821	2.128	276.14		GetAnswer	Mixed
45.0	2	276.152	0.012	827.906	-11.96	-6.0	22.0348	4.0	70.0	0.3	Outcome1	-11.96	-1.3	0.0	No		-10.6575963718821				ShowChoice	Mixed
45.0	2	280.164	0.012	831.918	-11.96	-6.0	22.0348	1.0	70.0	0.3	Outcome1	-11.96	-1.3	0.0	No		-10.6575963718821				ShowResult	Mixed
45.0	2	281.183	0.019	832.937	-11.96	-6.0	22.0348	3.144	70.0	0.3	Outcome1	-11.96	-1.3	0.0	No		-10.6575963718821				ISITrial	Mixed
46.0	2	284.343	0.016	836.097	-0.79	-0.4	21.936	3.0	70.0	4.2	Outcome1	-0.79	10.1	3841.25	Yes	2.0	-10.8866213151927	1.807	286.15		GetAnswer	Gain
46.0	2	286.165	0.015	837.919	-0.79	-0.4	21.936	4.0	70.0	4.2	Outcome1	-0.79	10.1	3841.25	Yes		-10.8866213151927				ShowChoice	Gain
46.0	2	290.177	0.012	841.931	-0.79	-0.4	21.936	1.0	70.0	4.2	Outcome1	-0.79	10.1	3841.25	Yes		-10.8866213151927				ShowResult	Gain
46.0	2	291.197	0.02	842.951	-0.79	-0.4	21.936	2.246	70.0	4.2	Outcome1	-0.79	10.1	3841.25	Yes		-10.8866213151927				ISITrial	Gain
46.0	2	297.315	0.021	849.069	-0.79	-0.4	21.936	2.816	70.0	4.2	Outcome1	-0.79	10.1	3841.25	Yes		-10.8866213151927			240.0	TrialHappiness	Gain
46.0	2	301.327	4.012	853.081	-0.79	-0.4	21.936	7.365	70.0	4.2	Outcome1	-0.79	10.1	3841.25	Yes		-10.8866213151927				ISIRate	Gain
47.0	2	308.716	0.024	860.47	-4.47	1.0	21.3772	3.0	70.0	4.2	Outcome2	6.1	-4.47	0.0	No	2.0	-10.5714285714286	2.467	311.183		GetAnswer	Gain
47.0	2	311.207	0.024	862.961	-4.47	1.0	21.3772	4.0	70.0	4.2	Outcome2	6.1	-4.47	0.0	No		-10.5714285714286				ShowChoice	Gain
47.0	2	315.219	0.012	866.973	-4.47	1.0	21.3772	1.0	70.0	4.2	Outcome2	6.1	-4.47	0.0	No		-10.5714285714286				ShowResult	Gain
47.0	2	316.238	0.019	867.992	-4.47	1.0	21.3772	2.0	70.0	4.2	Outcome2	6.1	-4.47	0.0	No		-10.5714285714286				ISITrial	Gain
48.0	2	318.261	0.023	870.015	0.27	0.27	21.410999999999998	3.0	70.0	2.48	Certain	0.54	11.3	2831.75	Yes	4.0	-10.7641723356009	1.006	319.267		GetAnswer	Loss
48.0	2	319.281	0.014	871.035	0.27	0.27	21.410999999999998	4.0	70.0	2.48	Certain	0.54	11.3	2831.75	Yes		-10.7641723356009				ShowChoice	Loss
48.0	2	323.309	0.028	875.063	0.27	0.27	21.410999999999998	1.0	70.0	2.48	Certain	0.54	11.3	2831.75	Yes		-10.7641723356009				ShowResult	Loss
48.0	2	324.329	0.02	876.083	0.27	0.27	21.410999999999998	3.692	70.0	2.48	Certain	0.54	11.3	2831.75	Yes		-10.7641723356009				ISITrial	Loss
48.0	2	330.899	0.027	882.653	0.27	0.27	21.410999999999998	1.645	70.0	2.48	Certain	0.54	11.3	2831.75	Yes		-10.7641723356009			272.0	TrialHappiness	Loss
48.0	2	334.911	4.012	886.665	0.27	0.27	21.410999999999998	3.327	70.0	2.48	Certain	0.54	11.3	2831.75	Yes		-10.7641723356009				ISIRate	Loss
49.0	2	338.254	0.016	890.008	0.2	0.1	21.436	3.0	70.0	3.16	Outcome1	0.2	11.7	0.0	No	2.0	-11.501133786848099	0.989	339.243		GetAnswer	Loss
49.0	2	339.257	0.014	891.011	0.2	0.1	21.436	4.0	70.0	3.16	Outcome1	0.2	11.7	0.0	No		-11.501133786848099				ShowChoice	Loss
49.0	2	343.269	0.012	895.023	0.2	0.1	21.436	1.0	70.0	3.16	Outcome1	0.2	11.7	0.0	No		-11.501133786848099				ShowResult	Loss
49.0	2	344.289	0.02	896.043	0.2	0.1	21.436	8.0	70.0	3.16	Outcome1	0.2	11.7	0.0	No		-11.501133786848099				ISITrial	Loss
50.0	2	352.313	0.024	904.067	-6.0	-6.0	20.686	3.0	70.0	1.5	Certain	-11.63	0.1	3547.25	Yes	4.0	-11.7301587301587	1.752	354.065		GetAnswer	Mixed
50.0	2	354.085	0.02	905.839	-6.0	-6.0	20.686	4.0	70.0	1.5	Certain	-11.63	0.1	3547.25	Yes		-11.7301587301587				ShowChoice	Mixed
50.0	2	358.097	0.012	909.851	-6.0	-6.0	20.686	1.0	70.0	1.5	Certain	-11.63	0.1	3547.25	Yes		-11.7301587301587				ShowResult	Mixed
50.0	2	359.116	0.019	910.87	-6.0	-6.0	20.686	7.537	70.0	1.5	Certain	-11.63	0.1	3547.25	Yes		-11.7301587301587				ISITrial	Mixed
50.0	2	370.25	0.031	922.004	-6.0	-6.0	20.686	1.31	70.0	1.5	Certain	-11.63	0.1	3547.25	Yes		-11.7301587301587			176.0	TrialHappiness	Mixed
50.0	2	374.262	4.012	926.016	-6.0	-6.0	20.686	6.189	70.0	1.5	Certain	-11.63	0.1	3547.25	Yes		-11.7301587301587				ISIRate	Mixed
51.0	2	380.48	0.029	932.234	-6.0	-6.0	19.936	3.0	70.0	0.4	Certain	-1.1	-11.43	0.0	No	4.0	-10.3265306122449	1.344	381.824		GetAnswer	Mixed
51.0	2	381.834	0.01	933.588	-6.0	-6.0	19.936	4.0	70.0	0.4	Certain	-1.1	-11.43	0.0	No		-10.3265306122449				ShowChoice	Mixed
51.0	2	385.846	0.012	937.6	-6.0	-6.0	19.936	1.0	70.0	0.4	Certain	-1.1	-11.43	0.0	No		-10.3265306122449				ShowResult	Mixed
51.0	2	386.866	0.02	938.62	-6.0	-6.0	19.936	5.508	70.0	0.4	Certain	-1.1	-11.43	0.0	No		-10.3265306122449				ISITrial	Mixed
52.0	2	392.399	0.025	944.153	-3.0	-3.0	19.561	3.0	70.0	1.5	Certain	-8.35	2.1	0.0	No	4.0	-10.4467120181406	1.532	393.931		GetAnswer	Mixed
52.0	2	393.954	0.023	945.708	-3.0	-3.0	19.561	4.0	70.0	1.5	Certain	-8.35	2.1	0.0	No		-10.4467120181406				ShowChoice	Mixed
52.0	2	397.966	0.012	949.72	-3.0	-3.0	19.561	1.0	70.0	1.5	Certain	-8.35	2.1	0.0	No		-10.4467120181406				ShowResult	Mixed
52.0	2	398.986	0.02	950.74	-3.0	-3.0	19.561	5.913	70.0	1.5	Certain	-8.35	2.1	0.0	No		-10.4467120181406				ISITrial	Mixed
53.0	2	404.92	0.021	956.674	3.33	1.66	19.9772	3.0	70.0	3.6	Outcome1	3.33	13.9	2996.75	Yes	2.0	-10.566893424036301	2.653	407.573		GetAnswer	Loss
53.0	2	407.595	0.022	959.349	3.33	1.66	19.9772	4.0	70.0	3.6	Outcome1	3.33	13.9	2996.75	Yes		-10.566893424036301				ShowChoice	Loss
53.0	2	411.607	0.012	963.361	3.33	1.66	19.9772	1.0	70.0	3.6	Outcome1	3.33	13.9	2996.75	Yes		-10.566893424036301				ShowResult	Loss
53.0	2	412.626	0.019	964.38	3.33	1.66	19.9772	3.66	70.0	3.6	Outcome1	3.33	13.9	2996.75	Yes		-10.566893424036301				ISITrial	Loss
53.0	2	419.33	0.029	971.084	3.33	1.66	19.9772	1.243	70.0	3.6	Outcome1	3.33	13.9	2996.75	Yes		-10.566893424036301			216.0	TrialHappiness	Loss
53.0	2	423.342	4.012	975.096	3.33	1.66	19.9772	3.987	70.0	3.6	Outcome1	3.33	13.9	2996.75	Yes		-10.566893424036301				ISIRate	Loss
54.0	2	427.354	0.025	979.108	1.0	1.0	20.1022	3.0	70.0	1.68	Certain	6.5	-4.87	0.0	No	4.0	-11.3673469387755	2.447	429.801		GetAnswer	Gain
54.0	2	429.811	0.01	981.565	1.0	1.0	20.1022	4.0	70.0	1.68	Certain	6.5	-4.87	0.0	No		-11.3673469387755				ShowChoice	Gain
54.0	2	433.823	0.012	985.577	1.0	1.0	20.1022	1.0	70.0	1.68	Certain	6.5	-4.87	0.0	No		-11.3673469387755				ShowResult	Gain
54.0	2	434.843	0.02	986.597	1.0	1.0	20.1022	8.0	70.0	1.68	Certain	6.5	-4.87	0.0	No		-11.3673469387755				ISITrial	Gain
	2	442.867	0.024	994.621				-0.001								{SPACE}		36.04	478.907		Rest	
	2	478.925	0.018	1030.679				4.0													BlockHappyPreview	
	2	482.937	0.012	1034.691				1.494												192.0	BlockStartHappiness	
	2	489.908	0.025	1041.662				-0.001								5.0		1.413	491.321		ScanWait	
	3	0.024	0.024	1043.099				10.0													GetReady	
55.0	3	10.054	0.03	1053.129	-4.0	-4.0	19.6022	3.0	955.0	0.3	Certain	2.7	-10.26	2533.25	Yes	4.0	12.961494903737302	2.787	12.841		GetAnswer	Mixed
55.0	3	12.863	0.022	1055.938	-4.0	-4.0	19.6022	4.0	955.0	0.3	Certain	2.7	-10.26	2533.25	Yes		12.961494903737302				ShowChoice	Mixed
55.0	3	16.891	0.028	1059.966	-4.0	-4.0	19.6022	1.0	955.0	0.3	Certain	2.7	-10.26	2533.25	Yes		12.961494903737302				ShowResult	Mixed
55.0	3	17.911	0.02	1060.986	-4.0	-4.0	19.6022	7.709	955.0	0.3	Certain	2.7	-10.26	2533.25	Yes		12.961494903737302				ISITrial	Mixed
55.0	3	28.192	0.025	1071.267	-4.0	-4.0	19.6022	2.909	955.0	0.3	Certain	2.7	-10.26	2533.25	Yes		12.961494903737302			196.0	TrialHappiness	Mixed
55.0	3	32.204	4.012	1075.279	-4.0	-4.0	19.6022	2.133	955.0	0.3	Certain	2.7	-10.26	2533.25	Yes		12.961494903737302				ISIRate	Mixed
56.0	3	34.36	0.023	1077.435	13.7	-0.03	21.3147	3.0	955.0	3.16	Outcome2	-0.06	13.7	0.0	No		13.757644394110999				GetAnswer	Loss
56.0	3	37.386	0.026	1080.461	13.7	-0.03	21.3147	4.0	955.0	3.16	Outcome2	-0.06	13.7	0.0	No		13.757644394110999				ShowChoice	Loss
56.0	3	41.415	0.029	1084.49	13.7	-0.03	21.3147	1.0	955.0	3.16	Outcome2	-0.06	13.7	0.0	No		13.757644394110999				ShowResult	Loss
56.0	3	42.434	0.019	1085.509	13.7	-0.03	21.3147	4.697	955.0	3.16	Outcome2	-0.06	13.7	0.0	No		13.757644394110999				ISITrial	Loss
57.0	3	47.148	0.017	1090.223	0.7	-6.0	21.4022	3.0	955.0	0.3	Outcome1	0.7	-13.92	0.0	No		14.6172140430351				GetAnswer	Mixed
57.0	3	50.174	0.026	1093.249	0.7	-6.0	21.4022	4.0	955.0	0.3	Outcome1	0.7	-13.92	0.0	No		14.6172140430351				ShowChoice	Mixed
57.0	3	54.186	0.012	1097.261	0.7	-6.0	21.4022	1.0	955.0	0.3	Outcome1	0.7	-13.92	0.0	No		14.6172140430351				ShowResult	Mixed
57.0	3	55.206	0.02	1098.281	0.7	-6.0	21.4022	4.291	955.0	0.3	Outcome1	0.7	-13.92	0.0	No		14.6172140430351				ISITrial	Mixed
58.0	3	59.519	0.022	1102.594	0.0	0.0	21.4022	3.0	955.0	2.8	Certain	-7.98	7.5	3045.75	Yes	4.0	15.4767836919592	2.183	61.702		GetAnswer	Gain
58.0	3	61.725	0.023	1104.8	0.0	0.0	21.4022	4.0	955.0	2.8	Certain	-7.98	7.5	3045.75	Yes		15.4767836919592				ShowChoice	Gain
58.0	3	65.737	0.012	1108.812	0.0	0.0	21.4022	1.0	955.0	2.8	Certain	-7.98	7.5	3045.75	Yes		15.4767836919592				ShowResult	Gain
58.0	3	66.757	0.02	1109.832	0.0	0.0	21.4022	2.037	955.0	2.8	Certain	-7.98	7.5	3045.75	Yes		15.4767836919592				ISITrial	Gain
58.0	3	71.889	0.03	1114.964	0.0	0.0	21.4022	1.243	955.0	2.8	Certain	-7.98	7.5	3045.75	Yes		15.4767836919592			256.0	TrialHappiness	Gain
58.0	3	75.901	4.012	1118.976	0.0	0.0	21.4022	4.183	955.0	2.8	Certain	-7.98	7.5	3045.75	Yes		15.4767836919592				ISIRate	Gain
59.0	3	80.114	0.03	1123.189	-6.0	-6.0	20.6522	3.0	955.0	0.66	Certain	-14.02	1.3	0.0	No	4.0	15.317100792751999	1.728	81.842		GetAnswer	Mixed
59.0	3	81.869	0.027	1124.944	-6.0	-6.0	20.6522	4.0	955.0	0.66	Certain	-14.02	1.3	0.0	No		15.317100792751999				ShowChoice	Mixed
59.0	3	85.881	0.012	1128.956	-6.0	-6.0	20.6522	1.0	955.0	0.66	Certain	-14.02	1.3	0.0	No		15.317100792751999				ShowResult	Mixed
59.0	3	86.901	0.02	1129.976	-6.0	-6.0	20.6522	5.064	955.0	0.66	Certain	-14.02	1.3	0.0	No		15.317100792751999				ISITrial	Mixed
60.0	3	91.982	0.017	1135.057	3.7	-4.0	21.1147	3.0	955.0	1.0	Outcome1	3.7	-12.41	3562.5	Yes		16.1087202718007				GetAnswer	Mixed
60.0	3	95.008	0.026	1138.083	3.7	-4.0	21.1147	4.0	955.0	1.0	Outcome1	3.7	-12.41	3562.5	Yes		16.1087202718007				ShowChoice	Mixed
60.0	3	99.02	0.012	1142.095	3.7	-4.0	21.1147	1.0	955.0	1.0	Outcome1	3.7	-12.41	3562.5	Yes		16.1087202718007				ShowResult	Mixed
60.0	3	100.04	0.02	1143.115	3.7	-4.0	21.1147	8.0	955.0	1.0	Outcome1	3.7	-12.41	3562.5	Yes		16.1087202718007				ISITrial	Mixed
60.0	3	111.641	0.015	1154.716	3.7	-4.0	21.1147	2.197	955.0	1.0	Outcome1	3.7	-12.41	3562.5	Yes		16.1087202718007			304.0	TrialHappiness	Mixed
60.0	3	115.653	4.012	1158.728	3.7	-4.0	21.1147	6.25	955.0	1.0	Outcome1	3.7	-12.41	3562.5	Yes		16.1087202718007				ISIRate	Mixed
61.0	3	121.922	0.019	1164.997	7.44	3.72	22.0447	3.0	955.0	1.68	Outcome2	10.5	7.44	0.0	No	2.0	-3.0606832767081897	1.468	123.39		GetAnswer	Loss
61.0	3	123.41	0.02	1166.485	7.44	3.72	22.0447	4.0	955.0	1.68	Outcome2	10.5	7.44	0.0	No		-3.0606832767081897				ShowChoice	Loss
61.0	3	127.422	0.012	1170.497	7.44	3.72	22.0447	1.0	955.0	1.68	Outcome2	10.5	7.44	0.0	No		-3.0606832767081897				ShowResult	Loss
61.0	3	128.441	0.019	1171.516	7.44	3.72	22.0447	4.586	955.0	1.68	Outcome2	10.5	7.44	0.0	No		-3.0606832767081897				ISITrial	Loss
62.0	3	133.055	0.028	1176.13	-9.0	-9.0	20.9197	3.0	955.0	0.66	Certain	-17.52	-0.7	3748.75	Yes	4.0	16.822197055492598	2.094	135.149		GetAnswer	Mixed
62.0	3	135.162	0.013	1178.237	-9.0	-9.0	20.9197	4.0	955.0	0.66	Certain	-17.52	-0.7	3748.75	Yes		16.822197055492598				ShowChoice	Mixed
62.0	3	139.174	0.012	1182.249	-9.0	-9.0	20.9197	1.0	955.0	0.66	Certain	-17.52	-0.7	3748.75	Yes		16.822197055492598				ShowResult	Mixed
62.0	3	140.193	0.019	1183.268	-9.0	-9.0	20.9197	5.212	955.0	0.66	Certain	-17.52	-0.7	3748.75	Yes		16.822197055492598				ISITrial	Mixed
62.0	3	149.204	0.029	1192.279	-9.0	-9.0	20.9197	1.812	955.0	0.66	Certain	-17.52	-0.7	3748.75	Yes		16.822197055492598			352.0	TrialHappiness	Mixed
62.0	3	153.216	4.012	1196.291	-9.0	-9.0	20.9197	6.995	955.0	0.66	Certain	-17.52	-0.7	3748.75	Yes		16.822197055492598				ISIRate	Mixed
63.0	3	160.236	0.025	1203.311	-1.0	-1.0	20.7947	3.0	955.0	1.82	Certain	6.7	-10.04	0.0	No	4.0	16.7440543601359	2.493	162.729		GetAnswer	Gain
63.0	3	162.744	0.015	1205.819	-1.0	-1.0	20.7947	4.0	955.0	1.82	Certain	6.7	-10.04	0.0	No		16.7440543601359				ShowChoice	Gain
63.0	3	166.756	0.012	1209.831	-1.0	-1.0	20.7947	1.0	955.0	1.82	Certain	6.7	-10.04	0.0	No		16.7440543601359				ShowResult	Gain
63.0	3	167.776	0.02	1210.851	-1.0	-1.0	20.7947	5.595	955.0	1.82	Certain	6.7	-10.04	0.0	No		16.7440543601359				ISITrial	Gain
64.0	3	173.393	0.022	1216.468	-1.0	-1.0	20.6697	3.0	955.0	3.16	Certain	7.7	-9.73	0.0	No	4.0	17.4269535673839	1.996	175.389		GetAnswer	Gain
64.0	3	175.415	0.026	1218.49	-1.0	-1.0	20.6697	4.0	955.0	3.16	Certain	7.7	-9.73	0.0	No		17.4269535673839				ShowChoice	Gain
64.0	3	179.427	0.012	1222.502	-1.0	-1.0	20.6697	1.0	955.0	3.16	Certain	7.7	-9.73	0.0	No		17.4269535673839				ShowResult	Gain
64.0	3	180.447	0.02	1223.522	-1.0	-1.0	20.6697	5.47	955.0	3.16	Certain	7.7	-9.73	0.0	No		17.4269535673839				ISITrial	Gain
65.0	3	185.947	0.03	1229.022	-3.1	-3.1	20.2822	3.0	955.0	3.6	Certain	11.9	-6.21	2996.75	Yes	4.0	18.1098527746319	2.241	188.188		GetAnswer	Loss
65.0	3	188.203	0.015	1231.278	-3.1	-3.1	20.2822	4.0	955.0	3.6	Certain	11.9	-6.21	2996.75	Yes		18.1098527746319				ShowChoice	Loss
65.0	3	192.215	0.012	1235.29	-3.1	-3.1	20.2822	1.0	955.0	3.6	Certain	11.9	-6.21	2996.75	Yes		18.1098527746319				ShowResult	Loss
65.0	3	193.235	0.02	1236.31	-3.1	-3.1	20.2822	3.344	955.0	3.6	Certain	11.9	-6.21	2996.75	Yes		18.1098527746319				ISITrial	Loss
65.0	3	199.621	0.029	1242.696	-3.1	-3.1	20.2822	3.017	955.0	3.6	Certain	11.9	-6.21	2996.75	Yes		18.1098527746319			264.0	TrialHappiness	Loss
65.0	3	203.633	4.012	1246.708	-3.1	-3.1	20.2822	3.987	955.0	3.6	Certain	11.9	-6.21	2996.75	Yes		18.1098527746319				ISIRate	Loss
66.0	3	207.645	0.025	1250.72	-9.0	-9.0	19.1572	3.0	955.0	0.2	Certain	0.5	-19.79	0.0	No	4.0	20.287655719139302	1.846	209.491		GetAnswer	Mixed
66.0	3	209.517	0.026	1252.592	-9.0	-9.0	19.1572	4.0	955.0	0.2	Certain	0.5	-19.79	0.0	No		20.287655719139302				ShowChoice	Mixed
66.0	3	213.529	0.012	1256.604	-9.0	-9.0	19.1572	1.0	955.0	0.2	Certain	0.5	-19.79	0.0	No		20.287655719139302				ShowResult	Mixed
66.0	3	214.549	0.02	1257.624	-9.0	-9.0	19.1572	3.959	955.0	0.2	Certain	0.5	-19.79	0.0	No		20.287655719139302				ISITrial	Mixed
67.0	3	218.527	0.019	1261.602	-8.0	-8.0	18.1572	3.0	955.0	0.2	Certain	-18.57	2.5	2918.5	Yes	4.0	21.0702151755379	2.182	220.709		GetAnswer	Mixed
67.0	3	220.734	0.025	1263.809	-8.0	-8.0	18.1572	4.0	955.0	0.2	Certain	-18.57	2.5	2918.5	Yes		21.0702151755379				ShowChoice	Mixed
67.0	3	224.746	0.012	1267.821	-8.0	-8.0	18.1572	1.0	955.0	0.2	Certain	-18.57	2.5	2918.5	Yes		21.0702151755379				ShowResult	Mixed
67.0	3	225.766	0.02	1268.841	-8.0	-8.0	18.1572	4.199	955.0	0.2	Certain	-18.57	2.5	2918.5	Yes		21.0702151755379				ISITrial	Mixed
67.0	3	232.92	0.024	1275.995	-8.0	-8.0	18.1572	1.093	955.0	0.2	Certain	-18.57	2.5	2918.5	Yes		21.0702151755379			288.0	TrialHappiness	Mixed
67.0	3	236.932	4.012	1280.007	-8.0	-8.0	18.1572	3.674	955.0	0.2	Certain	-18.57	2.5	2918.5	Yes		21.0702151755379				ISIRate	Mixed
68.0	3	240.627	0.021	1283.702	1.1	-9.0	18.2947	3.0	955.0	0.52	Outcome1	1.1	-20.35	0.0	No	2.0	21.445073612684	2.463	243.09		GetAnswer	Mixed
68.0	3	243.118	0.028	1286.193	1.1	-9.0	18.2947	4.0	955.0	0.52	Outcome1	1.1	-20.35	0.0	No		21.445073612684				ShowChoice	Mixed
68.0	3	247.13	0.012	1290.205	1.1	-9.0	18.2947	1.0	955.0	0.52	Outcome1	1.1	-20.35	0.0	No		21.445073612684				ShowResult	Mixed
68.0	3	248.149	0.019	1291.224	1.1	-9.0	18.2947	2.185	955.0	0.52	Outcome1	1.1	-20.35	0.0	No		21.445073612684				ISITrial	Mixed
69.0	3	250.356	0.022	1293.431	-6.0	-6.0	17.5447	3.0	955.0	2.0	Certain	-17.3	4.9	0.0	No	4.0	22.200453001132498	1.742	252.098		GetAnswer	Gain
69.0	3	252.111	0.013	1295.186	-6.0	-6.0	17.5447	4.0	955.0	2.0	Certain	-17.3	4.9	0.0	No		22.200453001132498				ShowChoice	Gain
69.0	3	256.123	0.012	1299.198	-6.0	-6.0	17.5447	1.0	955.0	2.0	Certain	-17.3	4.9	0.0	No		22.200453001132498				ShowResult	Gain
69.0	3	257.143	0.02	1300.218	-6.0	-6.0	17.5447	2.0	955.0	2.0	Certain	-17.3	4.9	0.0	No		22.200453001132498				ISITrial	Gain
70.0	3	259.166	0.023	1302.241	1.42	0.71	17.7222	3.0	955.0	2.22	Outcome1	1.42	5.1	3651.25	Yes	2.0	-3.67553793884485	1.697	260.863		GetAnswer	Gain
70.0	3	260.887	0.024	1303.962	1.42	0.71	17.7222	4.0	955.0	2.22	Outcome1	1.42	5.1	3651.25	Yes		-3.67553793884485				ShowChoice	Gain
70.0	3	264.899	0.012	1307.974	1.42	0.71	17.7222	1.0	955.0	2.22	Outcome1	1.42	5.1	3651.25	Yes		-3.67553793884485				ShowResult	Gain
70.0	3	265.919	0.02	1308.994	1.42	0.71	17.7222	2.623	955.0	2.22	Outcome1	1.42	5.1	3651.25	Yes		-3.67553793884485				ISITrial	Gain
70.0	3	272.238	0.027	1315.313	1.42	0.71	17.7222	2.763	955.0	2.22	Outcome1	1.42	5.1	3651.25	Yes	4{-4}4{-4}	-3.67553793884485	2.763	275.001	172.0	TrialHappiness	Gain
70.0	3	276.25	4.012	1319.325	1.42	0.71	17.7222	6.605	955.0	2.22	Outcome1	1.42	5.1	3651.25	Yes		-3.67553793884485				ISIRate	Gain
71.0	3	282.887	0.032	1325.962	-1.0	-1.0	17.5972	3.0	955.0	2.8	Certain	11.5	-14.18	0.0	No	4.0	25.6817667044168	2.127	285.014		GetAnswer	Loss
71.0	3	285.026	0.012	1328.101	-1.0	-1.0	17.5972	4.0	955.0	2.8	Certain	11.5	-14.18	0.0	No		25.6817667044168				ShowChoice	Loss
71.0	3	289.038	0.012	1332.113	-1.0	-1.0	17.5972	1.0	955.0	2.8	Certain	11.5	-14.18	0.0	No		25.6817667044168				ShowResult	Loss
71.0	3	290.058	0.02	1333.133	-1.0	-1.0	17.5972	5.499	955.0	2.8	Certain	11.5	-14.18	0.0	No		25.6817667044168				ISITrial	Loss
72.0	3	295.574	0.017	1338.649	1.7	-11.0	17.8097	3.0	955.0	1.0	Outcome1	1.7	-24.87	3080.5	Yes	2.0	26.568516421291104	2.056	297.63		GetAnswer	Mixed
72.0	3	297.647	0.017	1340.722	1.7	-11.0	17.8097	4.0	955.0	1.0	Outcome1	1.7	-24.87	3080.5	Yes		26.568516421291104				ShowChoice	Mixed
72.0	3	301.659	0.012	1344.734	1.7	-11.0	17.8097	1.0	955.0	1.0	Outcome1	1.7	-24.87	3080.5	Yes		26.568516421291104				ShowResult	Mixed
72.0	3	302.679	0.02	1345.754	1.7	-11.0	17.8097	5.672	955.0	1.0	Outcome1	1.7	-24.87	3080.5	Yes		26.568516421291104				ISITrial	Mixed
72.0	3	311.472	0.029	1354.547	1.7	-11.0	17.8097	2.347	955.0	1.0	Outcome1	1.7	-24.87	3080.5	Yes		26.568516421291104			224.0	TrialHappiness	Mixed
72.0	3	315.484	4.012	1358.559	1.7	-11.0	17.8097	4.322	955.0	1.0	Outcome1	1.7	-24.87	3080.5	Yes		26.568516421291104				ISIRate	Mixed
73.0	3	319.83	0.024	1362.905	0.0	0.0	17.8097	3.0	955.0	2.0	Certain	12.9	-13.67	0.0	No	4.0	26.5719139297848	1.862	321.692		GetAnswer	Loss
73.0	3	321.703	0.011	1364.778	0.0	0.0	17.8097	4.0	955.0	2.0	Certain	12.9	-13.67	0.0	No		26.5719139297848				ShowChoice	Loss
73.0	3	325.715	0.012	1368.79	0.0	0.0	17.8097	1.0	955.0	2.0	Certain	12.9	-13.67	0.0	No		26.5719139297848				ShowResult	Loss
73.0	3	326.734	0.019	1369.809	0.0	0.0	17.8097	4.616	955.0	2.0	Certain	12.9	-13.67	0.0	No		26.5719139297848				ISITrial	Loss
74.0	3	331.382	0.032	1374.457	6.9	-7.0	18.6722	3.0	955.0	2.0	Outcome1	6.9	-20.5	3056.25	Yes	2.0	27.3997734994337	2.73	334.112		GetAnswer	Gain
74.0	3	334.14	0.028	1377.215	6.9	-7.0	18.6722	4.0	955.0	2.0	Outcome1	6.9	-20.5	3056.25	Yes		27.3997734994337				ShowChoice	Gain
74.0	3	338.152	0.012	1381.227	6.9	-7.0	18.6722	1.0	955.0	2.0	Outcome1	6.9	-20.5	3056.25	Yes		27.3997734994337				ShowResult	Gain
74.0	3	339.171	0.019	1382.246	6.9	-7.0	18.6722	3.909	955.0	2.0	Outcome1	6.9	-20.5	3056.25	Yes		27.3997734994337				ISITrial	Gain
74.0	3	346.176	0.02	1389.251	6.9	-7.0	18.6722	1.996	955.0	2.0	Outcome1	6.9	-20.5	3056.25	Yes	4{-4}2{-2}	27.3997734994337	1.996	348.172	296.0	TrialHappiness	Gain
74.0	3	350.188	4.012	1393.263	6.9	-7.0	18.6722	4.225	955.0	2.0	Outcome1	6.9	-20.5	3056.25	Yes		27.3997734994337				ISIRate	Gain
75.0	3	354.434	0.021	1397.509	3.3	-10.0	19.0847	3.0	955.0	0.66	Outcome1	3.3	-23.7	0.0	No		27.004530011325002				GetAnswer	Mixed
75.0	3	357.46	0.026	1400.535	3.3	-10.0	19.0847	4.0	955.0	0.66	Outcome1	3.3	-23.7	0.0	No		27.004530011325002				ShowChoice	Mixed
75.0	3	361.472	0.012	1404.547	3.3	-10.0	19.0847	1.0	955.0	0.66	Outcome1	3.3	-23.7	0.0	No		27.004530011325002				ShowResult	Mixed
75.0	3	362.491	0.019	1405.566	3.3	-10.0	19.0847	4.979	955.0	0.66	Outcome1	3.3	-23.7	0.0	No		27.004530011325002				ISITrial	Mixed
76.0	3	367.489	0.019	1410.564	6.3	-7.0	19.8722	3.0	955.0	5.0	Outcome1	6.3	-21.45	0.0	No	2.0	27.750849377123398	2.294	369.783		GetAnswer	Gain
76.0	3	369.796	0.013	1412.871	6.3	-7.0	19.8722	4.0	955.0	5.0	Outcome1	6.3	-21.45	0.0	No		27.750849377123398				ShowChoice	Gain
76.0	3	373.808	0.012	1416.883	6.3	-7.0	19.8722	1.0	955.0	5.0	Outcome1	6.3	-21.45	0.0	No		27.750849377123398				ShowResult	Gain
76.0	3	374.828	0.02	1417.903	6.3	-7.0	19.8722	3.931	955.0	5.0	Outcome1	6.3	-21.45	0.0	No		27.750849377123398				ISITrial	Gain
77.0	3	378.79	0.031	1421.865	1.9	-12.0	20.1097	3.0	955.0	1.2	Outcome2	-26.6	1.9	4000.0	Yes		28.4971687429219				GetAnswer	Mixed
77.0	3	381.816	0.026	1424.891	1.9	-12.0	20.1097	4.0	955.0	1.2	Outcome2	-26.6	1.9	4000.0	Yes		28.4971687429219				ShowChoice	Mixed
77.0	3	385.828	0.012	1428.903	1.9	-12.0	20.1097	1.0	955.0	1.2	Outcome2	-26.6	1.9	4000.0	Yes		28.4971687429219				ShowResult	Mixed
77.0	3	386.847	0.019	1429.922	1.9	-12.0	20.1097	7.022	955.0	1.2	Outcome2	-26.6	1.9	4000.0	Yes		28.4971687429219				ISITrial	Mixed
77.0	3	397.914	0.029	1440.989	1.9	-12.0	20.1097	0.992	955.0	1.2	Outcome2	-26.6	1.9	4000.0	Yes		28.4971687429219			368.0	TrialHappiness	Mixed
77.0	3	401.926	4.012	1445.001	1.9	-12.0	20.1097	8.0	955.0	1.2	Outcome2	-26.6	1.9	4000.0	Yes		28.4971687429219				ISIRate	Mixed
78.0	3	409.95	0.024	1453.025	5.9	-8.0	20.8472	3.0	955.0	3.6	Outcome2	-22.12	5.9	0.0	No	2.0	28.020385050962602	2.815	412.765		GetAnswer	Gain
78.0	3	412.792	0.027	1455.867	5.9	-8.0	20.8472	4.0	955.0	3.6	Outcome2	-22.12	5.9	0.0	No		28.020385050962602				ShowChoice	Gain
78.0	3	416.804	0.012	1459.879	5.9	-8.0	20.8472	1.0	955.0	3.6	Outcome2	-22.12	5.9	0.0	No		28.020385050962602				ShowResult	Gain
78.0	3	417.823	0.019	1460.898	5.9	-8.0	20.8472	2.078	955.0	3.6	Outcome2	-22.12	5.9	0.0	No		28.020385050962602				ISITrial	Gain
79.0	3	419.93	0.029	1463.005	-0.7	-15.0	20.7597	3.0	955.0	0.66	Outcome2	-29.39	-0.7	2729.5	Yes		28.6851642129105				GetAnswer	Mixed
79.0	3	422.955	0.025	1466.03	-0.7	-15.0	20.7597	4.0	955.0	0.66	Outcome2	-29.39	-0.7	2729.5	Yes		28.6851642129105				ShowChoice	Mixed
79.0	3	426.967	0.012	1470.042	-0.7	-15.0	20.7597	1.0	955.0	0.66	Outcome2	-29.39	-0.7	2729.5	Yes		28.6851642129105				ShowResult	Mixed
79.0	3	427.987	0.02	1471.062	-0.7	-15.0	20.7597	3.829	955.0	0.66	Outcome2	-29.39	-0.7	2729.5	Yes		28.6851642129105				ISITrial	Mixed
79.0	3	434.59	0.028	1477.665	-0.7	-15.0	20.7597	0.81	955.0	0.66	Outcome2	-29.39	-0.7	2729.5	Yes		28.6851642129105			440.0	TrialHappiness	Mixed
79.0	3	438.602	4.012	1481.677	-0.7	-15.0	20.7597	2.918	955.0	0.66	Outcome2	-29.39	-0.7	2729.5	Yes		28.6851642129105				ISIRate	Mixed
80.0	3	441.544	0.024	1484.619	2.5	-11.0	21.0722	3.0	955.0	0.2	Outcome1	2.5	-25.63	0.0	No	2.0	28.1268403171008	2.498	444.042		GetAnswer	Mixed
80.0	3	444.068	0.026	1487.143	2.5	-11.0	21.0722	4.0	955.0	0.2	Outcome1	2.5	-25.63	0.0	No		28.1268403171008				ShowChoice	Mixed
80.0	3	448.08	0.012	1491.155	2.5	-11.0	21.0722	1.0	955.0	0.2	Outcome1	2.5	-25.63	0.0	No		28.1268403171008				ShowResult	Mixed
80.0	3	449.1	0.02	1492.175	2.5	-11.0	21.0722	3.336	955.0	0.2	Outcome1	2.5	-25.63	0.0	No		28.1268403171008				ISITrial	Mixed
81.0	3	452.46	0.024	1495.535	3.7	-10.0	21.5347	3.0	955.0	1.0	Outcome1	3.7	-25.01	3923.75	Yes		28.710079275198197				GetAnswer	Mixed
81.0	3	455.486	0.026	1498.561	3.7	-10.0	21.5347	4.0	955.0	1.0	Outcome1	3.7	-25.01	3923.75	Yes		28.710079275198197				ShowChoice	Mixed
81.0	3	459.498	0.012	1502.573	3.7	-10.0	21.5347	1.0	955.0	1.0	Outcome1	3.7	-25.01	3923.75	Yes		28.710079275198197				ShowResult	Mixed
81.0	3	460.518	0.02	1503.593	3.7	-10.0	21.5347	3.919	955.0	1.0	Outcome1	3.7	-25.01	3923.75	Yes		28.710079275198197				ISITrial	Mixed
81.0	3	468.408	0.021	1511.483	3.7	-10.0	21.5347	0.81	955.0	1.0	Outcome1	3.7	-25.01	3923.75	Yes		28.710079275198197			544.0	TrialHappiness	Mixed
81.0	3	472.42	4.012	1515.495	3.7	-10.0	21.5347	7.695	955.0	1.0	Outcome1	3.7	-25.01	3923.75	Yes		28.710079275198197				ISIRate	Mixed
	3	480.143	0.028	1523.218				3.0													CurrentEarnings	
	3	483.169	0.026	1526.244				-0.001								{SPACE}		5.942	489.111		Goodbye	
