trial_number	block	onset	onset_delay	onset_unadjusted	amount_change	certain_amount	current_amount	duration	mood_target	multiplier	outcome	outcome1_amount	outcome2_amount	question_duration	rating	response	rpe	rt	rt_time	slider_response	trial_phase	trial_type
	0	-36.015	0.029	11.055				-0.001								{SPACE}		1.301	-34.714		Welcome	
	0	-34.682	0.032	12.388				5.0													LifeHappyPreview	
	0	-29.65	0.032	17.42				3.273												376.0	LifeHappiness	
	0	-15.639	0.019	31.431				4.0													BlockHappyPreview	
	0	-11.623	0.016	35.447				0.381												512.0	BlockStartHappiness	
	0	-5.126	0.02	41.944				-0.001								5.0					ScanWait	
	1	0.023	0.023	47.093				10.0													GetReady	
1.0	1	10.053	0.03	57.123	-2.0	-2.0	9.75	3.0	955.0	0.3	Certain	-1.3	-3.1	0.0	No	4.0	-1.79775386938467	1.553	11.606		GetAnswer	Mixed
1.0	1	11.635	0.029	58.705	-2.0	-2.0	9.75	4.0	955.0	0.3	Certain	-1.3	-3.1	0.0	No		-1.79775386938467				ShowChoice	Mixed
1.0	1	15.651	0.016	62.721	-2.0	-2.0	9.75	1.0	955.0	0.3	Certain	-1.3	-3.1	0.0	No		-1.79775386938467				ShowResult	Mixed
1.0	1	16.667	0.016	63.737	-2.0	-2.0	9.75	2.431	955.0	0.3	Certain	-1.3	-3.1	0.0	No		-1.79775386938467				ISITrial	Mixed
2.0	1	19.133	0.035	66.203	3.1	-1.0	10.1375	3.0	955.0	0.52	Outcome1	3.1	-4.93	0.0	No	2.0	8.02718006795017	1.728	20.861		GetAnswer	Mixed
2.0	1	20.882	0.021	67.952	3.1	-1.0	10.1375	4.0	955.0	0.52	Outcome1	3.1	-4.93	0.0	No		8.02718006795017				ShowChoice	Mixed
2.0	1	24.897	0.015	71.967	3.1	-1.0	10.1375	1.0	955.0	0.52	Outcome1	3.1	-4.93	0.0	No		8.02718006795017				ShowResult	Mixed
2.0	1	25.914	0.017	72.984	3.1	-1.0	10.1375	4.568	955.0	0.52	Outcome1	3.1	-4.93	0.0	No		8.02718006795017				ISITrial	Mixed
3.0	1	30.512	0.03	77.582	5.7	1.0	10.85	3.0	955.0	3.16	Outcome1	5.7	-2.83	2868.0	Yes	2.0	8.52887882219705	1.16	31.672		GetAnswer	Gain
3.0	1	31.695	0.023	78.765	5.7	1.0	10.85	4.0	955.0	3.16	Outcome1	5.7	-2.83	2868.0	Yes		8.52887882219705				ShowChoice	Gain
3.0	1	35.71	0.015	82.78	5.7	1.0	10.85	1.0	955.0	3.16	Outcome1	5.7	-2.83	2868.0	Yes		8.52887882219705				ShowResult	Gain
3.0	1	36.727	0.017	83.797	5.7	1.0	10.85	3.243	955.0	3.16	Outcome1	5.7	-2.83	2868.0	Yes		8.52887882219705				ISITrial	Gain
3.0	1	42.891	0.031	89.961	5.7	1.0	10.85	3.339	955.0	3.16	Outcome1	5.7	-2.83	2868.0	Yes		8.52887882219705			504.0	TrialHappiness	Gain
3.0	1	46.906	4.015	93.976	5.7	1.0	10.85	3.472	955.0	3.16	Outcome1	5.7	-2.83	2868.0	Yes		8.52887882219705				ISIRate	Gain
4.0	1	50.405	0.027	97.475	10.7	0.76	12.1875	3.0	955.0	1.82	Outcome2	1.53	10.7	0.0	No	2.0	9.16647791619479	1.622	52.027		GetAnswer	Loss
4.0	1	52.055	0.028	99.125	10.7	0.76	12.1875	4.0	955.0	1.82	Outcome2	1.53	10.7	0.0	No		9.16647791619479				ShowChoice	Loss
4.0	1	56.07	0.015	103.14	10.7	0.76	12.1875	1.0	955.0	1.82	Outcome2	1.53	10.7	0.0	No		9.16647791619479				ShowResult	Loss
4.0	1	57.086	0.016	104.156	10.7	0.76	12.1875	2.011	955.0	1.82	Outcome2	1.53	10.7	0.0	No		9.16647791619479				ISITrial	Loss
5.0	1	59.119	0.022	106.189	2.0	2.0	12.4375	3.0	955.0	2.8	Certain	7.5	-2.18	2582.5	Yes	4.0	9.67723669309173	1.259	60.378		GetAnswer	Gain
5.0	1	60.402	0.024	107.472	2.0	2.0	12.4375	4.0	955.0	2.8	Certain	7.5	-2.18	2582.5	Yes		9.67723669309173				ShowChoice	Gain
5.0	1	64.417	0.015	111.487	2.0	2.0	12.4375	1.0	955.0	2.8	Certain	7.5	-2.18	2582.5	Yes		9.67723669309173				ShowResult	Gain
5.0	1	65.433	0.016	112.503	2.0	2.0	12.4375	5.129	955.0	2.8	Certain	7.5	-2.18	2582.5	Yes		9.67723669309173				ISITrial	Gain
5.0	1	73.181	0.017	120.251	2.0	2.0	12.4375	3.905	955.0	2.8	Certain	7.5	-2.18	2582.5	Yes		9.67723669309173			548.0	TrialHappiness	Gain
5.0	1	77.196	4.015	124.266	2.0	2.0	12.4375	2.33	955.0	2.8	Certain	7.5	-2.18	2582.5	Yes		9.67723669309173				ISIRate	Gain
6.0	1	79.545	0.019	126.615	6.3	1.0	13.225	3.0	955.0	5.0	Outcome1	6.3	-3.14	0.0	No	2.0	9.440543601359	1.531	81.076		GetAnswer	Gain
6.0	1	81.095	0.019	128.165	6.3	1.0	13.225	4.0	955.0	5.0	Outcome1	6.3	-3.14	0.0	No		9.440543601359				ShowChoice	Gain
6.0	1	85.11	0.015	132.18	6.3	1.0	13.225	1.0	955.0	5.0	Outcome1	6.3	-3.14	0.0	No		9.440543601359				ShowResult	Gain
6.0	1	86.126	0.016	133.196	6.3	1.0	13.225	6.232	955.0	5.0	Outcome1	6.3	-3.14	0.0	No		9.440543601359				ISITrial	Gain
7.0	1	92.391	0.033	139.461	-1.0	-1.0	13.1	3.0	955.0	1.2	Certain	-6.0	3.9	0.0	No	4.0	9.90147225368063	1.82	94.211		GetAnswer	Mixed
7.0	1	94.24	0.029	141.31	-1.0	-1.0	13.1	4.0	955.0	1.2	Certain	-6.0	3.9	0.0	No		9.90147225368063				ShowChoice	Mixed
7.0	1	98.255	0.015	145.325	-1.0	-1.0	13.1	1.0	955.0	1.2	Certain	-6.0	3.9	0.0	No		9.90147225368063				ShowResult	Mixed
7.0	1	99.272	0.017	146.342	-1.0	-1.0	13.1	2.305	955.0	1.2	Certain	-6.0	3.9	0.0	No		9.90147225368063				ISITrial	Mixed
8.0	1	101.604	0.027	148.674	7.7	2.0	14.0625	3.0	955.0	3.16	Outcome1	7.7	-2.66	3112.5	Yes	2.0	10.362400906002302	1.847	103.451		GetAnswer	Gain
8.0	1	103.47	0.019	150.54	7.7	2.0	14.0625	4.0	955.0	3.16	Outcome1	7.7	-2.66	3112.5	Yes		10.362400906002302				ShowChoice	Gain
8.0	1	107.486	0.016	154.556	7.7	2.0	14.0625	1.0	955.0	3.16	Outcome1	7.7	-2.66	3112.5	Yes		10.362400906002302				ShowResult	Gain
8.0	1	108.502	0.016	155.572	7.7	2.0	14.0625	3.506	955.0	3.16	Outcome1	7.7	-2.66	3112.5	Yes		10.362400906002302				ISITrial	Gain
8.0	1	115.166	0.02	162.236	7.7	2.0	14.0625	1.657	955.0	3.16	Outcome1	7.7	-2.66	3112.5	Yes		10.362400906002302			544.0	TrialHappiness	Gain
8.0	1	119.181	4.015	166.251	7.7	2.0	14.0625	4.45	955.0	3.16	Outcome1	7.7	-2.66	3112.5	Yes		10.362400906002302				ISIRate	Gain
9.0	1	123.663	0.032	170.733	11.3	0.2	15.475	3.0	955.0	2.48	Outcome2	0.41	11.3	0.0	No	2.0	10.8912797281993	1.728	125.391		GetAnswer	Loss
9.0	1	125.413	0.022	172.483	11.3	0.2	15.475	4.0	955.0	2.48	Outcome2	0.41	11.3	0.0	No		10.8912797281993				ShowChoice	Loss
9.0	1	129.428	0.015	176.498	11.3	0.2	15.475	1.0	955.0	2.48	Outcome2	0.41	11.3	0.0	No		10.8912797281993				ShowResult	Loss
9.0	1	130.444	0.016	177.514	11.3	0.2	15.475	2.0	955.0	2.48	Outcome2	0.41	11.3	0.0	No		10.8912797281993				ISITrial	Loss
10.0	1	132.477	0.033	179.547	2.07	1.03	15.7338	3.0	955.0	1.5	Outcome2	4.1	2.07	4000.0	Yes	2.0	-2.0324650811627	1.211	133.688		GetAnswer	Mixed
10.0	1	133.71	0.022	180.78	2.07	1.03	15.7338	4.0	955.0	1.5	Outcome2	4.1	2.07	4000.0	Yes		-2.0324650811627				ShowChoice	Mixed
10.0	1	137.725	0.015	184.795	2.07	1.03	15.7338	1.0	955.0	1.5	Outcome2	4.1	2.07	4000.0	Yes		-2.0324650811627				ShowResult	Mixed
10.0	1	138.741	0.016	185.811	2.07	1.03	15.7338	2.0	955.0	1.5	Outcome2	4.1	2.07	4000.0	Yes		-2.0324650811627				ISITrial	Mixed
10.0	1	144.789	0.032	191.859	2.07	1.03	15.7338	1.823	955.0	1.5	Outcome2	4.1	2.07	4000.0	Yes		-2.0324650811627			548.0	TrialHappiness	Mixed
10.0	1	148.805	4.016	195.875	2.07	1.03	15.7338	8.0	955.0	1.5	Outcome2	4.1	2.07	4000.0	Yes		-2.0324650811627				ISIRate	Mixed
11.0	1	156.835	0.03	203.905	10.1	-0.82	16.9963	3.0	955.0	4.2	Outcome2	-1.65	10.1	0.0	No	2.0	11.7542468856172	1.592	158.427		GetAnswer	Gain
11.0	1	158.451	0.024	205.521	10.1	-0.82	16.9963	4.0	955.0	4.2	Outcome2	-1.65	10.1	0.0	No		11.7542468856172				ShowChoice	Gain
11.0	1	162.466	0.015	209.536	10.1	-0.82	16.9963	1.0	955.0	4.2	Outcome2	-1.65	10.1	0.0	No		11.7542468856172				ShowResult	Gain
11.0	1	163.483	0.017	210.553	10.1	-0.82	16.9963	3.324	955.0	4.2	Outcome2	-1.65	10.1	0.0	No		11.7542468856172				ISITrial	Gain
12.0	1	166.832	0.025	213.902	-0.59	0.0	16.9225	3.0	955.0	0.82	Outcome2	1.5	-0.59	2618.75	Yes	2.0	-2.09343148357871	1.956	168.788		GetAnswer	Mixed
12.0	1	168.814	0.026	215.884	-0.59	0.0	16.9225	4.0	955.0	0.82	Outcome2	1.5	-0.59	2618.75	Yes		-2.09343148357871				ShowChoice	Mixed
12.0	1	172.83	0.016	219.9	-0.59	0.0	16.9225	1.0	955.0	0.82	Outcome2	1.5	-0.59	2618.75	Yes		-2.09343148357871				ShowResult	Mixed
12.0	1	173.846	0.016	220.916	-0.59	0.0	16.9225	6.642	955.0	0.82	Outcome2	1.5	-0.59	2618.75	Yes		-2.09343148357871				ISITrial	Mixed
12.0	1	183.159	0.03	230.229	-0.59	0.0	16.9225	0.0	955.0	0.82	Outcome2	1.5	-0.59	2618.75	Yes		-2.09343148357871			512.0	TrialHappiness	Mixed
12.0	1	187.175	4.016	234.245	-0.59	0.0	16.9225	2.475	955.0	0.82	Outcome2	1.5	-0.59	2618.75	Yes		-2.09343148357871				ISIRate	Mixed
13.0	1	189.674	0.024	236.744	-5.0	-5.0	16.2975	3.0	955.0	1.0	Certain	-11.59	1.7	0.0	No	4.0	13.287655719139302	2.172	191.846		GetAnswer	Mixed
13.0	1	191.873	0.027	238.943	-5.0	-5.0	16.2975	4.0	955.0	1.0	Certain	-11.59	1.7	0.0	No		13.287655719139302				ShowChoice	Mixed
13.0	1	195.888	0.015	242.958	-5.0	-5.0	16.2975	1.0	955.0	1.0	Certain	-11.59	1.7	0.0	No		13.287655719139302				ShowResult	Mixed
13.0	1	196.905	0.017	243.975	-5.0	-5.0	16.2975	3.48	955.0	1.0	Certain	-11.59	1.7	0.0	No		13.287655719139302				ISITrial	Mixed
14.0	1	200.42	0.035	247.49	4.3	-2.0	16.835	3.0	955.0	2.0	Outcome1	4.3	-9.49	0.0	No	2.0	13.789354473386199	1.88	202.3		GetAnswer	Mixed
14.0	1	202.319	0.019	249.389	4.3	-2.0	16.835	4.0	955.0	2.0	Outcome1	4.3	-9.49	0.0	No		13.789354473386199				ShowChoice	Mixed
14.0	1	206.335	0.016	253.405	4.3	-2.0	16.835	1.0	955.0	2.0	Outcome1	4.3	-9.49	0.0	No		13.789354473386199				ShowResult	Mixed
14.0	1	207.351	0.016	254.421	4.3	-2.0	16.835	5.019	955.0	2.0	Outcome1	4.3	-9.49	0.0	No		13.789354473386199				ISITrial	Mixed
15.0	1	212.399	0.029	259.469	-0.1	-7.0	16.8225	3.0	955.0	1.2	Outcome2	-14.39	-0.1	3348.5	Yes	2.0	14.2910532276331	2.604	215.003		GetAnswer	Mixed
15.0	1	215.032	0.029	262.102	-0.1	-7.0	16.8225	4.0	955.0	1.2	Outcome2	-14.39	-0.1	3348.5	Yes		14.2910532276331				ShowChoice	Mixed
15.0	1	219.047	0.015	266.117	-0.1	-7.0	16.8225	1.0	955.0	1.2	Outcome2	-14.39	-0.1	3348.5	Yes		14.2910532276331				ShowResult	Mixed
15.0	1	220.063	0.016	267.133	-0.1	-7.0	16.8225	7.614	955.0	1.2	Outcome2	-14.39	-0.1	3348.5	Yes		14.2910532276331				ISITrial	Mixed
15.0	1	231.059	0.017	278.129	-0.1	-7.0	16.8225	0.691	955.0	1.2	Outcome2	-14.39	-0.1	3348.5	Yes		14.2910532276331			552.0	TrialHappiness	Mixed
15.0	1	235.075	4.016	282.145	-0.1	-7.0	16.8225	5.394	955.0	1.2	Outcome2	-14.39	-0.1	3348.5	Yes		14.2910532276331				ISIRate	Mixed
16.0	1	240.49	0.021	287.56	8.1	1.0	17.835	3.0	955.0	4.2	Outcome1	8.1	-6.01	0.0	No	2.0	14.113250283125698	2.401	242.891		GetAnswer	Gain
16.0	1	242.905	0.014	289.975	8.1	1.0	17.835	4.0	955.0	4.2	Outcome1	8.1	-6.01	0.0	No		14.113250283125698				ShowChoice	Gain
16.0	1	246.921	0.016	293.991	8.1	1.0	17.835	1.0	955.0	4.2	Outcome1	8.1	-6.01	0.0	No		14.113250283125698				ShowResult	Gain
16.0	1	247.937	0.016	295.007	8.1	1.0	17.835	3.008	955.0	4.2	Outcome1	8.1	-6.01	0.0	No		14.113250283125698				ISITrial	Gain
17.0	1	250.969	0.024	298.039	2.0	2.0	18.085	3.0	955.0	3.6	Certain	9.9	-4.67	3041.5	Yes	4.0	14.5696489241223	2.377	253.346		GetAnswer	Gain
17.0	1	253.368	0.022	300.438	2.0	2.0	18.085	4.0	955.0	3.6	Certain	9.9	-4.67	3041.5	Yes		14.5696489241223				ShowChoice	Gain
17.0	1	257.384	0.016	304.454	2.0	2.0	18.085	1.0	955.0	3.6	Certain	9.9	-4.67	3041.5	Yes		14.5696489241223				ShowResult	Gain
17.0	1	258.4	0.016	305.47	2.0	2.0	18.085	3.566	955.0	3.6	Certain	9.9	-4.67	3041.5	Yes		14.5696489241223				ISITrial	Gain
17.0	1	265.048	0.024	312.118	2.0	2.0	18.085	3.374	955.0	3.6	Certain	9.9	-4.67	3041.5	Yes		14.5696489241223			552.0	TrialHappiness	Gain
17.0	1	269.063	4.015	316.133	2.0	2.0	18.085	4.166	955.0	3.6	Certain	9.9	-4.67	3041.5	Yes		14.5696489241223				ISIRate	Gain
18.0	1	273.262	0.033	320.332	-1.5	-9.0	17.8975	3.0	955.0	0.2	Outcome2	-16.53	-1.5	0.0	No	2.0	15.0260475651189	1.595	274.857		GetAnswer	Mixed
18.0	1	274.878	0.021	321.948	-1.5	-9.0	17.8975	4.0	955.0	0.2	Outcome2	-16.53	-1.5	0.0	No		15.0260475651189				ShowChoice	Mixed
18.0	1	278.893	0.015	325.963	-1.5	-9.0	17.8975	1.0	955.0	0.2	Outcome2	-16.53	-1.5	0.0	No		15.0260475651189				ShowResult	Mixed
18.0	1	279.909	0.016	326.979	-1.5	-9.0	17.8975	6.787	955.0	0.2	Outcome2	-16.53	-1.5	0.0	No		15.0260475651189				ISITrial	Mixed
19.0	1	286.724	0.028	333.794	2.0	2.0	18.1475	3.0	955.0	2.8	Certain	-5.98	9.5	0.0	No	4.0	15.482446206115501	1.17	287.894		GetAnswer	Gain
19.0	1	287.923	0.029	334.993	2.0	2.0	18.1475	4.0	955.0	2.8	Certain	-5.98	9.5	0.0	No		15.482446206115501				ShowChoice	Gain
19.0	1	291.938	0.015	339.008	2.0	2.0	18.1475	1.0	955.0	2.8	Certain	-5.98	9.5	0.0	No		15.482446206115501				ShowResult	Gain
19.0	1	292.955	0.017	340.025	2.0	2.0	18.1475	2.0	955.0	2.8	Certain	-5.98	9.5	0.0	No		15.482446206115501				ISITrial	Gain
20.0	1	294.987	0.032	342.057	-5.0	-5.0	17.5225	3.0	955.0	0.4	Certain	2.9	-13.04	2921.25	Yes	4.0	15.938844847112101	1.712	296.699		GetAnswer	Mixed
20.0	1	296.72	0.021	343.79	-5.0	-5.0	17.5225	4.0	955.0	0.4	Certain	2.9	-13.04	2921.25	Yes		15.938844847112101				ShowChoice	Mixed
20.0	1	300.735	0.015	347.805	-5.0	-5.0	17.5225	1.0	955.0	0.4	Certain	2.9	-13.04	2921.25	Yes		15.938844847112101				ShowResult	Mixed
20.0	1	301.752	0.017	348.822	-5.0	-5.0	17.5225	8.0	955.0	0.4	Certain	2.9	-13.04	2921.25	Yes		15.938844847112101				ISITrial	Mixed
20.0	1	312.715	0.028	359.785	-5.0	-5.0	17.5225	3.821	955.0	0.4	Certain	2.9	-13.04	2921.25	Yes		15.938844847112101			504.0	TrialHappiness	Mixed
20.0	1	316.73	4.015	363.8	-5.0	-5.0	17.5225	3.685	955.0	0.4	Certain	2.9	-13.04	2921.25	Yes		15.938844847112101				ISIRate	Mixed
21.0	1	320.445	0.03	367.515	9.47	4.74	18.7063	3.0	955.0	4.2	Outcome1	9.47	12.1	0.0	No	2.0	-2.6259909399773504	1.449	321.894		GetAnswer	Loss
21.0	1	321.911	0.017	368.981	9.47	4.74	18.7063	4.0	955.0	4.2	Outcome1	9.47	12.1	0.0	No		-2.6259909399773504				ShowChoice	Loss
21.0	1	325.927	0.016	372.997	9.47	4.74	18.7063	1.0	955.0	4.2	Outcome1	9.47	12.1	0.0	No		-2.6259909399773504				ShowResult	Loss
21.0	1	326.943	0.016	374.013	9.47	4.74	18.7063	3.555	955.0	4.2	Outcome1	9.47	12.1	0.0	No		-2.6259909399773504				ISITrial	Loss
22.0	1	330.525	0.027	377.595	0.0	0.0	18.7063	3.0	955.0	1.68	Certain	8.5	-9.22	3219.5	Yes	4.0	17.721404303510802	1.421	331.946		GetAnswer	Gain
22.0	1	331.975	0.029	379.045	0.0	0.0	18.7063	4.0	955.0	1.68	Certain	8.5	-9.22	3219.5	Yes		17.721404303510802				ShowChoice	Gain
22.0	1	335.99	0.015	383.06	0.0	0.0	18.7063	1.0	955.0	1.68	Certain	8.5	-9.22	3219.5	Yes		17.721404303510802				ShowResult	Gain
22.0	1	337.006	0.016	384.076	0.0	0.0	18.7063	6.793	955.0	1.68	Certain	8.5	-9.22	3219.5	Yes		17.721404303510802				ISITrial	Gain
22.0	1	347.069	0.029	394.139	0.0	0.0	18.7063	1.398	955.0	1.68	Certain	8.5	-9.22	3219.5	Yes		17.721404303510802			532.0	TrialHappiness	Gain
22.0	1	351.085	4.016	398.155	0.0	0.0	18.7063	4.878	955.0	1.68	Certain	8.5	-9.22	3219.5	Yes		17.721404303510802				ISIRate	Gain
23.0	1	355.983	0.02	403.053	3.9	1.95	19.1938	3.0	955.0	1.68	Outcome2	6.5	3.9	0.0	No	2.0	-2.5974896187240497	1.417	357.4		GetAnswer	Gain
23.0	1	357.416	0.016	404.486	3.9	1.95	19.1938	4.0	955.0	1.68	Outcome2	6.5	3.9	0.0	No		-2.5974896187240497				ShowChoice	Gain
23.0	1	361.431	0.015	408.501	3.9	1.95	19.1938	1.0	955.0	1.68	Outcome2	6.5	3.9	0.0	No		-2.5974896187240497				ShowResult	Gain
23.0	1	362.447	0.016	409.517	3.9	1.95	19.1938	8.0	955.0	1.68	Outcome2	6.5	3.9	0.0	No		-2.5974896187240497				ISITrial	Gain
24.0	1	370.478	0.031	417.548	-8.0	-8.0	18.1938	3.0	955.0	0.4	Certain	-17.34	0.9	3255.0	Yes	4.0	18.2355605889015	2.958	373.436		GetAnswer	Mixed
24.0	1	373.46	0.023	420.53	-8.0	-8.0	18.1938	4.0	955.0	0.4	Certain	-17.34	0.9	3255.0	Yes		18.2355605889015				ShowChoice	Mixed
24.0	1	377.475	0.015	424.545	-8.0	-8.0	18.1938	1.0	955.0	0.4	Certain	-17.34	0.9	3255.0	Yes		18.2355605889015				ShowResult	Mixed
24.0	1	378.492	0.017	425.562	-8.0	-8.0	18.1938	2.0	955.0	0.4	Certain	-17.34	0.9	3255.0	Yes		18.2355605889015				ISITrial	Mixed
24.0	1	383.79	0.027	430.86	-8.0	-8.0	18.1938	0.0	955.0	0.4	Certain	-17.34	0.9	3255.0	Yes		18.2355605889015			512.0	TrialHappiness	Mixed
24.0	1	387.805	4.015	434.875	-8.0	-8.0	18.1938	5.02	955.0	0.4	Certain	-17.34	0.9	3255.0	Yes		18.2355605889015				ISIRate	Mixed
25.0	1	392.853	0.028	439.923	-0.5	-10.0	18.1313	3.0	955.0	0.82	Outcome2	-19.55	-0.5	0.0	No		19.054360135900303				GetAnswer	Mixed
25.0	1	395.869	0.016	442.939	-0.5	-10.0	18.1313	4.0	955.0	0.82	Outcome2	-19.55	-0.5	0.0	No		19.054360135900303				ShowChoice	Mixed
25.0	1	399.884	0.015	446.954	-0.5	-10.0	18.1313	1.0	955.0	0.82	Outcome2	-19.55	-0.5	0.0	No		19.054360135900303				ShowResult	Mixed
25.0	1	400.901	0.017	447.971	-0.5	-10.0	18.1313	3.749	955.0	0.82	Outcome2	-19.55	-0.5	0.0	No		19.054360135900303				ISITrial	Mixed
26.0	1	404.683	0.033	451.753	-5.0	-5.0	17.5063	3.0	955.0	1.82	Certain	-14.86	4.7	0.0	No	4.0	19.5560588901472	1.982	406.665		GetAnswer	Gain
26.0	1	406.682	0.017	453.752	-5.0	-5.0	17.5063	4.0	955.0	1.82	Certain	-14.86	4.7	0.0	No		19.5560588901472				ShowChoice	Gain
26.0	1	410.697	0.015	457.767	-5.0	-5.0	17.5063	1.0	955.0	1.82	Certain	-14.86	4.7	0.0	No		19.5560588901472				ShowResult	Gain
26.0	1	411.714	0.017	458.784	-5.0	-5.0	17.5063	7.834	955.0	1.82	Certain	-14.86	4.7	0.0	No		19.5560588901472				ISITrial	Gain
27.0	1	419.578	0.03	466.648	1.0	1.0	17.6313	3.0	955.0	2.8	Certain	11.5	-8.56	2549.75	Yes	4.0	20.0577576443941	1.896	421.474		GetAnswer	Loss
27.0	1	421.494	0.02	468.564	1.0	1.0	17.6313	4.0	955.0	2.8	Certain	11.5	-8.56	2549.75	Yes		20.0577576443941				ShowChoice	Loss
27.0	1	425.509	0.015	472.579	1.0	1.0	17.6313	1.0	955.0	2.8	Certain	11.5	-8.56	2549.75	Yes		20.0577576443941				ShowResult	Loss
27.0	1	426.525	0.016	473.595	1.0	1.0	17.6313	4.225	955.0	2.8	Certain	11.5	-8.56	2549.75	Yes		20.0577576443941				ISITrial	Loss
27.0	1	433.356	0.032	480.426	1.0	1.0	17.6313	0.0	955.0	2.8	Certain	11.5	-8.56	2549.75	Yes		20.0577576443941			512.0	TrialHappiness	Loss
27.0	1	437.371	4.015	484.441	1.0	1.0	17.6313	2.199	955.0	2.8	Certain	11.5	-8.56	2549.75	Yes		20.0577576443941				ISIRate	Loss
	1	439.604	0.034	486.674				-0.001								{SPACE}		27.066	466.67		Rest	
	1	466.695	0.025	513.765				4.0													BlockHappyPreview	
	1	470.71	0.015	517.78				3.931												508.0	BlockStartHappiness	
	1	477.524	0.022	524.594				-0.001								5.0		9.727	487.251		ScanWait	
	2	0.02	0.02	534.341				10.0													GetReady	
28.0	2	10.05	0.03	544.371	-2.0	-2.0	17.3813	3.0	70.0	1.2	Certain	-5.55	1.9	0.0	No	4.0	-7.44897959183673	1.739	11.789		GetAnswer	Mixed
28.0	2	11.816	0.027	546.137	-2.0	-2.0	17.3813	4.0	70.0	1.2	Certain	-5.55	1.9	0.0	No		-7.44897959183673				ShowChoice	Mixed
28.0	2	15.831	0.015	550.152	-2.0	-2.0	17.3813	1.0	70.0	1.2	Certain	-5.55	1.9	0.0	No		-7.44897959183673				ShowResult	Mixed
28.0	2	16.847	0.016	551.168	-2.0	-2.0	17.3813	3.575	70.0	1.2	Certain	-5.55	1.9	0.0	No		-7.44897959183673				ISITrial	Mixed
29.0	2	20.446	0.024	554.767	0.82	0.0	17.4838	3.0	70.0	0.66	Outcome1	0.82	-1.0	3529.0	Yes	2.0	1.82086167800454	2.11	22.556		GetAnswer	Mixed
29.0	2	22.579	0.023	556.9	0.82	0.0	17.4838	4.0	70.0	0.66	Outcome1	0.82	-1.0	3529.0	Yes		1.82086167800454				ShowChoice	Mixed
29.0	2	26.594	0.015	560.915	0.82	0.0	17.4838	1.0	70.0	0.66	Outcome1	0.82	-1.0	3529.0	Yes		1.82086167800454				ShowResult	Mixed
29.0	2	27.61	0.016	561.931	0.82	0.0	17.4838	3.955	70.0	0.66	Outcome1	0.82	-1.0	3529.0	Yes		1.82086167800454				ISITrial	Mixed
29.0	2	35.141	0.02	569.462	0.82	0.0	17.4838	1.897	70.0	0.66	Outcome1	0.82	-1.0	3529.0	Yes		1.82086167800454			532.0	TrialHappiness	Mixed
29.0	2	39.156	4.015	573.477	0.82	0.0	17.4838	6.116	70.0	0.66	Outcome1	0.82	-1.0	3529.0	Yes		1.82086167800454				ISIRate	Mixed
30.0	2	45.304	0.032	579.625	-5.15	0.0	16.84	3.0	70.0	1.0	Outcome1	-5.15	3.7	0.0	No	2.0	-8.85034013605442	2.209	47.513		GetAnswer	Mixed
30.0	2	47.537	0.024	581.858	-5.15	0.0	16.84	4.0	70.0	1.0	Outcome1	-5.15	3.7	0.0	No		-8.85034013605442				ShowChoice	Mixed
30.0	2	51.552	0.015	585.873	-5.15	0.0	16.84	1.0	70.0	1.0	Outcome1	-5.15	3.7	0.0	No		-8.85034013605442				ShowResult	Mixed
30.0	2	52.568	0.016	586.889	-5.15	0.0	16.84	4.453	70.0	1.0	Outcome1	-5.15	3.7	0.0	No		-8.85034013605442				ISITrial	Mixed
31.0	2	57.05	0.029	591.371	2.42	1.0	17.1425	3.0	70.0	3.16	Outcome2	0.42	2.42	2503.25	Yes	2.0	2.00340136054422	1.525	58.575		GetAnswer	Gain
31.0	2	58.6	0.025	592.921	2.42	1.0	17.1425	4.0	70.0	3.16	Outcome2	0.42	2.42	2503.25	Yes		2.00340136054422				ShowChoice	Gain
31.0	2	62.615	0.015	596.936	2.42	1.0	17.1425	1.0	70.0	3.16	Outcome2	0.42	2.42	2503.25	Yes		2.00340136054422				ShowResult	Gain
31.0	2	63.631	0.016	597.952	2.42	1.0	17.1425	4.786	70.0	3.16	Outcome2	0.42	2.42	2503.25	Yes		2.00340136054422				ISITrial	Gain
31.0	2	70.979	0.03	605.3	2.42	1.0	17.1425	1.524	70.0	3.16	Outcome2	0.42	2.42	2503.25	Yes		2.00340136054422			528.0	TrialHappiness	Gain
31.0	2	75.011	4.032	609.332	2.42	1.0	17.1425	2.013	70.0	3.16	Outcome2	0.42	2.42	2503.25	Yes		2.00340136054422				ISIRate	Gain
32.0	2	77.043	0.019	611.364	2.17	1.0	17.4137	3.0	70.0	1.82	Outcome2	0.14	2.17	0.0	No	2.0	2.03080120937264	1.243	78.286		GetAnswer	Gain
32.0	2	78.309	0.023	612.63	2.17	1.0	17.4137	4.0	70.0	1.82	Outcome2	0.14	2.17	0.0	No		2.03080120937264				ShowChoice	Gain
32.0	2	82.325	0.016	616.646	2.17	1.0	17.4137	1.0	70.0	1.82	Outcome2	0.14	2.17	0.0	No		2.03080120937264				ShowResult	Gain
32.0	2	83.341	0.016	617.662	2.17	1.0	17.4137	2.0	70.0	1.82	Outcome2	0.14	2.17	0.0	No		2.03080120937264				ISITrial	Gain
33.0	2	85.374	0.033	619.695	0.15	0.08	17.4325	3.0	70.0	1.68	Outcome1	0.15	10.5	0.0	No	2.0	-10.349206349206302	1.902	87.276		GetAnswer	Loss
33.0	2	87.306	0.03	621.627	0.15	0.08	17.4325	4.0	70.0	1.68	Outcome1	0.15	10.5	0.0	No		-10.349206349206302				ShowChoice	Loss
33.0	2	91.322	0.016	625.643	0.15	0.08	17.4325	1.0	70.0	1.68	Outcome1	0.15	10.5	0.0	No		-10.349206349206302				ShowResult	Loss
33.0	2	92.338	0.016	626.659	0.15	0.08	17.4325	5.099	70.0	1.68	Outcome1	0.15	10.5	0.0	No		-10.349206349206302				ISITrial	Loss
34.0	2	97.469	0.032	631.79	1.63	0.82	17.6363	3.0	70.0	1.68	Outcome1	1.63	12.5	3231.5	Yes	2.0	-10.8684807256236	1.389	98.858		GetAnswer	Loss
34.0	2	98.886	0.028	633.207	1.63	0.82	17.6363	4.0	70.0	1.68	Outcome1	1.63	12.5	3231.5	Yes		-10.8684807256236				ShowChoice	Loss
34.0	2	102.901	0.015	637.222	1.63	0.82	17.6363	1.0	70.0	1.68	Outcome1	1.63	12.5	3231.5	Yes		-10.8684807256236				ShowResult	Loss
34.0	2	103.917	0.016	638.238	1.63	0.82	17.6363	4.784	70.0	1.68	Outcome1	1.63	12.5	3231.5	Yes		-10.8684807256236				ISITrial	Loss
34.0	2	111.981	0.033	646.302	1.63	0.82	17.6363	3.138	70.0	1.68	Outcome1	1.63	12.5	3231.5	Yes		-10.8684807256236			496.0	TrialHappiness	Loss
34.0	2	115.996	4.015	650.317	1.63	0.82	17.6363	4.926	70.0	1.68	Outcome1	1.63	12.5	3231.5	Yes		-10.8684807256236				ISIRate	Loss
35.0	2	120.945	0.023	655.266	-8.54	-3.0	16.5688	3.0	70.0	2.0	Outcome2	2.3	-8.54	0.0	No	2.0	-10.843537414965999	2.242	123.187		GetAnswer	Mixed
35.0	2	123.211	0.024	657.532	-8.54	-3.0	16.5688	4.0	70.0	2.0	Outcome2	2.3	-8.54	0.0	No		-10.843537414965999				ShowChoice	Mixed
35.0	2	127.226	0.015	661.547	-8.54	-3.0	16.5688	1.0	70.0	2.0	Outcome2	2.3	-8.54	0.0	No		-10.843537414965999				ShowResult	Mixed
35.0	2	128.242	0.016	662.563	-8.54	-3.0	16.5688	2.098	70.0	2.0	Outcome2	2.3	-8.54	0.0	No		-10.843537414965999				ISITrial	Mixed
36.0	2	130.375	0.035	664.696	0.0	0.0	16.5688	3.0	70.0	1.68	Certain	-0.95	1.12	3335.75	Yes	4.0	2.07086167800454	1.735	132.11		GetAnswer	Gain
36.0	2	132.124	0.013	666.445	0.0	0.0	16.5688	4.0	70.0	1.68	Certain	-0.95	1.12	3335.75	Yes		2.07086167800454				ShowChoice	Gain
36.0	2	136.139	0.015	670.46	0.0	0.0	16.5688	1.0	70.0	1.68	Certain	-0.95	1.12	3335.75	Yes		2.07086167800454				ShowResult	Gain
36.0	2	137.156	0.017	671.477	0.0	0.0	16.5688	5.156	70.0	1.68	Certain	-0.95	1.12	3335.75	Yes		2.07086167800454				ISITrial	Gain
36.0	2	145.703	0.03	680.024	0.0	0.0	16.5688	1.14	70.0	1.68	Certain	-0.95	1.12	3335.75	Yes		2.07086167800454			536.0	TrialHappiness	Gain
36.0	2	149.718	4.015	684.039	0.0	0.0	16.5688	5.343	70.0	1.68	Certain	-0.95	1.12	3335.75	Yes		2.07086167800454				ISIRate	Gain
37.0	2	155.083	0.022	689.404	0.08	-1.0	16.5788	3.0	70.0	2.0	Outcome1	0.08	-2.19	0.0	No	2.0	2.27362055933485	2.64	157.723		GetAnswer	Mixed
37.0	2	157.749	0.026	692.07	0.08	-1.0	16.5788	4.0	70.0	2.0	Outcome1	0.08	-2.19	0.0	No		2.27362055933485				ShowChoice	Mixed
37.0	2	161.764	0.015	696.085	0.08	-1.0	16.5788	1.0	70.0	2.0	Outcome1	0.08	-2.19	0.0	No		2.27362055933485				ShowResult	Mixed
37.0	2	162.78	0.016	697.101	0.08	-1.0	16.5788	3.598	70.0	2.0	Outcome1	0.08	-2.19	0.0	No		2.27362055933485				ISITrial	Mixed
38.0	2	166.412	0.034	700.733	-1.92	-0.96	16.3388	3.0	70.0	2.22	Outcome2	11.1	-1.92	0.0	No	2.0	-13.0181405895692	1.576	167.988		GetAnswer	Loss
38.0	2	168.012	0.024	702.333	-1.92	-0.96	16.3388	4.0	70.0	2.22	Outcome2	11.1	-1.92	0.0	No		-13.0181405895692				ShowChoice	Loss
38.0	2	172.027	0.015	706.348	-1.92	-0.96	16.3388	1.0	70.0	2.22	Outcome2	11.1	-1.92	0.0	No		-13.0181405895692				ShowResult	Loss
38.0	2	173.043	0.016	707.364	-1.92	-0.96	16.3388	4.787	70.0	2.22	Outcome2	11.1	-1.92	0.0	No		-13.0181405895692				ISITrial	Loss
39.0	2	177.858	0.028	712.179	1.72	0.0	16.5538	3.0	70.0	2.0	Outcome1	1.72	-0.64	2864.25	Yes	2.0	2.36167800453515	1.794	179.652		GetAnswer	Gain
39.0	2	179.674	0.022	713.995	1.72	0.0	16.5538	4.0	70.0	2.0	Outcome1	1.72	-0.64	2864.25	Yes		2.36167800453515				ShowChoice	Gain
39.0	2	183.69	0.016	718.011	1.72	0.0	16.5538	1.0	70.0	2.0	Outcome1	1.72	-0.64	2864.25	Yes		2.36167800453515				ShowResult	Gain
39.0	2	184.706	0.016	719.027	1.72	0.0	16.5538	2.348	70.0	2.0	Outcome1	1.72	-0.64	2864.25	Yes		2.36167800453515				ISITrial	Gain
39.0	2	189.954	0.018	724.275	1.72	0.0	16.5538	0.736	70.0	2.0	Outcome1	1.72	-0.64	2864.25	Yes		2.36167800453515			520.0	TrialHappiness	Gain
39.0	2	193.969	4.015	728.29	1.72	0.0	16.5538	3.457	70.0	2.0	Outcome1	1.72	-0.64	2864.25	Yes		2.36167800453515				ISIRate	Gain
40.0	2	197.452	0.026	731.773	-0.1	-0.05	16.5413	3.0	70.0	3.16	Outcome2	13.7	-0.1	0.0	No	2.0	-13.8027210884354	1.458	198.91		GetAnswer	Loss
40.0	2	198.934	0.024	733.255	-0.1	-0.05	16.5413	4.0	70.0	3.16	Outcome2	13.7	-0.1	0.0	No		-13.8027210884354				ShowChoice	Loss
40.0	2	202.95	0.016	737.271	-0.1	-0.05	16.5413	1.0	70.0	3.16	Outcome2	13.7	-0.1	0.0	No		-13.8027210884354				ShowResult	Loss
40.0	2	203.966	0.016	738.287	-0.1	-0.05	16.5413	3.158	70.0	3.16	Outcome2	13.7	-0.1	0.0	No		-13.8027210884354				ISITrial	Loss
41.0	2	207.148	0.024	741.469	-0.08	-1.0	16.5313	3.0	70.0	1.0	Outcome2	-2.46	-0.08	4000.0	Yes	2.0	2.38321995464853	1.693	208.841		GetAnswer	Mixed
41.0	2	208.864	0.023	743.185	-0.08	-1.0	16.5313	4.0	70.0	1.0	Outcome2	-2.46	-0.08	4000.0	Yes		2.38321995464853				ShowChoice	Mixed
41.0	2	212.88	0.016	747.201	-0.08	-1.0	16.5313	1.0	70.0	1.0	Outcome2	-2.46	-0.08	4000.0	Yes		2.38321995464853				ShowResult	Mixed
41.0	2	213.896	0.016	748.217	-0.08	-1.0	16.5313	4.506	70.0	1.0	Outcome2	-2.46	-0.08	4000.0	Yes		2.38321995464853				ISITrial	Mixed
41.0	2	222.46	0.032	756.781	-0.08	-1.0	16.5313	2.543	70.0	1.0	Outcome2	-2.46	-0.08	4000.0	Yes		2.38321995464853			532.0	TrialHappiness	Mixed
41.0	2	226.475	4.015	760.796	-0.08	-1.0	16.5313	8.0	70.0	1.0	Outcome2	-2.46	-0.08	4000.0	Yes		2.38321995464853				ISIRate	Mixed
42.0	2	234.505	0.03	768.826	-8.0	-8.0	15.5313	3.0	70.0	0.52	Certain	-0.9	-15.93	0.0	No	4.0	-15.0272108843537	2.286	236.791		GetAnswer	Mixed
42.0	2	236.805	0.014	771.126	-8.0	-8.0	15.5313	4.0	70.0	0.52	Certain	-0.9	-15.93	0.0	No		-15.0272108843537				ShowChoice	Mixed
42.0	2	240.837	0.032	775.158	-8.0	-8.0	15.5313	1.0	70.0	0.52	Certain	-0.9	-15.93	0.0	No		-15.0272108843537				ShowResult	Mixed
42.0	2	241.853	0.016	776.174	-8.0	-8.0	15.5313	6.248	70.0	0.52	Certain	-0.9	-15.93	0.0	No		-15.0272108843537				ISITrial	Mixed
43.0	2	248.134	0.033	782.455	-6.25	1.0	14.7501	3.0	70.0	2.48	Outcome2	9.3	-6.25	2775.75	Yes	2.0	-15.551020408163302	1.324	249.458		GetAnswer	Gain
43.0	2	249.484	0.025	783.805	-6.25	1.0	14.7501	4.0	70.0	2.48	Outcome2	9.3	-6.25	2775.75	Yes		-15.551020408163302				ShowChoice	Gain
43.0	2	253.516	0.032	787.837	-6.25	1.0	14.7501	1.0	70.0	2.48	Outcome2	9.3	-6.25	2775.75	Yes		-15.551020408163302				ShowResult	Gain
43.0	2	254.532	0.016	788.853	-6.25	1.0	14.7501	4.596	70.0	2.48	Outcome2	9.3	-6.25	2775.75	Yes		-15.551020408163302				ISITrial	Gain
43.0	2	261.946	0.023	796.267	-6.25	1.0	14.7501	0.0	70.0	2.48	Outcome2	9.3	-6.25	2775.75	Yes		-15.551020408163302			512.0	TrialHappiness	Gain
43.0	2	265.961	4.015	800.282	-6.25	1.0	14.7501	3.103	70.0	2.48	Outcome2	9.3	-6.25	2775.75	Yes		-15.551020408163302				ISIRate	Gain
44.0	2	269.093	0.029	803.414	-15.23	-7.0	12.8463	3.0	70.0	0.2	Outcome2	0.5	-15.23	0.0	No	2.0	-15.734693877551	2.126	271.219		GetAnswer	Mixed
44.0	2	271.243	0.024	805.564	-15.23	-7.0	12.8463	4.0	70.0	0.2	Outcome2	0.5	-15.23	0.0	No		-15.734693877551				ShowChoice	Mixed
44.0	2	275.258	0.015	809.579	-15.23	-7.0	12.8463	1.0	70.0	0.2	Outcome2	0.5	-15.23	0.0	No		-15.734693877551				ShowResult	Mixed
44.0	2	276.274	0.016	810.595	-15.23	-7.0	12.8463	2.42	70.0	0.2	Outcome2	0.5	-15.23	0.0	No		-15.734693877551				ISITrial	Mixed
45.0	2	278.723	0.029	813.044	-5.0	-5.0	12.2213	3.0	70.0	0.2	Certain	2.5	-13.74	0.0	No	4.0	-16.2358276643991	1.704	280.427		GetAnswer	Mixed
45.0	2	280.456	0.029	814.777	-5.0	-5.0	12.2213	4.0	70.0	0.2	Certain	2.5	-13.74	0.0	No		-16.2358276643991				ShowChoice	Mixed
45.0	2	284.471	0.015	818.792	-5.0	-5.0	12.2213	1.0	70.0	0.2	Certain	2.5	-13.74	0.0	No		-16.2358276643991				ShowResult	Mixed
45.0	2	285.488	0.017	819.809	-5.0	-5.0	12.2213	3.144	70.0	0.2	Certain	2.5	-13.74	0.0	No		-16.2358276643991				ISITrial	Mixed
46.0	2	288.653	0.021	822.974	0.0	0.0	12.2213	3.0	70.0	0.3	Certain	-1.88	0.68	3841.25	Yes	4.0	2.5640589569161	2.102	290.755		GetAnswer	Mixed
46.0	2	290.769	0.014	825.09	0.0	0.0	12.2213	4.0	70.0	0.3	Certain	-1.88	0.68	3841.25	Yes		2.5640589569161				ShowChoice	Mixed
46.0	2	294.785	0.016	829.106	0.0	0.0	12.2213	1.0	70.0	0.3	Certain	-1.88	0.68	3841.25	Yes		2.5640589569161				ShowResult	Mixed
46.0	2	295.801	0.016	830.122	0.0	0.0	12.2213	2.246	70.0	0.3	Certain	-1.88	0.68	3841.25	Yes		2.5640589569161				ISITrial	Mixed
46.0	2	301.932	0.024	836.253	0.0	0.0	12.2213	2.406	70.0	0.3	Certain	-1.88	0.68	3841.25	Yes		2.5640589569161			504.0	TrialHappiness	Mixed
46.0	2	305.947	4.015	840.268	0.0	0.0	12.2213	7.365	70.0	0.3	Certain	-1.88	0.68	3841.25	Yes		2.5640589569161				ISIRate	Mixed
47.0	2	313.345	0.033	847.666	-11.2	-2.0	10.8213	3.0	70.0	3.6	Outcome1	-11.2	5.9	0.0	No	2.0	-17.1020408163265	2.164	315.509		GetAnswer	Gain
47.0	2	315.527	0.018	849.848	-11.2	-2.0	10.8213	4.0	70.0	3.6	Outcome1	-11.2	5.9	0.0	No		-17.1020408163265				ShowChoice	Gain
47.0	2	319.543	0.016	853.864	-11.2	-2.0	10.8213	1.0	70.0	3.6	Outcome1	-11.2	5.9	0.0	No		-17.1020408163265				ShowResult	Gain
47.0	2	320.559	0.016	854.88	-11.2	-2.0	10.8213	2.0	70.0	3.6	Outcome1	-11.2	5.9	0.0	No		-17.1020408163265				ISITrial	Gain
48.0	2	322.592	0.033	856.913	0.0	0.0	10.8213	3.0	70.0	0.82	Certain	0.88	-1.73	2831.75	Yes	4.0	2.61432350718065	1.533	324.125		GetAnswer	Mixed
48.0	2	324.158	0.033	858.479	0.0	0.0	10.8213	4.0	70.0	0.82	Certain	0.88	-1.73	2831.75	Yes		2.61432350718065				ShowChoice	Mixed
48.0	2	328.173	0.015	862.494	0.0	0.0	10.8213	1.0	70.0	0.82	Certain	0.88	-1.73	2831.75	Yes		2.61432350718065				ShowResult	Mixed
48.0	2	329.189	0.016	863.51	0.0	0.0	10.8213	3.692	70.0	0.82	Certain	0.88	-1.73	2831.75	Yes		2.61432350718065				ISITrial	Mixed
48.0	2	335.77	0.033	870.091	0.0	0.0	10.8213	1.758	70.0	0.82	Certain	0.88	-1.73	2831.75	Yes		2.61432350718065			508.0	TrialHappiness	Mixed
48.0	2	339.786	4.016	874.107	0.0	0.0	10.8213	3.327	70.0	0.82	Certain	0.88	-1.73	2831.75	Yes		2.61432350718065				ISIRate	Mixed
49.0	2	343.135	0.022	877.456	-5.05	-2.52	10.1901	3.0	70.0	2.22	Outcome2	13.1	-5.05	0.0	No	2.0	-18.154195011337897	1.481	344.616		GetAnswer	Loss
49.0	2	344.634	0.018	878.955	-5.05	-2.52	10.1901	4.0	70.0	2.22	Outcome2	13.1	-5.05	0.0	No		-18.154195011337897				ShowChoice	Loss
49.0	2	348.649	0.015	882.97	-5.05	-2.52	10.1901	1.0	70.0	2.22	Outcome2	13.1	-5.05	0.0	No		-18.154195011337897				ShowResult	Loss
49.0	2	349.666	0.017	883.987	-5.05	-2.52	10.1901	8.0	70.0	2.22	Outcome2	13.1	-5.05	0.0	No		-18.154195011337897				ISITrial	Loss
50.0	2	357.696	0.03	892.017	-5.95	-2.98	9.4463	3.0	70.0	1.82	Outcome1	-5.95	12.7	3547.25	Yes	2.0	-18.6507936507937	1.601	359.297		GetAnswer	Loss
50.0	2	359.329	0.032	893.65	-5.95	-2.98	9.4463	4.0	70.0	1.82	Outcome1	-5.95	12.7	3547.25	Yes		-18.6507936507937				ShowChoice	Loss
50.0	2	363.344	0.015	897.665	-5.95	-2.98	9.4463	1.0	70.0	1.82	Outcome1	-5.95	12.7	3547.25	Yes		-18.6507936507937				ShowResult	Loss
50.0	2	364.361	0.017	898.682	-5.95	-2.98	9.4463	7.537	70.0	1.82	Outcome1	-5.95	12.7	3547.25	Yes		-18.6507936507937				ISITrial	Loss
50.0	2	375.49	0.018	909.811	-5.95	-2.98	9.4463	0.0	70.0	1.82	Outcome1	-5.95	12.7	3547.25	Yes		-18.6507936507937			512.0	TrialHappiness	Loss
50.0	2	379.505	4.015	913.826	-5.95	-2.98	9.4463	6.189	70.0	1.82	Outcome1	-5.95	12.7	3547.25	Yes		-18.6507936507937				ISIRate	Loss
51.0	2	385.72	0.026	920.041	1.52	0.0	9.6363	3.0	70.0	4.2	Outcome2	-1.25	1.52	0.0	No	2.0	2.7705971277399906	1.645	387.365		GetAnswer	Gain
51.0	2	387.386	0.021	921.707	1.52	0.0	9.6363	4.0	70.0	4.2	Outcome2	-1.25	1.52	0.0	No		2.7705971277399906				ShowChoice	Gain
51.0	2	391.401	0.015	925.722	1.52	0.0	9.6363	1.0	70.0	4.2	Outcome2	-1.25	1.52	0.0	No		2.7705971277399906				ShowResult	Gain
51.0	2	392.417	0.016	926.738	1.52	0.0	9.6363	5.508	70.0	4.2	Outcome2	-1.25	1.52	0.0	No		2.7705971277399906				ISITrial	Gain
52.0	2	397.949	0.024	932.27	-7.42	2.0	8.7088	3.0	70.0	5.0	Outcome1	-7.42	12.3	0.0	No	2.0	-19.7165532879819	1.959	399.908		GetAnswer	Loss
52.0	2	399.932	0.024	934.253	-7.42	2.0	8.7088	4.0	70.0	5.0	Outcome1	-7.42	12.3	0.0	No		-19.7165532879819				ShowChoice	Loss
52.0	2	403.947	0.015	938.268	-7.42	2.0	8.7088	1.0	70.0	5.0	Outcome1	-7.42	12.3	0.0	No		-19.7165532879819				ShowResult	Loss
52.0	2	404.963	0.016	939.284	-7.42	2.0	8.7088	5.913	70.0	5.0	Outcome1	-7.42	12.3	0.0	No		-19.7165532879819				ISITrial	Loss
53.0	2	410.894	0.018	945.215	-9.0	-9.0	7.5838	3.0	70.0	0.3	Certain	-19.52	0.7	2996.75	Yes	4.0	-20.217687074829897	2.022	412.916		GetAnswer	Mixed
53.0	2	412.944	0.028	947.265	-9.0	-9.0	7.5838	4.0	70.0	0.3	Certain	-19.52	0.7	2996.75	Yes		-20.217687074829897				ShowChoice	Mixed
53.0	2	416.959	0.015	951.28	-9.0	-9.0	7.5838	1.0	70.0	0.3	Certain	-19.52	0.7	2996.75	Yes		-20.217687074829897				ShowResult	Mixed
53.0	2	417.975	0.016	952.296	-9.0	-9.0	7.5838	3.66	70.0	0.3	Certain	-19.52	0.7	2996.75	Yes		-20.217687074829897				ISITrial	Mixed
53.0	2	424.673	0.019	958.994	-9.0	-9.0	7.5838	3.596	70.0	0.3	Certain	-19.52	0.7	2996.75	Yes		-20.217687074829897			492.0	TrialHappiness	Mixed
53.0	2	428.688	4.015	963.009	-9.0	-9.0	7.5838	3.987	70.0	0.3	Certain	-19.52	0.7	2996.75	Yes		-20.217687074829897				ISIRate	Mixed
54.0	2	432.704	0.029	967.025	-2.0	-2.0	7.3338	3.0	70.0	5.0	Certain	-12.08	8.3	0.0	No	4.0	-20.3786848072562	1.441	434.145		GetAnswer	Gain
54.0	2	434.17	0.025	968.491	-2.0	-2.0	7.3338	4.0	70.0	5.0	Certain	-12.08	8.3	0.0	No		-20.3786848072562				ShowChoice	Gain
54.0	2	438.202	0.032	972.523	-2.0	-2.0	7.3338	1.0	70.0	5.0	Certain	-12.08	8.3	0.0	No		-20.3786848072562				ShowResult	Gain
54.0	2	439.218	0.016	973.539	-2.0	-2.0	7.3338	8.0	70.0	5.0	Certain	-12.08	8.3	0.0	No		-20.3786848072562				ISITrial	Gain
	2	447.249	0.031	981.57				-0.001								4		8.414	455.663		Rest	
	2	455.679	0.016	990.0				4.0													BlockHappyPreview	
	2	459.694	0.015	994.015				3.762												512.0	BlockStartHappiness	
	2	500.447	0.029	1034.768				-0.001								5.0		2.326	502.773		ScanWait	
	3	0.023	0.023	1037.117				10.0													GetReady	
55.0	3	10.053	0.03	1047.147	7.9	0.18	8.3213	3.0	955.0	3.6	Outcome2	0.37	7.9	2533.25	Yes	2.0	7.52548131370328	1.465	11.518		GetAnswer	Gain
55.0	3	11.536	0.018	1048.63	7.9	0.18	8.3213	4.0	955.0	3.6	Outcome2	0.37	7.9	2533.25	Yes		7.52548131370328				ShowChoice	Gain
55.0	3	15.551	0.015	1052.645	7.9	0.18	8.3213	1.0	955.0	3.6	Outcome2	0.37	7.9	2533.25	Yes		7.52548131370328				ShowResult	Gain
55.0	3	16.567	0.016	1053.661	7.9	0.18	8.3213	7.709	955.0	3.6	Outcome2	0.37	7.9	2533.25	Yes		7.52548131370328				ISITrial	Gain
55.0	3	26.864	0.033	1063.958	7.9	0.18	8.3213	0.0	955.0	3.6	Outcome2	0.37	7.9	2533.25	Yes		7.52548131370328			512.0	TrialHappiness	Gain
55.0	3	30.879	4.015	1067.973	7.9	0.18	8.3213	2.133	955.0	3.6	Outcome2	0.37	7.9	2533.25	Yes		7.52548131370328				ISIRate	Gain
56.0	3	33.045	0.033	1070.139	3.26	1.63	8.7288	3.0	955.0	2.22	Outcome1	3.26	5.1	0.0	No	2.0	-1.8395620989052501	1.543	34.588		GetAnswer	Gain
56.0	3	34.611	0.023	1071.705	3.26	1.63	8.7288	4.0	955.0	2.22	Outcome1	3.26	5.1	0.0	No		-1.8395620989052501				ShowChoice	Gain
56.0	3	38.626	0.015	1075.72	3.26	1.63	8.7288	1.0	955.0	2.22	Outcome1	3.26	5.1	0.0	No		-1.8395620989052501				ShowResult	Gain
56.0	3	39.643	0.017	1076.737	3.26	1.63	8.7288	4.697	955.0	2.22	Outcome1	3.26	5.1	0.0	No		-1.8395620989052501				ISITrial	Gain
57.0	3	44.374	0.034	1081.468	12.9	2.18	10.3413	3.0	955.0	2.0	Outcome2	4.37	12.9	0.0	No	2.0	8.52887882219705	1.035	45.409		GetAnswer	Loss
57.0	3	45.424	0.015	1082.518	12.9	2.18	10.3413	4.0	955.0	2.0	Outcome2	4.37	12.9	0.0	No		8.52887882219705				ShowChoice	Loss
57.0	3	49.439	0.015	1086.533	12.9	2.18	10.3413	1.0	955.0	2.0	Outcome2	4.37	12.9	0.0	No		8.52887882219705				ShowResult	Loss
57.0	3	50.456	0.017	1087.55	12.9	2.18	10.3413	4.291	955.0	2.0	Outcome2	4.37	12.9	0.0	No		8.52887882219705				ISITrial	Loss
58.0	3	54.771	0.024	1091.865	-4.0	-4.0	9.8413	3.0	955.0	1.5	Certain	0.1	-8.93	3045.75	Yes	4.0	9.030577576443939	2.247	57.018		GetAnswer	Mixed
58.0	3	57.037	0.019	1094.131	-4.0	-4.0	9.8413	4.0	955.0	1.5	Certain	0.1	-8.93	3045.75	Yes		9.030577576443939				ShowChoice	Mixed
58.0	3	61.052	0.015	1098.146	-4.0	-4.0	9.8413	1.0	955.0	1.5	Certain	0.1	-8.93	3045.75	Yes		9.030577576443939				ShowResult	Mixed
58.0	3	62.068	0.016	1099.162	-4.0	-4.0	9.8413	2.037	955.0	1.5	Certain	0.1	-8.93	3045.75	Yes		9.030577576443939				ISITrial	Mixed
58.0	3	67.2	0.02	1104.294	-4.0	-4.0	9.8413	1.988	955.0	1.5	Certain	0.1	-8.93	3045.75	Yes		9.030577576443939			488.0	TrialHappiness	Mixed
58.0	3	71.215	4.015	1108.309	-4.0	-4.0	9.8413	4.183	955.0	1.5	Certain	0.1	-8.93	3045.75	Yes		9.030577576443939				ISIRate	Mixed
59.0	3	75.43	0.032	1112.524	10.9	0.48	11.2038	3.0	955.0	2.0	Outcome2	0.96	10.9	0.0	No	2.0	9.93997734994337	1.776	77.206		GetAnswer	Loss
59.0	3	77.23	0.024	1114.324	10.9	0.48	11.2038	4.0	955.0	2.0	Outcome2	0.96	10.9	0.0	No		9.93997734994337				ShowChoice	Loss
59.0	3	81.262	0.032	1118.356	10.9	0.48	11.2038	1.0	955.0	2.0	Outcome2	0.96	10.9	0.0	No		9.93997734994337				ShowResult	Loss
59.0	3	82.278	0.016	1119.372	10.9	0.48	11.2038	5.064	955.0	2.0	Outcome2	0.96	10.9	0.0	No		9.93997734994337				ISITrial	Loss
60.0	3	87.376	0.034	1124.47	13.5	1.52	12.8913	3.0	955.0	2.8	Outcome1	13.5	3.03	3562.5	Yes	2.0	10.4688561721404	1.688	89.064		GetAnswer	Loss
60.0	3	89.092	0.028	1126.186	13.5	1.52	12.8913	4.0	955.0	2.8	Outcome1	13.5	3.03	3562.5	Yes		10.4688561721404				ShowChoice	Loss
60.0	3	93.107	0.015	1130.201	13.5	1.52	12.8913	1.0	955.0	2.8	Outcome1	13.5	3.03	3562.5	Yes		10.4688561721404				ShowResult	Loss
60.0	3	94.124	0.017	1131.218	13.5	1.52	12.8913	8.0	955.0	2.8	Outcome1	13.5	3.03	3562.5	Yes		10.4688561721404				ISITrial	Loss
60.0	3	105.736	0.02	1142.83	13.5	1.52	12.8913	0.0	955.0	2.8	Outcome1	13.5	3.03	3562.5	Yes		10.4688561721404			512.0	TrialHappiness	Loss
60.0	3	109.752	4.016	1146.846	13.5	1.52	12.8913	6.25	955.0	2.8	Outcome1	13.5	3.03	3562.5	Yes		10.4688561721404				ISIRate	Loss
61.0	3	116.033	0.031	1153.127	2.0	2.0	13.1413	3.0	955.0	2.22	Certain	-3.49	7.1	0.0	No	4.0	10.590033975084902	1.69	117.723		GetAnswer	Gain
61.0	3	117.749	0.026	1154.843	2.0	2.0	13.1413	4.0	955.0	2.22	Certain	-3.49	7.1	0.0	No		10.590033975084902				ShowChoice	Gain
61.0	3	121.764	0.015	1158.858	2.0	2.0	13.1413	1.0	955.0	2.22	Certain	-3.49	7.1	0.0	No		10.590033975084902				ShowResult	Gain
61.0	3	122.781	0.017	1159.875	2.0	2.0	13.1413	4.586	955.0	2.22	Certain	-3.49	7.1	0.0	No		10.590033975084902				ISITrial	Gain
62.0	3	127.396	0.029	1164.49	-6.0	-6.0	12.3913	3.0	955.0	0.4	Certain	-12.19	-1.1	3748.75	Yes	4.0	11.0917327293318	2.24	129.636		GetAnswer	Mixed
62.0	3	129.661	0.025	1166.755	-6.0	-6.0	12.3913	4.0	955.0	0.4	Certain	-12.19	-1.1	3748.75	Yes		11.0917327293318				ShowChoice	Mixed
62.0	3	133.677	0.016	1170.771	-6.0	-6.0	12.3913	1.0	955.0	0.4	Certain	-12.19	-1.1	3748.75	Yes		11.0917327293318				ShowResult	Mixed
62.0	3	134.693	0.016	1171.787	-6.0	-6.0	12.3913	5.212	955.0	0.4	Certain	-12.19	-1.1	3748.75	Yes		11.0917327293318				ISITrial	Mixed
62.0	3	143.707	0.033	1180.801	-6.0	-6.0	12.3913	1.091	955.0	0.4	Certain	-12.19	-1.1	3748.75	Yes		11.0917327293318			532.0	TrialHappiness	Mixed
62.0	3	147.722	4.015	1184.816	-6.0	-6.0	12.3913	6.995	955.0	0.4	Certain	-12.19	-1.1	3748.75	Yes		11.0917327293318				ISIRate	Mixed
63.0	3	154.736	0.019	1191.83	-3.0	-3.0	12.0163	3.0	955.0	1.5	Certain	2.1	-9.15	0.0	No	4.0	11.2536806342016	2.036	156.772		GetAnswer	Mixed
63.0	3	156.785	0.013	1193.879	-3.0	-3.0	12.0163	4.0	955.0	1.5	Certain	2.1	-9.15	0.0	No		11.2536806342016				ShowChoice	Mixed
63.0	3	160.801	0.016	1197.895	-3.0	-3.0	12.0163	1.0	955.0	1.5	Certain	2.1	-9.15	0.0	No		11.2536806342016				ShowResult	Mixed
63.0	3	161.817	0.016	1198.911	-3.0	-3.0	12.0163	5.595	955.0	1.5	Certain	2.1	-9.15	0.0	No		11.2536806342016				ISITrial	Mixed
64.0	3	167.432	0.02	1204.526	3.2	1.6	12.4163	3.0	955.0	2.48	Outcome1	3.2	5.3	0.0	No	2.0	-2.09550773876935	1.144	168.576		GetAnswer	Gain
64.0	3	168.598	0.022	1205.692	3.2	1.6	12.4163	4.0	955.0	2.48	Outcome1	3.2	5.3	0.0	No		-2.09550773876935				ShowChoice	Gain
64.0	3	172.613	0.015	1209.707	3.2	1.6	12.4163	1.0	955.0	2.48	Outcome1	3.2	5.3	0.0	No		-2.09550773876935				ShowResult	Gain
64.0	3	173.63	0.017	1210.724	3.2	1.6	12.4163	5.47	955.0	2.48	Outcome1	3.2	5.3	0.0	No		-2.09550773876935				ISITrial	Gain
65.0	3	179.128	0.028	1216.222	-5.0	-5.0	11.7913	3.0	955.0	0.66	Certain	-10.91	1.3	2996.75	Yes	4.0	12.2117780294451	1.454	180.582		GetAnswer	Mixed
65.0	3	180.611	0.029	1217.705	-5.0	-5.0	11.7913	4.0	955.0	0.66	Certain	-10.91	1.3	2996.75	Yes		12.2117780294451				ShowChoice	Mixed
65.0	3	184.626	0.015	1221.72	-5.0	-5.0	11.7913	1.0	955.0	0.66	Certain	-10.91	1.3	2996.75	Yes		12.2117780294451				ShowResult	Mixed
65.0	3	185.642	0.016	1222.736	-5.0	-5.0	11.7913	3.344	955.0	0.66	Certain	-10.91	1.3	2996.75	Yes		12.2117780294451				ISITrial	Mixed
65.0	3	192.023	0.018	1229.117	-5.0	-5.0	11.7913	0.0	955.0	0.66	Certain	-10.91	1.3	2996.75	Yes		12.2117780294451			512.0	TrialHappiness	Mixed
65.0	3	196.039	4.016	1233.133	-5.0	-5.0	11.7913	3.987	955.0	0.66	Certain	-10.91	1.3	2996.75	Yes		12.2117780294451				ISIRate	Mixed
66.0	3	200.054	0.028	1237.148	-5.0	-5.0	11.1663	3.0	955.0	0.52	Certain	1.1	-11.93	0.0	No	4.0	13.030577576443902	1.589	201.643		GetAnswer	Mixed
66.0	3	201.67	0.027	1238.764	-5.0	-5.0	11.1663	4.0	955.0	0.52	Certain	1.1	-11.93	0.0	No		13.030577576443902				ShowChoice	Mixed
66.0	3	205.685	0.015	1242.779	-5.0	-5.0	11.1663	1.0	955.0	0.52	Certain	1.1	-11.93	0.0	No		13.030577576443902				ShowResult	Mixed
66.0	3	206.702	0.017	1243.796	-5.0	-5.0	11.1663	3.959	955.0	0.52	Certain	1.1	-11.93	0.0	No		13.030577576443902				ISITrial	Mixed
67.0	3	210.683	0.022	1247.777	11.7	-0.92	12.6288	3.0	955.0	3.16	Outcome2	-1.83	11.7	2918.5	Yes	2.0	13.5322763306908	1.726	212.409		GetAnswer	Loss
67.0	3	212.433	0.024	1249.527	11.7	-0.92	12.6288	4.0	955.0	3.16	Outcome2	-1.83	11.7	2918.5	Yes		13.5322763306908				ShowChoice	Loss
67.0	3	216.448	0.015	1253.542	11.7	-0.92	12.6288	1.0	955.0	3.16	Outcome2	-1.83	11.7	2918.5	Yes		13.5322763306908				ShowResult	Loss
67.0	3	217.464	0.016	1254.558	11.7	-0.92	12.6288	4.199	955.0	3.16	Outcome2	-1.83	11.7	2918.5	Yes		13.5322763306908				ISITrial	Loss
67.0	3	224.629	0.031	1261.723	11.7	-0.92	12.6288	1.952	955.0	3.16	Outcome2	-1.83	11.7	2918.5	Yes		13.5322763306908			552.0	TrialHappiness	Loss
67.0	3	228.644	4.015	1265.738	11.7	-0.92	12.6288	3.674	955.0	3.16	Outcome2	-1.83	11.7	2918.5	Yes		13.5322763306908				ISIRate	Loss
68.0	3	232.343	0.025	1269.437	3.32	1.66	13.0438	3.0	955.0	2.8	Outcome1	3.32	5.5	0.0	No	2.0	-2.17780294450736	1.279	233.622		GetAnswer	Gain
68.0	3	233.642	0.02	1270.736	3.32	1.66	13.0438	4.0	955.0	2.8	Outcome1	3.32	5.5	0.0	No		-2.17780294450736				ShowChoice	Gain
68.0	3	237.658	0.016	1274.752	3.32	1.66	13.0438	1.0	955.0	2.8	Outcome1	3.32	5.5	0.0	No		-2.17780294450736				ShowResult	Gain
68.0	3	238.674	0.016	1275.768	3.32	1.66	13.0438	2.185	955.0	2.8	Outcome1	3.32	5.5	0.0	No		-2.17780294450736				ISITrial	Gain
69.0	3	240.89	0.031	1277.984	4.9	-2.0	13.6563	3.0	955.0	2.0	Outcome1	4.9	-8.91	0.0	No	2.0	13.8108720271801	2.388	243.278		GetAnswer	Gain
69.0	3	243.306	0.028	1280.4	4.9	-2.0	13.6563	4.0	955.0	2.0	Outcome1	4.9	-8.91	0.0	No		13.8108720271801				ShowChoice	Gain
69.0	3	247.321	0.015	1284.415	4.9	-2.0	13.6563	1.0	955.0	2.0	Outcome1	4.9	-8.91	0.0	No		13.8108720271801				ShowResult	Gain
69.0	3	248.337	0.016	1285.431	4.9	-2.0	13.6563	2.0	955.0	2.0	Outcome1	4.9	-8.91	0.0	No		13.8108720271801				ISITrial	Gain
70.0	3	250.37	0.033	1287.464	6.7	0.0	14.4938	3.0	955.0	1.82	Outcome1	6.7	-7.57	3651.25	Yes	2.0	14.267270668176698	2.056	252.426		GetAnswer	Gain
70.0	3	252.452	0.026	1289.546	6.7	0.0	14.4938	4.0	955.0	1.82	Outcome1	6.7	-7.57	3651.25	Yes		14.267270668176698				ShowChoice	Gain
70.0	3	256.468	0.016	1293.562	6.7	0.0	14.4938	1.0	955.0	1.82	Outcome1	6.7	-7.57	3651.25	Yes		14.267270668176698				ShowResult	Gain
70.0	3	257.484	0.016	1294.578	6.7	0.0	14.4938	2.623	955.0	1.82	Outcome1	6.7	-7.57	3651.25	Yes		14.267270668176698				ISITrial	Gain
70.0	3	263.815	0.031	1300.909	6.7	0.0	14.4938	1.388	955.0	1.82	Outcome1	6.7	-7.57	3651.25	Yes		14.267270668176698			540.0	TrialHappiness	Gain
70.0	3	267.83	4.015	1304.924	6.7	0.0	14.4938	6.605	955.0	1.82	Outcome1	6.7	-7.57	3651.25	Yes		14.267270668176698				ISIRate	Gain
71.0	3	274.461	0.026	1311.555	11.56	5.78	15.9388	3.0	955.0	3.6	Outcome1	11.56	13.9	0.0	No	2.0	-2.34060022650057	1.187	275.648		GetAnswer	Loss
71.0	3	275.678	0.03	1312.772	11.56	5.78	15.9388	4.0	955.0	3.6	Outcome1	11.56	13.9	0.0	No		-2.34060022650057				ShowChoice	Loss
71.0	3	279.693	0.015	1316.787	11.56	5.78	15.9388	1.0	955.0	3.6	Outcome1	11.56	13.9	0.0	No		-2.34060022650057				ShowResult	Loss
71.0	3	280.709	0.016	1317.803	11.56	5.78	15.9388	5.499	955.0	3.6	Outcome1	11.56	13.9	0.0	No		-2.34060022650057				ISITrial	Loss
72.0	3	286.241	0.033	1323.335	13.3	-1.05	17.6013	3.0	955.0	2.48	Outcome2	-2.1	13.3	3080.5	Yes	2.0	15.3975084937712	1.605	287.846		GetAnswer	Loss
72.0	3	287.873	0.027	1324.967	13.3	-1.05	17.6013	4.0	955.0	2.48	Outcome2	-2.1	13.3	3080.5	Yes		15.3975084937712				ShowChoice	Loss
72.0	3	291.889	0.016	1328.983	13.3	-1.05	17.6013	1.0	955.0	2.48	Outcome2	-2.1	13.3	3080.5	Yes		15.3975084937712				ShowResult	Loss
72.0	3	292.905	0.016	1329.999	13.3	-1.05	17.6013	5.672	955.0	2.48	Outcome2	-2.1	13.3	3080.5	Yes		15.3975084937712				ISITrial	Loss
72.0	3	301.702	0.019	1338.796	13.3	-1.05	17.6013	2.799	955.0	2.48	Outcome2	-2.1	13.3	3080.5	Yes		15.3975084937712			544.0	TrialHappiness	Loss
72.0	3	305.717	4.015	1342.811	13.3	-1.05	17.6013	4.322	955.0	2.48	Outcome2	-2.1	13.3	3080.5	Yes		15.3975084937712				ISIRate	Loss
73.0	3	310.066	0.027	1347.16	10.3	2.0	18.8888	3.0	955.0	5.0	Outcome1	10.3	-5.5	0.0	No	2.0	15.7995469988675	1.313	311.379		GetAnswer	Gain
73.0	3	311.399	0.02	1348.493	10.3	2.0	18.8888	4.0	955.0	5.0	Outcome1	10.3	-5.5	0.0	No		15.7995469988675				ShowChoice	Gain
73.0	3	315.414	0.015	1352.508	10.3	2.0	18.8888	1.0	955.0	5.0	Outcome1	10.3	-5.5	0.0	No		15.7995469988675				ShowResult	Gain
73.0	3	316.43	0.016	1353.524	10.3	2.0	18.8888	4.616	955.0	5.0	Outcome1	10.3	-5.5	0.0	No		15.7995469988675				ISITrial	Gain
74.0	3	321.079	0.033	1358.173	6.46	3.23	19.6963	3.0	955.0	2.0	Outcome2	8.9	6.46	3056.25	Yes	2.0	-2.44148735371838	1.022	322.101		GetAnswer	Gain
74.0	3	322.128	0.027	1359.222	6.46	3.23	19.6963	4.0	955.0	2.0	Outcome2	8.9	6.46	3056.25	Yes		-2.44148735371838				ShowChoice	Gain
74.0	3	326.144	0.016	1363.238	6.46	3.23	19.6963	1.0	955.0	2.0	Outcome2	8.9	6.46	3056.25	Yes		-2.44148735371838				ShowResult	Gain
74.0	3	327.16	0.016	1364.254	6.46	3.23	19.6963	3.909	955.0	2.0	Outcome2	8.9	6.46	3056.25	Yes		-2.44148735371838				ISITrial	Gain
74.0	3	334.174	0.026	1371.268	6.46	3.23	19.6963	1.596	955.0	2.0	Outcome2	8.9	6.46	3056.25	Yes		-2.44148735371838			532.0	TrialHappiness	Gain
74.0	3	338.189	4.015	1375.283	6.46	3.23	19.6963	4.225	955.0	2.0	Outcome2	8.9	6.46	3056.25	Yes		-2.44148735371838				ISIRate	Gain
75.0	3	342.438	0.024	1379.532	11.9	-2.52	21.1838	3.0	955.0	3.6	Outcome1	11.9	-5.03	0.0	No	2.0	16.934314835787102	2.45	344.888		GetAnswer	Loss
75.0	3	344.904	0.016	1381.998	11.9	-2.52	21.1838	4.0	955.0	3.6	Outcome1	11.9	-5.03	0.0	No		16.934314835787102				ShowChoice	Loss
75.0	3	348.936	0.032	1386.03	11.9	-2.52	21.1838	1.0	955.0	3.6	Outcome1	11.9	-5.03	0.0	No		16.934314835787102				ShowResult	Loss
75.0	3	349.952	0.016	1387.046	11.9	-2.52	21.1838	4.979	955.0	3.6	Outcome1	11.9	-5.03	0.0	No		16.934314835787102				ISITrial	Loss
76.0	3	354.95	0.019	1392.044	-9.0	-9.0	20.0588	3.0	955.0	0.66	Certain	-0.7	-18.11	0.0	No	4.0	17.413363533408802	1.66	356.61		GetAnswer	Mixed
76.0	3	356.633	0.023	1393.727	-9.0	-9.0	20.0588	4.0	955.0	0.66	Certain	-0.7	-18.11	0.0	No		17.413363533408802				ShowChoice	Mixed
76.0	3	360.648	0.015	1397.742	-9.0	-9.0	20.0588	1.0	955.0	0.66	Certain	-0.7	-18.11	0.0	No		17.413363533408802				ShowResult	Mixed
76.0	3	361.665	0.017	1398.759	-9.0	-9.0	20.0588	3.931	955.0	0.66	Certain	-0.7	-18.11	0.0	No		17.413363533408802				ISITrial	Mixed
77.0	3	365.63	0.034	1402.724	7.3	-1.0	20.9713	3.0	955.0	2.48	Outcome2	-10.59	7.3	4000.0	Yes	2.0	17.8924122310306	1.781	367.411		GetAnswer	Gain
77.0	3	367.429	0.018	1404.523	7.3	-1.0	20.9713	4.0	955.0	2.48	Outcome2	-10.59	7.3	4000.0	Yes		17.8924122310306				ShowChoice	Gain
77.0	3	371.445	0.016	1408.539	7.3	-1.0	20.9713	1.0	955.0	2.48	Outcome2	-10.59	7.3	4000.0	Yes		17.8924122310306				ShowResult	Gain
77.0	3	372.461	0.016	1409.555	7.3	-1.0	20.9713	7.022	955.0	2.48	Outcome2	-10.59	7.3	4000.0	Yes		17.8924122310306				ISITrial	Gain
77.0	3	383.54	0.032	1420.634	7.3	-1.0	20.9713	1.295	955.0	2.48	Outcome2	-10.59	7.3	4000.0	Yes		17.8924122310306			532.0	TrialHappiness	Gain
77.0	3	387.556	4.016	1424.65	7.3	-1.0	20.9713	8.0	955.0	2.48	Outcome2	-10.59	7.3	4000.0	Yes		17.8924122310306				ISIRate	Gain
78.0	3	395.586	0.03	1432.68	9.1	0.0	22.1088	3.0	955.0	2.22	Outcome2	-9.27	9.1	0.0	No	2.0	18.3714609286523	1.451	397.037		GetAnswer	Gain
78.0	3	397.052	0.015	1434.146	9.1	0.0	22.1088	4.0	955.0	2.22	Outcome2	-9.27	9.1	0.0	No		18.3714609286523				ShowChoice	Gain
78.0	3	401.068	0.016	1438.162	9.1	0.0	22.1088	1.0	955.0	2.22	Outcome2	-9.27	9.1	0.0	No		18.3714609286523				ShowResult	Gain
78.0	3	402.084	0.016	1439.178	9.1	0.0	22.1088	2.078	955.0	2.22	Outcome2	-9.27	9.1	0.0	No		18.3714609286523				ISITrial	Gain
79.0	3	404.183	0.021	1441.277	2.01	1.0	22.3601	3.0	955.0	1.82	Outcome2	4.7	2.01	2729.5	Yes	2.0	-2.6886560966402397	1.333	405.516		GetAnswer	Gain
79.0	3	405.533	0.017	1442.627	2.01	1.0	22.3601	4.0	955.0	1.82	Outcome2	4.7	2.01	2729.5	Yes		-2.6886560966402397				ShowChoice	Gain
79.0	3	409.548	0.015	1446.642	2.01	1.0	22.3601	1.0	955.0	1.82	Outcome2	4.7	2.01	2729.5	Yes		-2.6886560966402397				ShowResult	Gain
79.0	3	410.564	0.016	1447.658	2.01	1.0	22.3601	3.829	955.0	1.82	Outcome2	4.7	2.01	2729.5	Yes		-2.6886560966402397				ISITrial	Gain
79.0	3	417.162	0.019	1454.256	2.01	1.0	22.3601	1.345	955.0	1.82	Outcome2	4.7	2.01	2729.5	Yes		-2.6886560966402397			532.0	TrialHappiness	Gain
79.0	3	421.177	4.015	1458.271	2.01	1.0	22.3601	2.918	955.0	1.82	Outcome2	4.7	2.01	2729.5	Yes		-2.6886560966402397				ISIRate	Gain
80.0	3	424.126	0.031	1461.22	-10.0	-10.0	21.1101	3.0	955.0	0.66	Certain	-0.7	-20.03	0.0	No	4.0	19.3295583238958	1.571	425.697		GetAnswer	Mixed
80.0	3	425.726	0.029	1462.82	-10.0	-10.0	21.1101	4.0	955.0	0.66	Certain	-0.7	-20.03	0.0	No		19.3295583238958				ShowChoice	Mixed
80.0	3	429.741	0.015	1466.835	-10.0	-10.0	21.1101	1.0	955.0	0.66	Certain	-0.7	-20.03	0.0	No		19.3295583238958				ShowResult	Mixed
80.0	3	430.757	0.016	1467.851	-10.0	-10.0	21.1101	3.336	955.0	0.66	Certain	-0.7	-20.03	0.0	No		19.3295583238958				ISITrial	Mixed
81.0	3	434.123	0.03	1471.217	-2.47	-1.0	20.8013	3.0	955.0	2.0	Outcome1	-2.47	0.3	3923.75	Yes		-2.76849754624387				GetAnswer	Mixed
81.0	3	437.139	0.016	1474.233	-2.47	-1.0	20.8013	4.0	955.0	2.0	Outcome1	-2.47	0.3	3923.75	Yes		-2.76849754624387				ShowChoice	Mixed
81.0	3	441.154	0.015	1478.248	-2.47	-1.0	20.8013	1.0	955.0	2.0	Outcome1	-2.47	0.3	3923.75	Yes		-2.76849754624387				ShowResult	Mixed
81.0	3	442.17	0.016	1479.264	-2.47	-1.0	20.8013	3.919	955.0	2.0	Outcome1	-2.47	0.3	3923.75	Yes		-2.76849754624387				ISITrial	Mixed
81.0	3	450.067	0.024	1487.161	-2.47	-1.0	20.8013	3.99	955.0	2.0	Outcome1	-2.47	0.3	3923.75	Yes		-2.76849754624387			448.0	TrialHappiness	Mixed
81.0	3	454.083	4.016	1491.177	-2.47	-1.0	20.8013	7.695	955.0	2.0	Outcome1	-2.47	0.3	3923.75	Yes		-2.76849754624387				ISIRate	Mixed
	3	461.813	0.035	1498.907				3.0								{SPACE}		2.416	464.229		CurrentEarnings	
	3	464.246	0.016	1501.34				-0.001								{SPACE}		4.671	468.917		Goodbye	
