trial_number	block	onset	onset_delay	onset_unadjusted	amount_change	certain_amount	current_amount	duration	mood_target	multiplier	outcome	outcome1_amount	outcome2_amount	question_duration	rating	response	rpe	rt	rt_time	slider_response	trial_phase	trial_type
	0	-25.803	0.021	26.231				-0.001								{SPACE}		3.336	-22.467		Welcome	
	0	-22.443	0.024	29.591				5.0													LifeHappyPreview	
	0	-17.412	0.031	34.622				4.84								2{-2}2{-2}4{-4}		4.84	-12.572	744.0	LifeHappiness	
	0	-12.263	0.025	39.771				4.0													BlockHappyPreview	
	0	-8.251	0.012	43.783				3.871												740.0	BlockStartHappiness	
	0	-0.929	0.019	51.105				-0.001								5.0					ScanWait	
	1	0.024	0.024	52.058				10.0													GetReady	
1.0	1	10.054	0.03	62.088	6.22	6.22	10.7775	3.0	955.0	2.48	Certain	12.43	13.3	0.0	No	4.0	-0.872499056247641	2.517	12.571		GetAnswer	Loss
1.0	1	12.595	0.024	64.629	6.22	6.22	10.7775	4.0	955.0	2.48	Certain	12.43	13.3	0.0	No		-0.872499056247641				ShowChoice	Loss
1.0	1	16.624	0.029	68.658	6.22	6.22	10.7775	1.0	955.0	2.48	Certain	12.43	13.3	0.0	No		-0.872499056247641				ShowResult	Loss
1.0	1	17.643	0.019	69.677	6.22	6.22	10.7775	2.431	955.0	2.48	Certain	12.43	13.3	0.0	No		-0.872499056247641				ISITrial	Loss
2.0	1	20.101	0.027	72.135	9.1	2.6	11.915	3.0	955.0	2.22	Outcome2	5.2	9.1	0.0	No	2.0	3.89580973952435	1.883	21.984		GetAnswer	Gain
2.0	1	22.006	0.022	74.04	9.1	2.6	11.915	4.0	955.0	2.22	Outcome2	5.2	9.1	0.0	No		3.89580973952435				ShowChoice	Gain
2.0	1	26.035	0.029	78.069	9.1	2.6	11.915	1.0	955.0	2.22	Outcome2	5.2	9.1	0.0	No		3.89580973952435				ShowResult	Gain
2.0	1	27.055	0.02	79.089	9.1	2.6	11.915	4.568	955.0	2.22	Outcome2	5.2	9.1	0.0	No		3.89580973952435				ISITrial	Gain
3.0	1	31.652	0.029	83.686	8.3	2.08	12.9525	3.0	955.0	5.0	Outcome1	8.3	4.16	2868.0	Yes	2.0	4.13929784824462	1.889	33.541		GetAnswer	Gain
3.0	1	33.558	0.017	85.592	8.3	2.08	12.9525	4.0	955.0	5.0	Outcome1	8.3	4.16	2868.0	Yes		4.13929784824462				ShowChoice	Gain
3.0	1	37.586	0.028	89.62	8.3	2.08	12.9525	1.0	955.0	5.0	Outcome1	8.3	4.16	2868.0	Yes		4.13929784824462				ShowResult	Gain
3.0	1	38.606	0.02	90.64	8.3	2.08	12.9525	3.243	955.0	5.0	Outcome1	8.3	4.16	2868.0	Yes		4.13929784824462				ISITrial	Gain
3.0	1	44.758	0.024	96.792	8.3	2.08	12.9525	3.568	955.0	5.0	Outcome1	8.3	4.16	2868.0	Yes		4.13929784824462			692.0	TrialHappiness	Gain
3.0	1	48.786	4.028	100.82	8.3	2.08	12.9525	3.472	955.0	5.0	Outcome1	8.3	4.16	2868.0	Yes		4.13929784824462				ISIRate	Gain
4.0	1	52.28	0.022	104.314	2.17	2.0	13.2237	3.0	955.0	0.66	Outcome2	3.3	2.17	0.0	No	2.0	-1.12816157040393	2.108	54.388		GetAnswer	Mixed
4.0	1	54.403	0.015	106.437	2.17	2.0	13.2237	4.0	955.0	0.66	Outcome2	3.3	2.17	0.0	No		-1.12816157040393				ShowChoice	Mixed
4.0	1	58.432	0.029	110.466	2.17	2.0	13.2237	1.0	955.0	0.66	Outcome2	3.3	2.17	0.0	No		-1.12816157040393				ShowResult	Mixed
4.0	1	59.452	0.02	111.486	2.17	2.0	13.2237	2.011	955.0	0.66	Outcome2	3.3	2.17	0.0	No		-1.12816157040393				ISITrial	Mixed
5.0	1	61.491	0.028	113.525	-1.1	-4.0	13.0862	3.0	955.0	0.4	Outcome1	-1.1	-6.6	2582.5	Yes	2.0	5.496036240090599	1.796	63.287		GetAnswer	Mixed
5.0	1	63.313	0.026	115.347	-1.1	-4.0	13.0862	4.0	955.0	0.4	Outcome1	-1.1	-6.6	2582.5	Yes		5.496036240090599				ShowChoice	Mixed
5.0	1	67.342	0.029	119.376	-1.1	-4.0	13.0862	1.0	955.0	0.4	Outcome1	-1.1	-6.6	2582.5	Yes		5.496036240090599				ShowResult	Mixed
5.0	1	68.362	0.02	120.396	-1.1	-4.0	13.0862	5.129	955.0	0.4	Outcome1	-1.1	-6.6	2582.5	Yes		5.496036240090599				ISITrial	Mixed
5.0	1	76.118	0.026	128.152	-1.1	-4.0	13.0862	3.146	955.0	0.4	Outcome1	-1.1	-6.6	2582.5	Yes		5.496036240090599			724.0	TrialHappiness	Mixed
5.0	1	80.13	4.012	132.164	-1.1	-4.0	13.0862	2.33	955.0	0.4	Outcome1	-1.1	-6.6	2582.5	Yes		5.496036240090599				ISIRate	Mixed
6.0	1	82.487	0.027	134.521	-2.0	-2.0	12.8362	3.0	955.0	1.2	Certain	-0.1	-5.35	0.0	No	4.0	5.250283125707809	2.185	84.672		GetAnswer	Mixed
6.0	1	84.694	0.022	136.728	-2.0	-2.0	12.8362	4.0	955.0	1.2	Certain	-0.1	-5.35	0.0	No		5.250283125707809				ShowChoice	Mixed
6.0	1	88.706	0.012	140.74	-2.0	-2.0	12.8362	1.0	955.0	1.2	Certain	-0.1	-5.35	0.0	No		5.250283125707809				ShowResult	Mixed
6.0	1	89.726	0.02	141.76	-2.0	-2.0	12.8362	6.232	955.0	1.2	Certain	-0.1	-5.35	0.0	No		5.250283125707809				ISITrial	Mixed
7.0	1	95.978	0.02	148.012	11.3	2.9	14.2487	3.0	955.0	2.48	Outcome2	5.79	11.3	0.0	No	2.0	5.5118912797282	1.557	97.535		GetAnswer	Loss
7.0	1	97.566	0.031	149.6	11.3	2.9	14.2487	4.0	955.0	2.48	Outcome2	5.79	11.3	0.0	No		5.5118912797282				ShowChoice	Loss
7.0	1	101.595	0.029	153.629	11.3	2.9	14.2487	1.0	955.0	2.48	Outcome2	5.79	11.3	0.0	No		5.5118912797282				ShowResult	Loss
7.0	1	102.614	0.019	154.648	11.3	2.9	14.2487	2.305	955.0	2.48	Outcome2	5.79	11.3	0.0	No		5.5118912797282				ISITrial	Loss
8.0	1	104.938	0.019	156.972	9.3	1.76	15.4112	3.0	955.0	2.48	Outcome2	3.53	9.3	3112.5	Yes	2.0	5.77349943374858	2.507	107.445		GetAnswer	Gain
8.0	1	107.462	0.017	159.496	9.3	1.76	15.4112	4.0	955.0	2.48	Outcome2	3.53	9.3	3112.5	Yes		5.77349943374858				ShowChoice	Gain
8.0	1	111.491	0.029	163.525	9.3	1.76	15.4112	1.0	955.0	2.48	Outcome2	3.53	9.3	3112.5	Yes		5.77349943374858				ShowResult	Gain
8.0	1	112.511	0.02	164.545	9.3	1.76	15.4112	3.506	955.0	2.48	Outcome2	3.53	9.3	3112.5	Yes		5.77349943374858				ISITrial	Gain
8.0	1	119.18	0.03	171.214	9.3	1.76	15.4112	2.884	955.0	2.48	Outcome2	3.53	9.3	3112.5	Yes		5.77349943374858			668.0	TrialHappiness	Gain
8.0	1	123.209	4.029	175.243	9.3	1.76	15.4112	4.45	955.0	2.48	Outcome2	3.53	9.3	3112.5	Yes		5.77349943374858				ISIRate	Gain
9.0	1	127.689	0.03	179.723	7.1	0.06	16.2987	3.0	955.0	2.22	Outcome2	0.11	7.1	0.0	No	2.0	6.98640996602492	2.722	130.411		GetAnswer	Gain
9.0	1	130.431	0.02	182.465	7.1	0.06	16.2987	4.0	955.0	2.22	Outcome2	0.11	7.1	0.0	No		6.98640996602492				ShowChoice	Gain
9.0	1	134.46	0.029	186.494	7.1	0.06	16.2987	1.0	955.0	2.22	Outcome2	0.11	7.1	0.0	No		6.98640996602492				ShowResult	Gain
9.0	1	135.479	0.019	187.513	7.1	0.06	16.2987	2.0	955.0	2.22	Outcome2	0.11	7.1	0.0	No		6.98640996602492				ISITrial	Gain
10.0	1	137.502	0.023	189.536	-0.2	-0.2	16.2737	3.0	955.0	2.0	Certain	6.9	-0.41	4000.0	Yes	4.0	7.3114382785957	2.702	140.204		GetAnswer	Gain
10.0	1	140.227	0.023	192.261	-0.2	-0.2	16.2737	4.0	955.0	2.0	Certain	6.9	-0.41	4000.0	Yes		7.3114382785957				ShowChoice	Gain
10.0	1	144.256	0.029	196.29	-0.2	-0.2	16.2737	1.0	955.0	2.0	Certain	6.9	-0.41	4000.0	Yes		7.3114382785957				ShowResult	Gain
10.0	1	145.275	0.019	197.309	-0.2	-0.2	16.2737	2.0	955.0	2.0	Certain	6.9	-0.41	4000.0	Yes		7.3114382785957				ISITrial	Gain
10.0	1	151.327	0.029	203.361	-0.2	-0.2	16.2737	2.08	955.0	2.0	Certain	6.9	-0.41	4000.0	Yes		7.3114382785957			700.0	TrialHappiness	Gain
10.0	1	155.355	4.028	207.389	-0.2	-0.2	16.2737	8.0	955.0	2.0	Certain	6.9	-0.41	4000.0	Yes		7.3114382785957				ISIRate	Gain
11.0	1	163.379	0.024	215.413	4.64	2.32	16.8537	3.0	955.0	3.6	Outcome1	4.64	5.9	0.0	No	2.0	-1.26491128727822	2.103	165.482		GetAnswer	Gain
11.0	1	165.502	0.02	217.536	4.64	2.32	16.8537	4.0	955.0	3.6	Outcome1	4.64	5.9	0.0	No		-1.26491128727822				ShowChoice	Gain
11.0	1	169.531	0.029	221.565	4.64	2.32	16.8537	1.0	955.0	3.6	Outcome1	4.64	5.9	0.0	No		-1.26491128727822				ShowResult	Gain
11.0	1	170.551	0.02	222.585	4.64	2.32	16.8537	3.324	955.0	3.6	Outcome1	4.64	5.9	0.0	No		-1.26491128727822				ISITrial	Gain
12.0	1	173.894	0.019	225.928	3.7	0.0	17.3162	3.0	955.0	1.0	Outcome2	-3.68	3.7	2618.75	Yes		7.381653454133639				GetAnswer	Mixed
12.0	1	176.92	0.026	228.954	3.7	0.0	17.3162	4.0	955.0	1.0	Outcome2	-3.68	3.7	2618.75	Yes		7.381653454133639				ShowChoice	Mixed
12.0	1	180.949	0.029	232.983	3.7	0.0	17.3162	1.0	955.0	1.0	Outcome2	-3.68	3.7	2618.75	Yes		7.381653454133639				ShowResult	Mixed
12.0	1	181.968	0.019	234.002	3.7	0.0	17.3162	6.642	955.0	1.0	Outcome2	-3.68	3.7	2618.75	Yes		7.381653454133639				ISITrial	Mixed
12.0	1	191.28	0.023	243.314	3.7	0.0	17.3162	2.514	955.0	1.0	Outcome2	-3.68	3.7	2618.75	Yes		7.381653454133639			704.0	TrialHappiness	Mixed
12.0	1	195.308	4.028	247.342	3.7	0.0	17.3162	2.475	955.0	1.0	Outcome2	-3.68	3.7	2618.75	Yes		7.381653454133639				ISIRate	Mixed
13.0	1	197.816	0.033	249.85	-5.0	-5.0	16.6912	3.0	955.0	0.2	Certain	-1.5	-9.1	0.0	No	4.0	7.60249150622877	1.849	199.665		GetAnswer	Mixed
13.0	1	199.688	0.023	251.722	-5.0	-5.0	16.6912	4.0	955.0	0.2	Certain	-1.5	-9.1	0.0	No		7.60249150622877				ShowChoice	Mixed
13.0	1	203.717	0.029	255.751	-5.0	-5.0	16.6912	1.0	955.0	0.2	Certain	-1.5	-9.1	0.0	No		7.60249150622877				ShowResult	Mixed
13.0	1	204.737	0.02	256.771	-5.0	-5.0	16.6912	3.48	955.0	0.2	Certain	-1.5	-9.1	0.0	No		7.60249150622877				ISITrial	Mixed
14.0	1	208.247	0.03	260.281	-1.0	-1.0	16.5662	3.0	955.0	0.2	Certain	-5.39	2.5	0.0	No	4.0	7.88674971687429	2.774	211.021		GetAnswer	Mixed
14.0	1	211.039	0.018	263.073	-1.0	-1.0	16.5662	4.0	955.0	0.2	Certain	-5.39	2.5	0.0	No		7.88674971687429				ShowChoice	Mixed
14.0	1	215.068	0.029	267.102	-1.0	-1.0	16.5662	1.0	955.0	0.2	Certain	-5.39	2.5	0.0	No		7.88674971687429				ShowResult	Mixed
14.0	1	216.087	0.019	268.121	-1.0	-1.0	16.5662	5.019	955.0	0.2	Certain	-5.39	2.5	0.0	No		7.88674971687429				ISITrial	Mixed
15.0	1	221.136	0.03	273.17	-2.64	-2.0	16.2362	3.0	955.0	0.3	Outcome1	-2.64	-1.3	3348.5	Yes	2.0	-1.34418648546621	2.373	223.509		GetAnswer	Mixed
15.0	1	223.526	0.017	275.56	-2.64	-2.0	16.2362	4.0	955.0	0.3	Outcome1	-2.64	-1.3	3348.5	Yes		-1.34418648546621				ShowChoice	Mixed
15.0	1	227.555	0.029	279.589	-2.64	-2.0	16.2362	1.0	955.0	0.3	Outcome1	-2.64	-1.3	3348.5	Yes		-1.34418648546621				ShowResult	Mixed
15.0	1	228.575	0.02	280.609	-2.64	-2.0	16.2362	7.614	955.0	0.3	Outcome1	-2.64	-1.3	3348.5	Yes		-1.34418648546621				ISITrial	Mixed
15.0	1	239.591	0.029	291.625	-2.64	-2.0	16.2362	1.739	955.0	0.3	Outcome1	-2.64	-1.3	3348.5	Yes	2{-2}4{-4}4{-4}	-1.34418648546621	1.739	241.33	684.0	TrialHappiness	Mixed
15.0	1	243.62	4.029	295.654	-2.64	-2.0	16.2362	5.394	955.0	0.3	Outcome1	-2.64	-1.3	3348.5	Yes		-1.34418648546621				ISIRate	Mixed
16.0	1	249.036	0.022	301.07	11.7	1.45	17.6987	3.0	955.0	3.16	Outcome1	11.7	2.9	0.0	No	2.0	8.79501698754247	1.508	250.544		GetAnswer	Loss
16.0	1	250.574	0.03	302.608	11.7	1.45	17.6987	4.0	955.0	3.16	Outcome1	11.7	2.9	0.0	No		8.79501698754247				ShowChoice	Loss
16.0	1	254.603	0.029	306.637	11.7	1.45	17.6987	1.0	955.0	3.16	Outcome1	11.7	2.9	0.0	No		8.79501698754247				ShowResult	Loss
16.0	1	255.622	0.019	307.656	11.7	1.45	17.6987	3.008	955.0	3.16	Outcome1	11.7	2.9	0.0	No		8.79501698754247				ISITrial	Loss
17.0	1	258.665	0.035	310.699	11.9	1.4	19.1862	3.0	955.0	3.6	Outcome1	11.9	2.8	3041.5	Yes	2.0	9.10192525481314	1.523	260.188		GetAnswer	Loss
17.0	1	260.219	0.031	312.253	11.9	1.4	19.1862	4.0	955.0	3.6	Outcome1	11.9	2.8	3041.5	Yes		9.10192525481314				ShowChoice	Loss
17.0	1	264.231	0.012	316.265	11.9	1.4	19.1862	1.0	955.0	3.6	Outcome1	11.9	2.8	3041.5	Yes		9.10192525481314				ShowResult	Loss
17.0	1	265.251	0.02	317.285	11.9	1.4	19.1862	3.566	955.0	3.6	Outcome1	11.9	2.8	3041.5	Yes		9.10192525481314				ISITrial	Loss
17.0	1	271.921	0.034	323.955	11.9	1.4	19.1862	2.281	955.0	3.6	Outcome1	11.9	2.8	3041.5	Yes		9.10192525481314			696.0	TrialHappiness	Loss
17.0	1	275.95	4.029	327.984	11.9	1.4	19.1862	4.166	955.0	3.6	Outcome1	11.9	2.8	3041.5	Yes		9.10192525481314				ISIRate	Loss
18.0	1	280.146	0.03	332.18	3.9	0.0	19.6737	3.0	955.0	1.2	Outcome2	-5.3	3.9	0.0	No	2.0	9.204983012457529	2.482	282.628		GetAnswer	Mixed
18.0	1	282.653	0.025	334.687	3.9	0.0	19.6737	4.0	955.0	1.2	Outcome2	-5.3	3.9	0.0	No		9.204983012457529				ShowChoice	Mixed
18.0	1	286.682	0.029	338.716	3.9	0.0	19.6737	1.0	955.0	1.2	Outcome2	-5.3	3.9	0.0	No		9.204983012457529				ShowResult	Mixed
18.0	1	287.702	0.02	339.736	3.9	0.0	19.6737	6.787	955.0	1.2	Outcome2	-5.3	3.9	0.0	No		9.204983012457529				ISITrial	Mixed
19.0	1	294.522	0.033	346.556	4.62	2.31	20.2512	3.0	955.0	4.2	Outcome1	4.62	6.1	0.0	No	2.0	-1.4759343148357902	2.328	296.85		GetAnswer	Gain
19.0	1	296.879	0.029	348.913	4.62	2.31	20.2512	4.0	955.0	4.2	Outcome1	4.62	6.1	0.0	No		-1.4759343148357902				ShowChoice	Gain
19.0	1	300.891	0.012	352.925	4.62	2.31	20.2512	1.0	955.0	4.2	Outcome1	4.62	6.1	0.0	No		-1.4759343148357902				ShowResult	Gain
19.0	1	301.911	0.02	353.945	4.62	2.31	20.2512	2.0	955.0	4.2	Outcome1	4.62	6.1	0.0	No		-1.4759343148357902				ISITrial	Gain
20.0	1	303.934	0.023	355.968	10.7	0.46	21.5887	3.0	955.0	1.82	Outcome1	10.7	0.91	2921.25	Yes	2.0	9.791619479048698	2.043	305.977		GetAnswer	Loss
20.0	1	306.006	0.029	358.04	10.7	0.46	21.5887	4.0	955.0	1.82	Outcome1	10.7	0.91	2921.25	Yes		9.791619479048698				ShowChoice	Loss
20.0	1	310.035	0.029	362.069	10.7	0.46	21.5887	1.0	955.0	1.82	Outcome1	10.7	0.91	2921.25	Yes		9.791619479048698				ShowResult	Loss
20.0	1	311.055	0.02	363.089	10.7	0.46	21.5887	8.0	955.0	1.82	Outcome1	10.7	0.91	2921.25	Yes		9.791619479048698				ISITrial	Loss
20.0	1	322.021	0.021	374.055	10.7	0.46	21.5887	3.384	955.0	1.82	Outcome1	10.7	0.91	2921.25	Yes		9.791619479048698			700.0	TrialHappiness	Loss
20.0	1	326.033	4.012	378.067	10.7	0.46	21.5887	3.685	955.0	1.82	Outcome1	10.7	0.91	2921.25	Yes		9.791619479048698				ISIRate	Loss
21.0	1	329.744	0.026	381.778	-5.0	-5.0	20.9637	3.0	955.0	0.82	Certain	-0.5	-10.52	0.0	No	4.0	10.0169875424689	1.506	331.25		GetAnswer	Mixed
21.0	1	331.265	0.015	383.299	-5.0	-5.0	20.9637	4.0	955.0	0.82	Certain	-0.5	-10.52	0.0	No		10.0169875424689				ShowChoice	Mixed
21.0	1	335.277	0.012	387.311	-5.0	-5.0	20.9637	1.0	955.0	0.82	Certain	-0.5	-10.52	0.0	No		10.0169875424689				ShowResult	Mixed
21.0	1	336.297	0.02	388.331	-5.0	-5.0	20.9637	3.555	955.0	0.82	Certain	-0.5	-10.52	0.0	No		10.0169875424689				ISITrial	Mixed
22.0	1	339.874	0.022	391.908	10.5	0.1	22.2762	3.0	955.0	1.68	Outcome2	0.19	10.5	3219.5	Yes	2.0	10.305775764439401	2.632	342.506		GetAnswer	Loss
22.0	1	342.532	0.026	394.566	10.5	0.1	22.2762	4.0	955.0	1.68	Outcome2	0.19	10.5	3219.5	Yes		10.305775764439401				ShowChoice	Loss
22.0	1	346.561	0.029	398.595	10.5	0.1	22.2762	1.0	955.0	1.68	Outcome2	0.19	10.5	3219.5	Yes		10.305775764439401				ShowResult	Loss
22.0	1	347.581	0.02	399.615	10.5	0.1	22.2762	6.793	955.0	1.68	Outcome2	0.19	10.5	3219.5	Yes		10.305775764439401				ISITrial	Loss
22.0	1	357.644	0.023	409.678	10.5	0.1	22.2762	1.897	955.0	1.68	Outcome2	0.19	10.5	3219.5	Yes		10.305775764439401			664.0	TrialHappiness	Loss
22.0	1	361.673	4.029	413.707	10.5	0.1	22.2762	4.878	955.0	1.68	Outcome2	0.19	10.5	3219.5	Yes		10.305775764439401				ISIRate	Loss
23.0	1	366.571	0.02	418.605	-1.0	-1.0	22.1512	3.0	955.0	1.82	Certain	-6.51	4.7	0.0	No	4.0	11.2061155152888	1.774	368.345		GetAnswer	Gain
23.0	1	368.36	0.015	420.394	-1.0	-1.0	22.1512	4.0	955.0	1.82	Certain	-6.51	4.7	0.0	No		11.2061155152888				ShowChoice	Gain
23.0	1	372.388	0.028	424.422	-1.0	-1.0	22.1512	1.0	955.0	1.82	Certain	-6.51	4.7	0.0	No		11.2061155152888				ShowResult	Gain
23.0	1	373.408	0.02	425.442	-1.0	-1.0	22.1512	8.0	955.0	1.82	Certain	-6.51	4.7	0.0	No		11.2061155152888				ISITrial	Gain
24.0	1	381.432	0.024	433.466	5.1	0.0	22.7887	3.0	955.0	2.22	Outcome2	-6.44	5.1	3255.0	Yes	2.0	11.535673839184598	2.802	384.234		GetAnswer	Gain
24.0	1	384.257	0.023	436.291	5.1	0.0	22.7887	4.0	955.0	2.22	Outcome2	-6.44	5.1	3255.0	Yes		11.535673839184598				ShowChoice	Gain
24.0	1	388.286	0.029	440.32	5.1	0.0	22.7887	1.0	955.0	2.22	Outcome2	-6.44	5.1	3255.0	Yes		11.535673839184598				ShowResult	Gain
24.0	1	389.306	0.02	441.34	5.1	0.0	22.7887	2.0	955.0	2.22	Outcome2	-6.44	5.1	3255.0	Yes		11.535673839184598				ISITrial	Gain
24.0	1	394.605	0.022	446.639	5.1	0.0	22.7887	3.809	955.0	2.22	Outcome2	-6.44	5.1	3255.0	Yes		11.535673839184598			712.0	TrialHappiness	Gain
24.0	1	398.634	4.029	450.668	5.1	0.0	22.7887	5.02	955.0	2.22	Outcome2	-6.44	5.1	3255.0	Yes		11.535673839184598				ISIRate	Gain
25.0	1	403.682	0.028	455.716	-3.0	-3.0	22.4137	3.0	955.0	0.3	Certain	-8.35	2.7	0.0	No	4.0	11.0498301245753	2.224	405.906		GetAnswer	Mixed
25.0	1	405.922	0.016	457.956	-3.0	-3.0	22.4137	4.0	955.0	0.3	Certain	-8.35	2.7	0.0	No		11.0498301245753				ShowChoice	Mixed
25.0	1	409.951	0.029	461.985	-3.0	-3.0	22.4137	1.0	955.0	0.3	Certain	-8.35	2.7	0.0	No		11.0498301245753				ShowResult	Mixed
25.0	1	410.971	0.02	463.005	-3.0	-3.0	22.4137	3.749	955.0	0.3	Certain	-8.35	2.7	0.0	No		11.0498301245753				ISITrial	Mixed
26.0	1	414.749	0.029	466.783	13.9	1.29	24.1512	3.0	955.0	3.6	Outcome2	2.58	13.9	0.0	No	2.0	11.325028312570801	1.618	416.367		GetAnswer	Loss
26.0	1	416.387	0.02	468.421	13.9	1.29	24.1512	4.0	955.0	3.6	Outcome2	2.58	13.9	0.0	No		11.325028312570801				ShowChoice	Loss
26.0	1	420.416	0.029	472.45	13.9	1.29	24.1512	1.0	955.0	3.6	Outcome2	2.58	13.9	0.0	No		11.325028312570801				ShowResult	Loss
26.0	1	421.435	0.019	473.469	13.9	1.29	24.1512	7.834	955.0	3.6	Outcome2	2.58	13.9	0.0	No		11.325028312570801				ISITrial	Loss
27.0	1	429.292	0.023	481.326	-2.0	-2.0	23.9012	3.0	955.0	0.52	Certain	3.1	-8.5	2549.75	Yes	4.0	11.6002265005663	2.244	431.536		GetAnswer	Mixed
27.0	1	431.566	0.03	483.6	-2.0	-2.0	23.9012	4.0	955.0	0.52	Certain	3.1	-8.5	2549.75	Yes		11.6002265005663				ShowChoice	Mixed
27.0	1	435.594	0.028	487.628	-2.0	-2.0	23.9012	1.0	955.0	0.52	Certain	3.1	-8.5	2549.75	Yes		11.6002265005663				ShowResult	Mixed
27.0	1	436.614	0.02	488.648	-2.0	-2.0	23.9012	4.225	955.0	0.52	Certain	3.1	-8.5	2549.75	Yes		11.6002265005663				ISITrial	Mixed
27.0	1	443.434	0.024	495.468	-2.0	-2.0	23.9012	2.231	955.0	0.52	Certain	3.1	-8.5	2549.75	Yes		11.6002265005663			712.0	TrialHappiness	Mixed
27.0	1	447.446	4.012	499.48	-2.0	-2.0	23.9012	2.199	955.0	0.52	Certain	3.1	-8.5	2549.75	Yes		11.6002265005663				ISIRate	Mixed
	1	449.67	0.025	501.704				-0.001								{SPACE}		34.973	484.643		Rest	
	1	484.658	0.015	536.692				4.0													BlockHappyPreview	
	1	488.67	0.012	540.704				3.49												712.0	BlockStartHappiness	
	1	494.955	0.024	546.989				-0.001								5.0		3.14	498.095		ScanWait	
	2	0.02	0.02	550.149				10.0													GetReady	
28.0	2	10.05	0.03	560.179	0.0	0.0	23.9012	3.0	70.0	3.16	Certain	-5.22	5.7	0.0	No	4.0	-10.918367346938801	1.457	11.507		GetAnswer	Gain
28.0	2	11.521	0.014	561.65	0.0	0.0	23.9012	4.0	70.0	3.16	Certain	-5.22	5.7	0.0	No		-10.918367346938801				ShowChoice	Gain
28.0	2	15.55	0.029	565.679	0.0	0.0	23.9012	1.0	70.0	3.16	Certain	-5.22	5.7	0.0	No		-10.918367346938801				ShowResult	Gain
28.0	2	16.569	0.019	566.698	0.0	0.0	23.9012	3.575	70.0	3.16	Certain	-5.22	5.7	0.0	No		-10.918367346938801				ISITrial	Gain
29.0	2	20.163	0.019	570.292	1.23	0.0	24.055	3.0	70.0	2.0	Outcome2	-1.44	1.23	3529.0	Yes	2.0	2.6689342403628102	2.155	22.318		GetAnswer	Gain
29.0	2	22.337	0.019	572.466	1.23	0.0	24.055	4.0	70.0	2.0	Outcome2	-1.44	1.23	3529.0	Yes		2.6689342403628102				ShowChoice	Gain
29.0	2	26.365	0.028	576.494	1.23	0.0	24.055	1.0	70.0	2.0	Outcome2	-1.44	1.23	3529.0	Yes		2.6689342403628102				ShowResult	Gain
29.0	2	27.385	0.02	577.514	1.23	0.0	24.055	3.955	70.0	2.0	Outcome2	-1.44	1.23	3529.0	Yes		2.6689342403628102				ISITrial	Gain
29.0	2	34.924	0.031	585.053	1.23	0.0	24.055	2.542	70.0	2.0	Outcome2	-1.44	1.23	3529.0	Yes		2.6689342403628102			700.0	TrialHappiness	Gain
29.0	2	38.953	4.029	589.082	1.23	0.0	24.055	6.116	70.0	2.0	Outcome2	-1.44	1.23	3529.0	Yes		2.6689342403628102				ISIRate	Gain
30.0	2	45.088	0.019	595.217	-6.0	-6.0	23.305	3.0	70.0	1.0	Certain	-12.47	-0.3	0.0	No	4.0	-12.1700680272109	1.542	46.63		GetAnswer	Mixed
30.0	2	46.659	0.029	596.788	-6.0	-6.0	23.305	4.0	70.0	1.0	Certain	-12.47	-0.3	0.0	No		-12.1700680272109				ShowChoice	Mixed
30.0	2	50.688	0.029	600.817	-6.0	-6.0	23.305	1.0	70.0	1.0	Certain	-12.47	-0.3	0.0	No		-12.1700680272109				ShowResult	Mixed
30.0	2	51.708	0.02	601.837	-6.0	-6.0	23.305	4.453	70.0	1.0	Certain	-12.47	-0.3	0.0	No		-12.1700680272109				ISITrial	Mixed
31.0	2	56.188	0.027	606.317	0.82	0.41	23.4075	3.0	70.0	3.16	Outcome1	0.82	13.7	2503.25	Yes	2.0	-12.884353741496598	2.085	58.273		GetAnswer	Loss
31.0	2	58.294	0.021	608.423	0.82	0.41	23.4075	4.0	70.0	3.16	Outcome1	0.82	13.7	2503.25	Yes		-12.884353741496598				ShowChoice	Loss
31.0	2	62.323	0.029	612.452	0.82	0.41	23.4075	1.0	70.0	3.16	Outcome1	0.82	13.7	2503.25	Yes		-12.884353741496598				ShowResult	Loss
31.0	2	63.343	0.02	613.472	0.82	0.41	23.4075	4.786	70.0	3.16	Outcome1	0.82	13.7	2503.25	Yes		-12.884353741496598				ISITrial	Loss
31.0	2	70.681	0.021	620.81	0.82	0.41	23.4075	2.131	70.0	3.16	Outcome1	0.82	13.7	2503.25	Yes		-12.884353741496598			712.0	TrialHappiness	Loss
31.0	2	74.71	4.029	624.839	0.82	0.41	23.4075	2.013	70.0	3.16	Outcome1	0.82	13.7	2503.25	Yes		-12.884353741496598				ISIRate	Loss
32.0	2	76.749	0.026	626.878	1.0	1.0	23.5325	3.0	70.0	4.2	Certain	-0.33	2.52	0.0	No	4.0	2.8486394557823096	2.211	78.96		GetAnswer	Gain
32.0	2	78.989	0.029	629.118	1.0	1.0	23.5325	4.0	70.0	4.2	Certain	-0.33	2.52	0.0	No		2.8486394557823096				ShowChoice	Gain
32.0	2	83.001	0.012	633.13	1.0	1.0	23.5325	1.0	70.0	4.2	Certain	-0.33	2.52	0.0	No		2.8486394557823096				ShowResult	Gain
32.0	2	84.021	0.02	634.15	1.0	1.0	23.5325	2.0	70.0	4.2	Certain	-0.33	2.52	0.0	No		2.8486394557823096				ISITrial	Gain
33.0	2	86.044	0.023	636.173	-13.83	-6.0	21.8037	3.0	70.0	0.3	Outcome2	0.7	-13.83	0.0	No		-14.530612244898				GetAnswer	Mixed
33.0	2	89.07	0.026	639.199	-13.83	-6.0	21.8037	4.0	70.0	0.3	Outcome2	0.7	-13.83	0.0	No		-14.530612244898				ShowChoice	Mixed
33.0	2	93.098	0.028	643.227	-13.83	-6.0	21.8037	1.0	70.0	0.3	Outcome2	0.7	-13.83	0.0	No		-14.530612244898				ShowResult	Mixed
33.0	2	94.118	0.02	644.247	-13.83	-6.0	21.8037	5.099	70.0	0.3	Outcome2	0.7	-13.83	0.0	No		-14.530612244898				ISITrial	Mixed
34.0	2	99.25	0.033	649.379	-11.16	-3.0	20.4087	3.0	70.0	1.5	Outcome1	-11.16	4.1	3231.5	Yes	2.0	-15.2585034013605	1.729	100.979		GetAnswer	Mixed
34.0	2	101.005	0.026	651.134	-11.16	-3.0	20.4087	4.0	70.0	1.5	Outcome1	-11.16	4.1	3231.5	Yes		-15.2585034013605				ShowChoice	Mixed
34.0	2	105.017	0.012	655.146	-11.16	-3.0	20.4087	1.0	70.0	1.5	Outcome1	-11.16	4.1	3231.5	Yes		-15.2585034013605				ShowResult	Mixed
34.0	2	106.037	0.02	656.166	-11.16	-3.0	20.4087	4.784	70.0	1.5	Outcome1	-11.16	4.1	3231.5	Yes		-15.2585034013605				ISITrial	Mixed
34.0	2	114.095	0.028	664.224	-11.16	-3.0	20.4087	2.698	70.0	1.5	Outcome1	-11.16	4.1	3231.5	Yes		-15.2585034013605			724.0	TrialHappiness	Mixed
34.0	2	118.123	4.028	668.252	-11.16	-3.0	20.4087	4.926	70.0	1.5	Outcome1	-11.16	4.1	3231.5	Yes		-15.2585034013605				ISIRate	Mixed
35.0	2	123.071	0.022	673.2	-4.0	-4.0	19.9087	3.0	70.0	2.0	Certain	4.3	-11.89	0.0	No	4.0	-16.190476190476197	1.669	124.74		GetAnswer	Mixed
35.0	2	124.76	0.02	674.889	-4.0	-4.0	19.9087	4.0	70.0	2.0	Certain	4.3	-11.89	0.0	No		-16.190476190476197				ShowChoice	Mixed
35.0	2	128.789	0.029	678.918	-4.0	-4.0	19.9087	1.0	70.0	2.0	Certain	4.3	-11.89	0.0	No		-16.190476190476197				ShowResult	Mixed
35.0	2	129.808	0.019	679.937	-4.0	-4.0	19.9087	2.098	70.0	2.0	Certain	4.3	-11.89	0.0	No		-16.190476190476197				ISITrial	Mixed
36.0	2	131.931	0.025	682.06	-2.0	-2.0	19.6587	3.0	70.0	1.82	Certain	6.7	-10.23	3335.75	Yes	4.0	-16.9319727891156	2.333	134.264		GetAnswer	Gain
36.0	2	134.288	0.024	684.417	-2.0	-2.0	19.6587	4.0	70.0	1.82	Certain	6.7	-10.23	3335.75	Yes		-16.9319727891156				ShowChoice	Gain
36.0	2	138.3	0.012	688.429	-2.0	-2.0	19.6587	1.0	70.0	1.82	Certain	6.7	-10.23	3335.75	Yes		-16.9319727891156				ShowResult	Gain
36.0	2	139.32	0.02	689.449	-2.0	-2.0	19.6587	5.156	70.0	1.82	Certain	6.7	-10.23	3335.75	Yes		-16.9319727891156				ISITrial	Gain
36.0	2	147.862	0.024	697.991	-2.0	-2.0	19.6587	3.134	70.0	1.82	Certain	6.7	-10.23	3335.75	Yes		-16.9319727891156			736.0	TrialHappiness	Gain
36.0	2	151.891	4.029	702.02	-2.0	-2.0	19.6587	5.343	70.0	1.82	Certain	6.7	-10.23	3335.75	Yes		-16.9319727891156				ISIRate	Gain
37.0	2	157.257	0.023	707.386	-9.0	-9.0	18.5337	3.0	70.0	1.5	Certain	0.1	-17.78	0.0	No	4.0	-17.877551020408198	2.459	159.716		GetAnswer	Mixed
37.0	2	159.731	0.015	709.86	-9.0	-9.0	18.5337	4.0	70.0	1.5	Certain	0.1	-17.78	0.0	No		-17.877551020408198				ShowChoice	Mixed
37.0	2	163.743	0.012	713.872	-9.0	-9.0	18.5337	1.0	70.0	1.5	Certain	0.1	-17.78	0.0	No		-17.877551020408198				ShowResult	Mixed
37.0	2	164.763	0.02	714.892	-9.0	-9.0	18.5337	3.598	70.0	1.5	Certain	0.1	-17.78	0.0	No		-17.877551020408198				ISITrial	Mixed
38.0	2	168.39	0.029	718.519	-5.13	-2.56	17.8925	3.0	70.0	2.8	Outcome1	-5.13	13.5	0.0	No	2.0	-18.632653061224502	1.731	170.121		GetAnswer	Loss
38.0	2	170.146	0.025	720.275	-5.13	-2.56	17.8925	4.0	70.0	2.8	Outcome1	-5.13	13.5	0.0	No		-18.632653061224502				ShowChoice	Loss
38.0	2	174.174	0.028	724.303	-5.13	-2.56	17.8925	1.0	70.0	2.8	Outcome1	-5.13	13.5	0.0	No		-18.632653061224502				ShowResult	Loss
38.0	2	175.194	0.02	725.323	-5.13	-2.56	17.8925	4.787	70.0	2.8	Outcome1	-5.13	13.5	0.0	No		-18.632653061224502				ISITrial	Loss
39.0	2	180.009	0.028	730.138	-9.0	-9.0	16.7675	3.0	70.0	0.2	Certain	-18.89	0.5	2864.25	Yes	4.0	-19.387755102040803	2.375	182.384		GetAnswer	Mixed
39.0	2	182.399	0.015	732.528	-9.0	-9.0	16.7675	4.0	70.0	0.2	Certain	-18.89	0.5	2864.25	Yes		-19.387755102040803				ShowChoice	Mixed
39.0	2	186.411	0.012	736.54	-9.0	-9.0	16.7675	1.0	70.0	0.2	Certain	-18.89	0.5	2864.25	Yes		-19.387755102040803				ShowResult	Mixed
39.0	2	187.431	0.02	737.56	-9.0	-9.0	16.7675	2.348	70.0	0.2	Certain	-18.89	0.5	2864.25	Yes		-19.387755102040803				ISITrial	Mixed
39.0	2	192.697	0.028	742.826	-9.0	-9.0	16.7675	2.214	70.0	0.2	Certain	-18.89	0.5	2864.25	Yes		-19.387755102040803			752.0	TrialHappiness	Mixed
39.0	2	196.709	4.012	746.838	-9.0	-9.0	16.7675	3.457	70.0	0.2	Certain	-18.89	0.5	2864.25	Yes		-19.387755102040803				ISIRate	Mixed
40.0	2	200.186	0.02	750.315	0.0	0.0	16.7675	3.0	70.0	5.0	Certain	10.3	-10.12	0.0	No	4.0	-20.414965986394602	2.85	203.036		GetAnswer	Gain
40.0	2	203.061	0.025	753.19	0.0	0.0	16.7675	4.0	70.0	5.0	Certain	10.3	-10.12	0.0	No		-20.414965986394602				ShowChoice	Gain
40.0	2	207.09	0.029	757.219	0.0	0.0	16.7675	1.0	70.0	5.0	Certain	10.3	-10.12	0.0	No		-20.414965986394602				ShowResult	Gain
40.0	2	208.109	0.019	758.238	0.0	0.0	16.7675	3.158	70.0	5.0	Certain	10.3	-10.12	0.0	No		-20.414965986394602				ISITrial	Gain
41.0	2	211.285	0.018	761.414	-9.09	1.0	15.6313	3.0	70.0	4.2	Outcome1	-9.09	12.1	4000.0	Yes	2.0	-21.18820861678	2.175	213.46		GetAnswer	Loss
41.0	2	213.475	0.015	763.604	-9.09	1.0	15.6313	4.0	70.0	4.2	Outcome1	-9.09	12.1	4000.0	Yes		-21.18820861678				ShowChoice	Loss
41.0	2	217.487	0.012	767.616	-9.09	1.0	15.6313	1.0	70.0	4.2	Outcome1	-9.09	12.1	4000.0	Yes		-21.18820861678				ShowResult	Loss
41.0	2	218.507	0.02	768.636	-9.09	1.0	15.6313	4.506	70.0	4.2	Outcome1	-9.09	12.1	4000.0	Yes		-21.18820861678				ISITrial	Loss
41.0	2	227.066	0.029	777.195	-9.09	1.0	15.6313	3.134	70.0	4.2	Outcome1	-9.09	12.1	4000.0	Yes		-21.18820861678			752.0	TrialHappiness	Loss
41.0	2	231.095	4.029	781.224	-9.09	1.0	15.6313	8.0	70.0	4.2	Outcome1	-9.09	12.1	4000.0	Yes		-21.18820861678				ISIRate	Loss
42.0	2	239.119	0.024	789.248	3.12	1.0	16.0213	3.0	70.0	1.68	Outcome2	-0.51	3.12	0.0	No	2.0	3.6343537414966	1.924	241.043		GetAnswer	Loss
42.0	2	241.075	0.032	791.204	3.12	1.0	16.0213	4.0	70.0	1.68	Outcome2	-0.51	3.12	0.0	No		3.6343537414966				ShowChoice	Loss
42.0	2	245.103	0.028	795.232	3.12	1.0	16.0213	1.0	70.0	1.68	Outcome2	-0.51	3.12	0.0	No		3.6343537414966				ShowResult	Loss
42.0	2	246.123	0.02	796.252	3.12	1.0	16.0213	6.248	70.0	1.68	Outcome2	-0.51	3.12	0.0	No		3.6343537414966				ISITrial	Loss
43.0	2	252.392	0.021	802.521	-12.0	-12.0	14.5213	3.0	70.0	0.52	Certain	-0.9	-23.63	2775.75	Yes	4.0	-22.734693877551	1.726	254.118		GetAnswer	Mixed
43.0	2	254.147	0.029	804.276	-12.0	-12.0	14.5213	4.0	70.0	0.52	Certain	-0.9	-23.63	2775.75	Yes		-22.734693877551				ShowChoice	Mixed
43.0	2	258.159	0.012	808.288	-12.0	-12.0	14.5213	1.0	70.0	0.52	Certain	-0.9	-23.63	2775.75	Yes		-22.734693877551				ShowResult	Mixed
43.0	2	259.179	0.02	809.308	-12.0	-12.0	14.5213	4.596	70.0	0.52	Certain	-0.9	-23.63	2775.75	Yes		-22.734693877551				ISITrial	Mixed
43.0	2	266.601	0.032	816.73	-12.0	-12.0	14.5213	2.231	70.0	0.52	Certain	-0.9	-23.63	2775.75	Yes		-22.734693877551			736.0	TrialHappiness	Mixed
43.0	2	270.63	4.029	820.759	-12.0	-12.0	14.5213	3.103	70.0	0.52	Certain	-0.9	-23.63	2775.75	Yes		-22.734693877551				ISIRate	Mixed
44.0	2	273.756	0.023	823.885	2.02	0.0	14.7738	3.0	70.0	4.2	Outcome2	-1.68	2.02	0.0	No	2.0	3.6982237339380197	1.916	275.672		GetAnswer	Gain
44.0	2	275.695	0.023	825.824	2.02	0.0	14.7738	4.0	70.0	4.2	Outcome2	-1.68	2.02	0.0	No		3.6982237339380197				ShowChoice	Gain
44.0	2	279.724	0.029	829.853	2.02	0.0	14.7738	1.0	70.0	4.2	Outcome2	-1.68	2.02	0.0	No		3.6982237339380197				ShowResult	Gain
44.0	2	280.743	0.019	830.872	2.02	0.0	14.7738	2.42	70.0	4.2	Outcome2	-1.68	2.02	0.0	No		3.6982237339380197				ISITrial	Gain
45.0	2	283.184	0.021	833.313	-11.0	-11.0	13.3988	3.0	70.0	2.0	Certain	0.3	-23.69	0.0	No	4.0	-23.990929705215397	1.614	284.798		GetAnswer	Mixed
45.0	2	284.822	0.024	834.951	-11.0	-11.0	13.3988	4.0	70.0	2.0	Certain	0.3	-23.69	0.0	No		-23.990929705215397				ShowChoice	Mixed
45.0	2	288.834	0.012	838.963	-11.0	-11.0	13.3988	1.0	70.0	2.0	Certain	0.3	-23.69	0.0	No		-23.990929705215397				ShowResult	Mixed
45.0	2	289.854	0.02	839.983	-11.0	-11.0	13.3988	3.144	70.0	2.0	Certain	0.3	-23.69	0.0	No		-23.990929705215397				ISITrial	Mixed
46.0	2	293.03	0.032	843.159	-11.0	-11.0	12.0238	3.0	70.0	0.82	Certain	1.5	-23.25	3841.25	Yes	4.0	-24.7460317460317	1.442	294.472		GetAnswer	Mixed
46.0	2	294.501	0.029	844.63	-11.0	-11.0	12.0238	4.0	70.0	0.82	Certain	1.5	-23.25	3841.25	Yes		-24.7460317460317				ShowChoice	Mixed
46.0	2	298.513	0.012	848.642	-11.0	-11.0	12.0238	1.0	70.0	0.82	Certain	1.5	-23.25	3841.25	Yes		-24.7460317460317				ShowResult	Mixed
46.0	2	299.533	0.02	849.662	-11.0	-11.0	12.0238	2.246	70.0	0.82	Certain	1.5	-23.25	3841.25	Yes		-24.7460317460317				ISITrial	Mixed
46.0	2	305.668	0.021	855.797	-11.0	-11.0	12.0238	2.582	70.0	0.82	Certain	1.5	-23.25	3841.25	Yes		-24.7460317460317			752.0	TrialHappiness	Mixed
46.0	2	309.68	4.012	859.809	-11.0	-11.0	12.0238	7.365	70.0	0.82	Certain	1.5	-23.25	3841.25	Yes		-24.7460317460317				ISIRate	Mixed
47.0	2	317.069	0.024	867.198	-1.0	-1.0	11.8988	3.0	70.0	0.82	Certain	-3.07	0.88	0.0	No	4.0	3.9520030234316	2.549	319.618		GetAnswer	Mixed
47.0	2	319.643	0.025	869.772	-1.0	-1.0	11.8988	4.0	70.0	0.82	Certain	-3.07	0.88	0.0	No		3.9520030234316				ShowChoice	Mixed
47.0	2	323.655	0.012	873.784	-1.0	-1.0	11.8988	1.0	70.0	0.82	Certain	-3.07	0.88	0.0	No		3.9520030234316				ShowResult	Mixed
47.0	2	324.675	0.02	874.804	-1.0	-1.0	11.8988	2.0	70.0	0.82	Certain	-3.07	0.88	0.0	No		3.9520030234316				ISITrial	Mixed
48.0	2	326.698	0.023	876.827	2.88	1.0	12.2588	3.0	70.0	2.8	Outcome2	-1.14	2.88	2831.75	Yes	2.0	4.016439909297049	2.294	328.992		GetAnswer	Loss
48.0	2	329.005	0.013	879.134	2.88	1.0	12.2588	4.0	70.0	2.8	Outcome2	-1.14	2.88	2831.75	Yes		4.016439909297049				ShowChoice	Loss
48.0	2	333.017	0.012	883.146	2.88	1.0	12.2588	1.0	70.0	2.8	Outcome2	-1.14	2.88	2831.75	Yes		4.016439909297049				ShowResult	Loss
48.0	2	334.036	0.019	884.165	2.88	1.0	12.2588	3.692	70.0	2.8	Outcome2	-1.14	2.88	2831.75	Yes		4.016439909297049				ISITrial	Loss
48.0	2	340.606	0.027	890.735	2.88	1.0	12.2588	3.268	70.0	2.8	Outcome2	-1.14	2.88	2831.75	Yes	2{-2}2{-2}	4.016439909297049	3.268	343.874	768.0	TrialHappiness	Loss
48.0	2	344.618	4.012	894.747	2.88	1.0	12.2588	3.327	70.0	2.8	Outcome2	-1.14	2.88	2831.75	Yes		4.016439909297049				ISIRate	Loss
49.0	2	347.961	0.016	898.09	-1.0	-1.0	12.1338	3.0	70.0	2.0	Certain	12.9	-14.69	0.0	No	4.0	-27.5918367346939	2.049	350.01		GetAnswer	Loss
49.0	2	350.034	0.024	900.163	-1.0	-1.0	12.1338	4.0	70.0	2.0	Certain	12.9	-14.69	0.0	No		-27.5918367346939				ShowChoice	Loss
49.0	2	354.046	0.012	904.175	-1.0	-1.0	12.1338	1.0	70.0	2.0	Certain	12.9	-14.69	0.0	No		-27.5918367346939				ShowResult	Loss
49.0	2	355.066	0.02	905.195	-1.0	-1.0	12.1338	8.0	70.0	2.0	Certain	12.9	-14.69	0.0	No		-27.5918367346939				ISITrial	Loss
50.0	2	363.09	0.024	913.219	-5.0	-5.0	11.5088	3.0	70.0	2.0	Certain	8.9	-19.48	3547.25	Yes	4.0	-28.3832199546485	2.286	365.376		GetAnswer	Gain
50.0	2	365.397	0.021	915.526	-5.0	-5.0	11.5088	4.0	70.0	2.0	Certain	8.9	-19.48	3547.25	Yes		-28.3832199546485				ShowChoice	Gain
50.0	2	369.409	0.012	919.538	-5.0	-5.0	11.5088	1.0	70.0	2.0	Certain	8.9	-19.48	3547.25	Yes		-28.3832199546485				ShowResult	Gain
50.0	2	370.429	0.02	920.558	-5.0	-5.0	11.5088	7.537	70.0	2.0	Certain	8.9	-19.48	3547.25	Yes		-28.3832199546485				ISITrial	Gain
50.0	2	381.562	0.031	931.691	-5.0	-5.0	11.5088	3.246	70.0	2.0	Certain	8.9	-19.48	3547.25	Yes		-28.3832199546485			740.0	TrialHappiness	Gain
50.0	2	385.574	4.012	935.703	-5.0	-5.0	11.5088	6.189	70.0	2.0	Certain	8.9	-19.48	3547.25	Yes		-28.3832199546485				ISIRate	Gain
51.0	2	391.792	0.029	941.921	1.38	0.0	11.6813	3.0	70.0	2.8	Outcome2	-2.78	1.38	0.0	No	2.0	4.16402116402116	2.263	394.055		GetAnswer	Gain
51.0	2	394.066	0.011	944.195	1.38	0.0	11.6813	4.0	70.0	2.8	Outcome2	-2.78	1.38	0.0	No		4.16402116402116				ShowChoice	Gain
51.0	2	398.078	0.012	948.207	1.38	0.0	11.6813	1.0	70.0	2.8	Outcome2	-2.78	1.38	0.0	No		4.16402116402116				ShowResult	Gain
51.0	2	399.098	0.02	949.227	1.38	0.0	11.6813	5.508	70.0	2.8	Outcome2	-2.78	1.38	0.0	No		4.16402116402116				ISITrial	Gain
52.0	2	404.631	0.025	954.76	-10.0	-10.0	10.4313	3.0	70.0	1.68	Certain	-24.96	4.5	0.0	No	4.0	-29.4580498866213	1.926	406.557		GetAnswer	Gain
52.0	2	406.57	0.013	956.699	-10.0	-10.0	10.4313	4.0	70.0	1.68	Certain	-24.96	4.5	0.0	No		-29.4580498866213				ShowChoice	Gain
52.0	2	410.582	0.012	960.711	-10.0	-10.0	10.4313	1.0	70.0	1.68	Certain	-24.96	4.5	0.0	No		-29.4580498866213				ShowResult	Gain
52.0	2	411.602	0.02	961.731	-10.0	-10.0	10.4313	5.913	70.0	1.68	Certain	-24.96	4.5	0.0	No		-29.4580498866213				ISITrial	Gain
53.0	2	417.536	0.021	967.665	3.28	1.0	10.8413	3.0	70.0	2.22	Outcome2	-1.01	3.28	2996.75	Yes	2.0	4.29062736205593	1.829	419.365		GetAnswer	Loss
53.0	2	419.392	0.027	969.521	3.28	1.0	10.8413	4.0	70.0	2.22	Outcome2	-1.01	3.28	2996.75	Yes		4.29062736205593				ShowChoice	Loss
53.0	2	423.404	0.012	973.533	3.28	1.0	10.8413	1.0	70.0	2.22	Outcome2	-1.01	3.28	2996.75	Yes		4.29062736205593				ShowResult	Loss
53.0	2	424.423	0.019	974.552	3.28	1.0	10.8413	3.66	70.0	2.22	Outcome2	-1.01	3.28	2996.75	Yes		4.29062736205593				ISITrial	Loss
53.0	2	431.127	0.029	981.256	3.28	1.0	10.8413	1.109	70.0	2.22	Outcome2	-1.01	3.28	2996.75	Yes		4.29062736205593			704.0	TrialHappiness	Loss
53.0	2	435.139	4.012	985.268	3.28	1.0	10.8413	3.987	70.0	2.22	Outcome2	-1.01	3.28	2996.75	Yes		4.29062736205593				ISIRate	Loss
54.0	2	439.151	0.025	989.28	-13.0	-13.0	9.2163	3.0	70.0	2.0	Certain	2.3	-28.07	0.0	No	4.0	-30.3650793650794	2.31	441.461		GetAnswer	Mixed
54.0	2	441.475	0.014	991.604	-13.0	-13.0	9.2163	4.0	70.0	2.0	Certain	2.3	-28.07	0.0	No		-30.3650793650794				ShowChoice	Mixed
54.0	2	445.487	0.012	995.616	-13.0	-13.0	9.2163	1.0	70.0	2.0	Certain	2.3	-28.07	0.0	No		-30.3650793650794				ShowResult	Mixed
54.0	2	446.506	0.019	996.635	-13.0	-13.0	9.2163	8.0	70.0	2.0	Certain	2.3	-28.07	0.0	No		-30.3650793650794				ISITrial	Mixed
	2	454.53	0.024	1004.659				-0.001								{SPACE}		40.504	495.034		Rest	
	2	495.052	0.018	1045.181				4.0													BlockHappyPreview	
	2	499.064	0.012	1049.193				2.246								2{-2}2{-2}2{-2}		2.246	501.31	728.0	BlockStartHappiness	
	2	504.797	0.02	1054.926				-0.001								5.0		3.368	508.165		ScanWait	
	3	0.026	0.026	1058.32				10.0													GetReady	
55.0	3	10.039	0.013	1068.333	8.78	4.39	10.3138	3.0	955.0	3.16	Outcome2	9.7	8.78	2533.25	Yes	2.0	-0.9211966779916949	1.737	11.776		GetAnswer	Gain
55.0	3	11.794	0.018	1070.088	8.78	4.39	10.3138	4.0	955.0	3.16	Outcome2	9.7	8.78	2533.25	Yes		-0.9211966779916949				ShowChoice	Gain
55.0	3	15.806	0.012	1074.1	8.78	4.39	10.3138	1.0	955.0	3.16	Outcome2	9.7	8.78	2533.25	Yes		-0.9211966779916949				ShowResult	Gain
55.0	3	16.826	0.02	1075.12	8.78	4.39	10.3138	7.709	955.0	3.16	Outcome2	9.7	8.78	2533.25	Yes		-0.9211966779916949				ISITrial	Gain
55.0	3	27.107	0.025	1085.401	8.78	4.39	10.3138	2.797	955.0	3.16	Outcome2	9.7	8.78	2533.25	Yes		-0.9211966779916949			716.0	TrialHappiness	Gain
55.0	3	31.119	4.012	1089.413	8.78	4.39	10.3138	2.133	955.0	3.16	Outcome2	9.7	8.78	2533.25	Yes		-0.9211966779916949				ISIRate	Gain
56.0	3	33.275	0.023	1091.569	6.5	1.09	11.1263	3.0	955.0	1.68	Outcome1	6.5	2.18	0.0	No	2.0	4.3171007927519796	2.044	35.319		GetAnswer	Gain
56.0	3	35.332	0.013	1093.626	6.5	1.09	11.1263	4.0	955.0	1.68	Outcome1	6.5	2.18	0.0	No		4.3171007927519796				ShowChoice	Gain
56.0	3	39.344	0.012	1097.638	6.5	1.09	11.1263	1.0	955.0	1.68	Outcome1	6.5	2.18	0.0	No		4.3171007927519796				ShowResult	Gain
56.0	3	40.363	0.019	1098.657	6.5	1.09	11.1263	4.697	955.0	1.68	Outcome1	6.5	2.18	0.0	No		4.3171007927519796				ISITrial	Gain
57.0	3	45.077	0.017	1103.371	7.5	1.46	12.0638	3.0	955.0	2.8	Outcome1	7.5	2.91	0.0	No	2.0	4.587768969422419	2.19	47.267		GetAnswer	Gain
57.0	3	47.284	0.017	1105.578	7.5	1.46	12.0638	4.0	955.0	2.8	Outcome1	7.5	2.91	0.0	No		4.587768969422419				ShowChoice	Gain
57.0	3	51.296	0.012	1109.59	7.5	1.46	12.0638	1.0	955.0	2.8	Outcome1	7.5	2.91	0.0	No		4.587768969422419				ShowResult	Gain
57.0	3	52.316	0.02	1110.61	7.5	1.46	12.0638	4.291	955.0	2.8	Outcome1	7.5	2.91	0.0	No		4.587768969422419				ISITrial	Gain
58.0	3	56.629	0.022	1114.923	1.3	-1.0	12.2263	3.0	955.0	0.66	Outcome1	1.3	-3.56	3045.75	Yes	2.0	4.858437146092871	1.928	58.557		GetAnswer	Mixed
58.0	3	58.584	0.027	1116.878	1.3	-1.0	12.2263	4.0	955.0	0.66	Outcome1	1.3	-3.56	3045.75	Yes		4.858437146092871				ShowChoice	Mixed
58.0	3	62.597	0.013	1120.891	1.3	-1.0	12.2263	1.0	955.0	0.66	Outcome1	1.3	-3.56	3045.75	Yes		4.858437146092871				ShowResult	Mixed
58.0	3	63.616	0.019	1121.91	1.3	-1.0	12.2263	2.037	955.0	0.66	Outcome1	1.3	-3.56	3045.75	Yes		4.858437146092871				ISITrial	Mixed
58.0	3	68.748	0.03	1127.042	1.3	-1.0	12.2263	2.85	955.0	0.66	Outcome1	1.3	-3.56	3045.75	Yes		4.858437146092871			672.0	TrialHappiness	Mixed
58.0	3	72.76	4.012	1131.054	1.3	-1.0	12.2263	4.183	955.0	0.66	Outcome1	1.3	-3.56	3045.75	Yes		4.858437146092871				ISIRate	Mixed
59.0	3	76.973	0.03	1135.267	5.06	2.53	12.8588	3.0	955.0	5.0	Outcome1	5.06	6.3	0.0	No	2.0	-1.2375424688561698	1.984	78.957		GetAnswer	Gain
59.0	3	78.979	0.022	1137.273	5.06	2.53	12.8588	4.0	955.0	5.0	Outcome1	5.06	6.3	0.0	No		-1.2375424688561698				ShowChoice	Gain
59.0	3	82.991	0.012	1141.285	5.06	2.53	12.8588	1.0	955.0	5.0	Outcome1	5.06	6.3	0.0	No		-1.2375424688561698				ShowResult	Gain
59.0	3	84.011	0.02	1142.305	5.06	2.53	12.8588	5.064	955.0	5.0	Outcome1	5.06	6.3	0.0	No		-1.2375424688561698				ISITrial	Gain
60.0	3	89.092	0.017	1147.386	9.9	1.85	14.0963	3.0	955.0	3.6	Outcome2	3.7	9.9	3562.5	Yes	2.0	6.197055492638731	1.421	90.513		GetAnswer	Gain
60.0	3	90.53	0.017	1148.824	9.9	1.85	14.0963	4.0	955.0	3.6	Outcome2	3.7	9.9	3562.5	Yes		6.197055492638731				ShowChoice	Gain
60.0	3	94.542	0.012	1152.836	9.9	1.85	14.0963	1.0	955.0	3.6	Outcome2	3.7	9.9	3562.5	Yes		6.197055492638731				ShowResult	Gain
60.0	3	95.562	0.02	1153.856	9.9	1.85	14.0963	8.0	955.0	3.6	Outcome2	3.7	9.9	3562.5	Yes		6.197055492638731				ISITrial	Gain
60.0	3	107.18	0.032	1165.474	9.9	1.85	14.0963	1.813	955.0	3.6	Outcome2	3.7	9.9	3562.5	Yes		6.197055492638731			704.0	TrialHappiness	Gain
60.0	3	111.192	4.012	1169.486	9.9	1.85	14.0963	6.25	955.0	3.6	Outcome2	3.7	9.9	3562.5	Yes		6.197055492638731				ISIRate	Gain
61.0	3	117.461	0.019	1175.755	11.1	2.56	15.4838	3.0	955.0	2.22	Outcome2	5.13	11.1	0.0	No	2.0	5.97395243488109	2.146	119.607		GetAnswer	Loss
61.0	3	119.634	0.027	1177.928	11.1	2.56	15.4838	4.0	955.0	2.22	Outcome2	5.13	11.1	0.0	No		5.97395243488109				ShowChoice	Loss
61.0	3	123.646	0.012	1181.94	11.1	2.56	15.4838	1.0	955.0	2.22	Outcome2	5.13	11.1	0.0	No		5.97395243488109				ShowResult	Loss
61.0	3	124.666	0.02	1182.96	11.1	2.56	15.4838	4.586	955.0	2.22	Outcome2	5.13	11.1	0.0	No		5.97395243488109				ISITrial	Loss
62.0	3	129.279	0.027	1187.573	6.72	3.36	16.3238	3.0	955.0	3.6	Outcome2	7.9	6.72	3748.75	Yes	2.0	-1.1847867119667799	1.781	131.06		GetAnswer	Gain
62.0	3	131.085	0.025	1189.379	6.72	3.36	16.3238	4.0	955.0	3.6	Outcome2	7.9	6.72	3748.75	Yes		-1.1847867119667799				ShowChoice	Gain
62.0	3	135.097	0.012	1193.391	6.72	3.36	16.3238	1.0	955.0	3.6	Outcome2	7.9	6.72	3748.75	Yes		-1.1847867119667799				ShowResult	Gain
62.0	3	136.117	0.02	1194.411	6.72	3.36	16.3238	5.212	955.0	3.6	Outcome2	7.9	6.72	3748.75	Yes		-1.1847867119667799				ISITrial	Gain
62.0	3	145.127	0.029	1203.421	6.72	3.36	16.3238	3.735	955.0	3.6	Outcome2	7.9	6.72	3748.75	Yes		-1.1847867119667799			744.0	TrialHappiness	Gain
62.0	3	149.139	4.012	1207.433	6.72	3.36	16.3238	6.995	955.0	3.6	Outcome2	7.9	6.72	3748.75	Yes		-1.1847867119667799				ISIRate	Gain
63.0	3	156.16	0.026	1214.454	7.7	0.92	17.2863	3.0	955.0	3.16	Outcome2	1.84	7.7	0.0	No	2.0	5.86296715741789	2.317	158.477		GetAnswer	Gain
63.0	3	158.5	0.023	1216.794	7.7	0.92	17.2863	4.0	955.0	3.16	Outcome2	1.84	7.7	0.0	No		5.86296715741789				ShowChoice	Gain
63.0	3	162.512	0.012	1220.806	7.7	0.92	17.2863	1.0	955.0	3.16	Outcome2	1.84	7.7	0.0	No		5.86296715741789				ShowResult	Gain
63.0	3	163.532	0.02	1221.826	7.7	0.92	17.2863	5.595	955.0	3.16	Outcome2	1.84	7.7	0.0	No		5.86296715741789				ISITrial	Gain
64.0	3	169.149	0.022	1227.443	2.1	-1.0	17.5488	3.0	955.0	1.5	Outcome2	-4.0	2.1	0.0	No	2.0	6.101925254813139	2.06	171.209		GetAnswer	Mixed
64.0	3	171.222	0.013	1229.516	2.1	-1.0	17.5488	4.0	955.0	1.5	Outcome2	-4.0	2.1	0.0	No		6.101925254813139				ShowChoice	Mixed
64.0	3	175.234	0.012	1233.528	2.1	-1.0	17.5488	1.0	955.0	1.5	Outcome2	-4.0	2.1	0.0	No		6.101925254813139				ShowResult	Mixed
64.0	3	176.253	0.019	1234.547	2.1	-1.0	17.5488	5.47	955.0	1.5	Outcome2	-4.0	2.1	0.0	No		6.101925254813139				ISITrial	Mixed
65.0	3	181.753	0.03	1240.047	9.5	1.58	18.7363	3.0	955.0	2.8	Outcome2	3.16	9.5	2996.75	Yes	2.0	6.34088335220838	2.458	184.211		GetAnswer	Gain
65.0	3	184.227	0.016	1242.521	9.5	1.58	18.7363	4.0	955.0	2.8	Outcome2	3.16	9.5	2996.75	Yes		6.34088335220838				ShowChoice	Gain
65.0	3	188.239	0.012	1246.533	9.5	1.58	18.7363	1.0	955.0	2.8	Outcome2	3.16	9.5	2996.75	Yes		6.34088335220838				ShowResult	Gain
65.0	3	189.259	0.02	1247.553	9.5	1.58	18.7363	3.344	955.0	2.8	Outcome2	3.16	9.5	2996.75	Yes		6.34088335220838				ISITrial	Gain
65.0	3	195.645	0.029	1253.939	9.5	1.58	18.7363	1.612	955.0	2.8	Outcome2	3.16	9.5	2996.75	Yes		6.34088335220838			696.0	TrialHappiness	Gain
65.0	3	199.657	4.012	1257.951	9.5	1.58	18.7363	3.987	955.0	2.8	Outcome2	3.16	9.5	2996.75	Yes		6.34088335220838				ISIRate	Gain
66.0	3	203.669	0.025	1261.963	1.0	1.0	18.8613	3.0	955.0	2.48	Certain	5.3	-2.1	0.0	No	4.0	7.3952434881087195	2.694	206.363		GetAnswer	Gain
66.0	3	206.377	0.014	1264.671	1.0	1.0	18.8613	4.0	955.0	2.48	Certain	5.3	-2.1	0.0	No		7.3952434881087195				ShowChoice	Gain
66.0	3	210.389	0.012	1268.683	1.0	1.0	18.8613	1.0	955.0	2.48	Certain	5.3	-2.1	0.0	No		7.3952434881087195				ShowResult	Gain
66.0	3	211.409	0.02	1269.703	1.0	1.0	18.8613	3.959	955.0	2.48	Certain	5.3	-2.1	0.0	No		7.3952434881087195				ISITrial	Gain
67.0	3	215.387	0.019	1273.681	-0.7	-4.0	18.7738	3.0	955.0	0.66	Outcome2	-8.39	-0.7	2918.5	Yes		7.68856172140431				GetAnswer	Mixed
67.0	3	218.413	0.026	1276.707	-0.7	-4.0	18.7738	4.0	955.0	0.66	Outcome2	-8.39	-0.7	2918.5	Yes		7.68856172140431				ShowChoice	Mixed
67.0	3	222.425	0.012	1280.719	-0.7	-4.0	18.7738	1.0	955.0	0.66	Outcome2	-8.39	-0.7	2918.5	Yes		7.68856172140431				ShowResult	Mixed
67.0	3	223.445	0.02	1281.739	-0.7	-4.0	18.7738	4.199	955.0	0.66	Outcome2	-8.39	-0.7	2918.5	Yes		7.68856172140431				ISITrial	Mixed
67.0	3	230.599	0.024	1288.893	-0.7	-4.0	18.7738	3.973	955.0	0.66	Outcome2	-8.39	-0.7	2918.5	Yes		7.68856172140431			740.0	TrialHappiness	Mixed
67.0	3	234.611	4.012	1292.905	-0.7	-4.0	18.7738	3.674	955.0	0.66	Outcome2	-8.39	-0.7	2918.5	Yes		7.68856172140431				ISIRate	Mixed
68.0	3	238.306	0.021	1296.6	0.73	1.0	18.865	3.0	955.0	1.2	Outcome2	1.9	0.73	0.0	No	2.0	-1.17100792751982	1.806	240.112		GetAnswer	Mixed
68.0	3	240.128	0.016	1298.422	0.73	1.0	18.865	4.0	955.0	1.2	Outcome2	1.9	0.73	0.0	No		-1.17100792751982				ShowChoice	Mixed
68.0	3	244.14	0.012	1302.434	0.73	1.0	18.865	1.0	955.0	1.2	Outcome2	1.9	0.73	0.0	No		-1.17100792751982				ShowResult	Mixed
68.0	3	245.16	0.02	1303.454	0.73	1.0	18.865	2.185	955.0	1.2	Outcome2	1.9	0.73	0.0	No		-1.17100792751982				ISITrial	Mixed
69.0	3	247.366	0.021	1305.66	7.3	-0.09	19.7775	3.0	955.0	2.48	Outcome1	7.3	-0.18	0.0	No	2.0	7.47791619479049	2.235	249.601		GetAnswer	Gain
69.0	3	249.623	0.022	1307.917	7.3	-0.09	19.7775	4.0	955.0	2.48	Outcome1	7.3	-0.18	0.0	No		7.47791619479049				ShowChoice	Gain
69.0	3	253.635	0.012	1311.929	7.3	-0.09	19.7775	1.0	955.0	2.48	Outcome1	7.3	-0.18	0.0	No		7.47791619479049				ShowResult	Gain
69.0	3	254.655	0.02	1312.949	7.3	-0.09	19.7775	2.0	955.0	2.48	Outcome1	7.3	-0.18	0.0	No		7.47791619479049				ISITrial	Gain
70.0	3	256.677	0.022	1314.971	9.69	4.84	20.9888	3.0	955.0	2.0	Outcome2	10.9	9.69	3651.25	Yes	2.0	-1.2115892789732001	1.59	258.267		GetAnswer	Loss
70.0	3	258.282	0.015	1316.576	9.69	4.84	20.9888	4.0	955.0	2.0	Outcome2	10.9	9.69	3651.25	Yes		-1.2115892789732001				ShowChoice	Loss
70.0	3	262.294	0.012	1320.588	9.69	4.84	20.9888	1.0	955.0	2.0	Outcome2	10.9	9.69	3651.25	Yes		-1.2115892789732001				ShowResult	Loss
70.0	3	263.314	0.02	1321.608	9.69	4.84	20.9888	2.623	955.0	2.0	Outcome2	10.9	9.69	3651.25	Yes		-1.2115892789732001				ISITrial	Loss
70.0	3	269.633	0.027	1327.927	9.69	4.84	20.9888	1.578	955.0	2.0	Outcome2	10.9	9.69	3651.25	Yes		-1.2115892789732001			720.0	TrialHappiness	Loss
70.0	3	273.645	4.012	1331.939	9.69	4.84	20.9888	6.605	955.0	2.0	Outcome2	10.9	9.69	3651.25	Yes		-1.2115892789732001				ISIRate	Loss
71.0	3	280.281	0.031	1338.575	-3.0	-3.0	20.6138	3.0	955.0	0.52	Certain	-7.2	1.1	0.0	No	4.0	8.30464326160815	2.762	283.043		GetAnswer	Mixed
71.0	3	283.056	0.013	1341.35	-3.0	-3.0	20.6138	4.0	955.0	0.52	Certain	-7.2	1.1	0.0	No		8.30464326160815				ShowChoice	Mixed
71.0	3	287.068	0.012	1345.362	-3.0	-3.0	20.6138	1.0	955.0	0.52	Certain	-7.2	1.1	0.0	No		8.30464326160815				ShowResult	Mixed
71.0	3	288.088	0.02	1346.382	-3.0	-3.0	20.6138	5.499	955.0	0.52	Certain	-7.2	1.1	0.0	No		8.30464326160815				ISITrial	Mixed
72.0	3	293.605	0.018	1351.899	10.96	5.48	21.9838	3.0	955.0	5.0	Outcome2	12.3	10.96	3080.5	Yes	2.0	-1.3352208380521	1.282	294.887		GetAnswer	Loss
72.0	3	294.909	0.022	1353.203	10.96	5.48	21.9838	4.0	955.0	5.0	Outcome2	12.3	10.96	3080.5	Yes		-1.3352208380521				ShowChoice	Loss
72.0	3	298.921	0.012	1357.215	10.96	5.48	21.9838	1.0	955.0	5.0	Outcome2	12.3	10.96	3080.5	Yes		-1.3352208380521				ShowResult	Loss
72.0	3	299.94	0.019	1358.234	10.96	5.48	21.9838	5.672	955.0	5.0	Outcome2	12.3	10.96	3080.5	Yes		-1.3352208380521				ISITrial	Loss
72.0	3	308.733	0.029	1367.027	10.96	5.48	21.9838	3.903	955.0	5.0	Outcome2	12.3	10.96	3080.5	Yes	2{-2}2{-2}2{-2}2{-2}4{-4}2{-2}	-1.3352208380521	3.903	312.636	688.0	TrialHappiness	Loss
72.0	3	312.745	4.012	1371.039	10.96	5.48	21.9838	4.322	955.0	5.0	Outcome2	12.3	10.96	3080.5	Yes		-1.3352208380521				ISIRate	Loss
73.0	3	317.092	0.025	1375.386	8.7	-0.34	23.0713	3.0	955.0	1.82	Outcome1	8.7	-0.68	0.0	No	2.0	9.38052095130238	1.919	319.011		GetAnswer	Gain
73.0	3	319.031	0.02	1377.325	8.7	-0.34	23.0713	4.0	955.0	1.82	Outcome1	8.7	-0.68	0.0	No		9.38052095130238				ShowChoice	Gain
73.0	3	323.043	0.012	1381.337	8.7	-0.34	23.0713	1.0	955.0	1.82	Outcome1	8.7	-0.68	0.0	No		9.38052095130238				ShowResult	Gain
73.0	3	324.062	0.019	1382.356	8.7	-0.34	23.0713	4.616	955.0	1.82	Outcome1	8.7	-0.68	0.0	No		9.38052095130238				ISITrial	Gain
74.0	3	328.71	0.032	1387.004	-2.0	-2.0	22.8213	3.0	955.0	0.4	Certain	-6.78	2.9	3056.25	Yes	4.0	9.682899207248019	1.893	330.603		GetAnswer	Mixed
74.0	3	330.615	0.012	1388.909	-2.0	-2.0	22.8213	4.0	955.0	0.4	Certain	-6.78	2.9	3056.25	Yes		9.682899207248019				ShowChoice	Mixed
74.0	3	334.627	0.012	1392.921	-2.0	-2.0	22.8213	1.0	955.0	0.4	Certain	-6.78	2.9	3056.25	Yes		9.682899207248019				ShowResult	Mixed
74.0	3	335.647	0.02	1393.941	-2.0	-2.0	22.8213	3.909	955.0	0.4	Certain	-6.78	2.9	3056.25	Yes		9.682899207248019				ISITrial	Mixed
74.0	3	342.651	0.019	1400.945	-2.0	-2.0	22.8213	1.678	955.0	0.4	Certain	-6.78	2.9	3056.25	Yes		9.682899207248019			744.0	TrialHappiness	Mixed
74.0	3	346.663	4.012	1404.957	-2.0	-2.0	22.8213	4.225	955.0	0.4	Certain	-6.78	2.9	3056.25	Yes		9.682899207248019				ISIRate	Mixed
75.0	3	350.91	0.022	1409.204	-0.41	0.0	22.7701	3.0	955.0	0.4	Outcome2	0.9	-0.41	0.0	No	2.0	-1.31040015100038	1.503	352.413		GetAnswer	Mixed
75.0	3	352.431	0.018	1410.725	-0.41	0.0	22.7701	4.0	955.0	0.4	Outcome2	0.9	-0.41	0.0	No		-1.31040015100038				ShowChoice	Mixed
75.0	3	356.443	0.012	1414.737	-0.41	0.0	22.7701	1.0	955.0	0.4	Outcome2	0.9	-0.41	0.0	No		-1.31040015100038				ShowResult	Mixed
75.0	3	357.462	0.019	1415.756	-0.41	0.0	22.7701	4.979	955.0	0.4	Outcome2	0.9	-0.41	0.0	No		-1.31040015100038				ISITrial	Mixed
76.0	3	362.461	0.02	1420.755	12.7	1.72	24.3576	3.0	955.0	1.82	Outcome1	12.7	3.43	0.0	No	2.0	9.27293318233296	2.736	365.197		GetAnswer	Loss
76.0	3	365.219	0.022	1423.513	12.7	1.72	24.3576	4.0	955.0	1.82	Outcome1	12.7	3.43	0.0	No		9.27293318233296				ShowChoice	Loss
76.0	3	369.231	0.012	1427.525	12.7	1.72	24.3576	1.0	955.0	1.82	Outcome1	12.7	3.43	0.0	No		9.27293318233296				ShowResult	Loss
76.0	3	370.251	0.02	1428.545	12.7	1.72	24.3576	3.931	955.0	1.82	Outcome1	12.7	3.43	0.0	No		9.27293318233296				ISITrial	Loss
77.0	3	374.213	0.031	1432.507	-0.5	-0.5	24.2951	3.0	955.0	1.68	Certain	-1.01	8.5	4000.0	Yes	4.0	9.5118912797282	2.287	376.5		GetAnswer	Gain
77.0	3	376.52	0.02	1434.814	-0.5	-0.5	24.2951	4.0	955.0	1.68	Certain	-1.01	8.5	4000.0	Yes		9.5118912797282				ShowChoice	Gain
77.0	3	380.532	0.012	1438.826	-0.5	-0.5	24.2951	1.0	955.0	1.68	Certain	-1.01	8.5	4000.0	Yes		9.5118912797282				ShowResult	Gain
77.0	3	381.551	0.019	1439.845	-0.5	-0.5	24.2951	7.022	955.0	1.68	Certain	-1.01	8.5	4000.0	Yes		9.5118912797282				ISITrial	Gain
77.0	3	392.618	0.029	1450.912	-0.5	-0.5	24.2951	2.865	955.0	1.68	Certain	-1.01	8.5	4000.0	Yes		9.5118912797282			672.0	TrialHappiness	Gain
77.0	3	396.63	4.012	1454.924	-0.5	-0.5	24.2951	8.0	955.0	1.68	Certain	-1.01	8.5	4000.0	Yes		9.5118912797282				ISIRate	Gain
78.0	3	404.654	0.024	1462.948	0.04	1.0	24.3001	3.0	955.0	1.0	Outcome2	1.7	0.04	0.0	No	2.0	-1.6623254058135102	2.117	406.771		GetAnswer	Mixed
78.0	3	406.793	0.022	1465.087	0.04	1.0	24.3001	4.0	955.0	1.0	Outcome2	1.7	0.04	0.0	No		-1.6623254058135102				ShowChoice	Mixed
78.0	3	410.805	0.012	1469.099	0.04	1.0	24.3001	1.0	955.0	1.0	Outcome2	1.7	0.04	0.0	No		-1.6623254058135102				ShowResult	Mixed
78.0	3	411.825	0.02	1470.119	0.04	1.0	24.3001	2.078	955.0	1.0	Outcome2	1.7	0.04	0.0	No		-1.6623254058135102				ISITrial	Mixed
79.0	3	413.932	0.029	1472.226	10.01	5.0	25.5513	3.0	955.0	3.16	Outcome1	10.01	11.7	2729.5	Yes	2.0	-1.68903359758399	1.919	415.851		GetAnswer	Loss
79.0	3	415.871	0.02	1474.165	10.01	5.0	25.5513	4.0	955.0	3.16	Outcome1	10.01	11.7	2729.5	Yes		-1.68903359758399				ShowChoice	Loss
79.0	3	419.883	0.012	1478.177	10.01	5.0	25.5513	1.0	955.0	3.16	Outcome1	10.01	11.7	2729.5	Yes		-1.68903359758399				ShowResult	Loss
79.0	3	420.902	0.019	1479.196	10.01	5.0	25.5513	3.829	955.0	3.16	Outcome1	10.01	11.7	2729.5	Yes		-1.68903359758399				ISITrial	Loss
79.0	3	427.505	0.028	1485.799	10.01	5.0	25.5513	1.58	955.0	3.16	Outcome1	10.01	11.7	2729.5	Yes		-1.68903359758399			688.0	TrialHappiness	Loss
79.0	3	431.517	4.012	1489.811	10.01	5.0	25.5513	2.918	955.0	3.16	Outcome1	10.01	11.7	2729.5	Yes		-1.68903359758399				ISIRate	Loss
80.0	3	434.46	0.025	1492.754	1.65	2.0	25.7575	3.0	955.0	0.66	Outcome2	3.3	1.65	0.0	No	2.0	-1.65081162702907	1.545	436.005		GetAnswer	Mixed
80.0	3	436.031	0.026	1494.325	1.65	2.0	25.7575	4.0	955.0	0.66	Outcome2	3.3	1.65	0.0	No		-1.65081162702907				ShowChoice	Mixed
80.0	3	440.043	0.012	1498.337	1.65	2.0	25.7575	1.0	955.0	0.66	Outcome2	3.3	1.65	0.0	No		-1.65081162702907				ShowResult	Mixed
80.0	3	441.063	0.02	1499.357	1.65	2.0	25.7575	3.336	955.0	0.66	Outcome2	3.3	1.65	0.0	No		-1.65081162702907				ISITrial	Mixed
81.0	3	444.423	0.024	1502.717	-2.0	-2.0	25.5075	3.0	955.0	0.52	Certain	3.1	-8.55	3923.75	Yes	4.0	11.6455266138165	2.125	446.548		GetAnswer	Mixed
81.0	3	446.563	0.015	1504.857	-2.0	-2.0	25.5075	4.0	955.0	0.52	Certain	3.1	-8.55	3923.75	Yes		11.6455266138165				ShowChoice	Mixed
81.0	3	450.575	0.012	1508.869	-2.0	-2.0	25.5075	1.0	955.0	0.52	Certain	3.1	-8.55	3923.75	Yes		11.6455266138165				ShowResult	Mixed
81.0	3	451.594	0.019	1509.888	-2.0	-2.0	25.5075	3.919	955.0	0.52	Certain	3.1	-8.55	3923.75	Yes		11.6455266138165				ISITrial	Mixed
81.0	3	459.485	0.022	1517.779	-2.0	-2.0	25.5075	2.064	955.0	0.52	Certain	3.1	-8.55	3923.75	Yes		11.6455266138165			712.0	TrialHappiness	Mixed
81.0	3	463.497	4.012	1521.791	-2.0	-2.0	25.5075	7.695	955.0	0.52	Certain	3.1	-8.55	3923.75	Yes		11.6455266138165				ISIRate	Mixed
	3	471.22	0.028	1529.514				3.0													CurrentEarnings	
	3	474.245	0.025	1532.539				-0.001								{SPACE}		4.534	478.779		Goodbye	
