trial_number	block	onset	onset_delay	onset_unadjusted	amount_change	certain_amount	current_amount	duration	mood_target	multiplier	outcome	outcome1_amount	outcome2_amount	question_duration	rating	response	rpe	rt	rt_time	slider_response	trial_phase	trial_type
	0	-47.605	0.034	28.483				-0.001								{SPACE}		4.065	-43.54		Welcome	
	0	-43.509	0.031	32.579				5.0													LifeHappyPreview	
	0	-38.478	0.031	37.61				3.283												952.0	LifeHappiness	
	0	-19.972	0.017	56.116				4.0													BlockHappyPreview	
	0	-15.961	0.011	60.127				2.005												848.0	BlockStartHappiness	
	0	-8.772	0.017	67.316				-0.001								5.0					ScanWait	
	1	0.021	0.021	76.109				10.0													GetReady	
1.0	1	10.051	0.03	86.139	5.5	1.84	10.6875	3.0	955.0	2.8	Outcome1	5.5	3.68	0.0	No	2.0	1.8176670441676102	0.973	11.024		GetAnswer	Gain
1.0	1	11.054	0.029	87.142	5.5	1.84	10.6875	4.0	955.0	2.8	Outcome1	5.5	3.68	0.0	No		1.8176670441676102				ShowChoice	Gain
1.0	1	15.082	0.028	91.17	5.5	1.84	10.6875	1.0	955.0	2.8	Outcome1	5.5	3.68	0.0	No		1.8176670441676102				ShowResult	Gain
1.0	1	16.102	0.02	92.19	5.5	1.84	10.6875	2.431	955.0	2.8	Outcome1	5.5	3.68	0.0	No		1.8176670441676102				ISITrial	Gain
2.0	1	18.559	0.026	94.647	4.9	1.48	11.3	3.0	955.0	2.0	Outcome2	2.96	4.9	0.0	No	2.0	1.93884484711212	0.994	19.553		GetAnswer	Gain
2.0	1	19.579	0.026	95.667	4.9	1.48	11.3	4.0	955.0	2.0	Outcome2	2.96	4.9	0.0	No		1.93884484711212				ShowChoice	Gain
2.0	1	23.591	0.012	99.679	4.9	1.48	11.3	1.0	955.0	2.0	Outcome2	2.96	4.9	0.0	No		1.93884484711212				ShowResult	Gain
2.0	1	24.611	0.02	100.699	4.9	1.48	11.3	4.568	955.0	2.0	Outcome2	2.96	4.9	0.0	No		1.93884484711212				ISITrial	Gain
3.0	1	29.208	0.029	105.296	6.7	2.32	12.1375	3.0	955.0	1.82	Outcome1	6.7	4.64	2868.0	Yes	2.0	2.06002265005663	1.055	30.263		GetAnswer	Gain
3.0	1	30.278	0.015	106.366	6.7	2.32	12.1375	4.0	955.0	1.82	Outcome1	6.7	4.64	2868.0	Yes		2.06002265005663				ShowChoice	Gain
3.0	1	34.306	0.028	110.394	6.7	2.32	12.1375	1.0	955.0	1.82	Outcome1	6.7	4.64	2868.0	Yes		2.06002265005663				ShowResult	Gain
3.0	1	35.326	0.02	111.414	6.7	2.32	12.1375	3.243	955.0	1.82	Outcome1	6.7	4.64	2868.0	Yes		2.06002265005663				ISITrial	Gain
3.0	1	41.478	0.024	117.566	6.7	2.32	12.1375	3.863	955.0	1.82	Outcome1	6.7	4.64	2868.0	Yes		2.06002265005663			872.0	TrialHappiness	Gain
3.0	1	45.506	4.028	121.594	6.7	2.32	12.1375	3.472	955.0	1.82	Outcome1	6.7	4.64	2868.0	Yes		2.06002265005663				ISIRate	Gain
4.0	1	49.0	0.022	125.088	8.7	3.46	13.225	3.0	955.0	1.82	Outcome2	6.93	8.7	0.0	No	2.0	1.7734994337485803	1.124	50.124		GetAnswer	Gain
4.0	1	50.154	0.03	126.242	8.7	3.46	13.225	4.0	955.0	1.82	Outcome2	6.93	8.7	0.0	No		1.7734994337485803				ShowChoice	Gain
4.0	1	54.182	0.028	130.27	8.7	3.46	13.225	1.0	955.0	1.82	Outcome2	6.93	8.7	0.0	No		1.7734994337485803				ShowResult	Gain
4.0	1	55.202	0.02	131.29	8.7	3.46	13.225	2.011	955.0	1.82	Outcome2	6.93	8.7	0.0	No		1.7734994337485803				ISITrial	Gain
5.0	1	57.241	0.028	133.329	13.5	5.82	14.9125	3.0	955.0	2.8	Outcome2	11.63	13.5	2582.5	Yes	2.0	1.8674971687429198	1.153	58.394		GetAnswer	Loss
5.0	1	58.412	0.018	134.5	13.5	5.82	14.9125	4.0	955.0	2.8	Outcome2	11.63	13.5	2582.5	Yes		1.8674971687429198				ShowChoice	Loss
5.0	1	62.44	0.028	138.528	13.5	5.82	14.9125	1.0	955.0	2.8	Outcome2	11.63	13.5	2582.5	Yes		1.8674971687429198				ShowResult	Loss
5.0	1	63.46	0.02	139.548	13.5	5.82	14.9125	5.129	955.0	2.8	Outcome2	11.63	13.5	2582.5	Yes		1.8674971687429198				ISITrial	Loss
5.0	1	71.217	0.026	147.305	13.5	5.82	14.9125	3.166	955.0	2.8	Outcome2	11.63	13.5	2582.5	Yes		1.8674971687429198			864.0	TrialHappiness	Loss
5.0	1	75.245	4.028	151.333	13.5	5.82	14.9125	2.33	955.0	2.8	Outcome2	11.63	13.5	2582.5	Yes		1.8674971687429198				ISIRate	Loss
6.0	1	77.602	0.027	153.69	9.1	3.5	16.05	3.0	955.0	2.22	Outcome1	9.1	7.0	0.0	No	2.0	2.09739524348811	1.025	78.627		GetAnswer	Gain
6.0	1	78.655	0.028	154.743	9.1	3.5	16.05	4.0	955.0	2.22	Outcome1	9.1	7.0	0.0	No		2.09739524348811				ShowChoice	Gain
6.0	1	82.684	0.029	158.772	9.1	3.5	16.05	1.0	955.0	2.22	Outcome1	9.1	7.0	0.0	No		2.09739524348811				ShowResult	Gain
6.0	1	83.704	0.02	159.792	9.1	3.5	16.05	6.232	955.0	2.22	Outcome1	9.1	7.0	0.0	No		2.09739524348811				ISITrial	Gain
7.0	1	89.956	0.02	166.044	-0.9	-2.0	15.9375	3.0	955.0	0.52	Outcome2	-3.1	-0.9	0.0	No	2.0	2.2004530011325	1.455	91.411		GetAnswer	Mixed
7.0	1	91.427	0.016	167.515	-0.9	-2.0	15.9375	4.0	955.0	0.52	Outcome2	-3.1	-0.9	0.0	No		2.2004530011325				ShowChoice	Mixed
7.0	1	95.456	0.029	171.544	-0.9	-2.0	15.9375	1.0	955.0	0.52	Outcome2	-3.1	-0.9	0.0	No		2.2004530011325				ShowResult	Mixed
7.0	1	96.475	0.019	172.563	-0.9	-2.0	15.9375	2.305	955.0	0.52	Outcome2	-3.1	-0.9	0.0	No		2.2004530011325				ISITrial	Mixed
8.0	1	98.799	0.019	174.887	9.5	3.6	17.125	3.0	955.0	2.8	Outcome1	9.5	7.2	3112.5	Yes	2.0	2.3035107587768997	1.064	99.863		GetAnswer	Gain
8.0	1	99.885	0.022	175.973	9.5	3.6	17.125	4.0	955.0	2.8	Outcome1	9.5	7.2	3112.5	Yes		2.3035107587768997				ShowChoice	Gain
8.0	1	103.897	0.012	179.985	9.5	3.6	17.125	1.0	955.0	2.8	Outcome1	9.5	7.2	3112.5	Yes		2.3035107587768997				ShowResult	Gain
8.0	1	104.917	0.02	181.005	9.5	3.6	17.125	3.506	955.0	2.8	Outcome1	9.5	7.2	3112.5	Yes		2.3035107587768997				ISITrial	Gain
8.0	1	111.587	0.031	187.675	9.5	3.6	17.125	2.164	955.0	2.8	Outcome1	9.5	7.2	3112.5	Yes		2.3035107587768997			840.0	TrialHappiness	Gain
8.0	1	115.616	4.029	191.704	9.5	3.6	17.125	4.45	955.0	2.8	Outcome1	9.5	7.2	3112.5	Yes		2.3035107587768997				ISIRate	Gain
9.0	1	120.096	0.03	196.184	10.36	5.18	18.42	3.0	955.0	2.0	Outcome1	10.36	10.9	0.0	No	2.0	-0.538410721026803	0.973	121.069		GetAnswer	Loss
9.0	1	121.099	0.029	197.187	10.36	5.18	18.42	4.0	955.0	2.0	Outcome1	10.36	10.9	0.0	No		-0.538410721026803				ShowChoice	Loss
9.0	1	125.111	0.012	201.199	10.36	5.18	18.42	1.0	955.0	2.0	Outcome1	10.36	10.9	0.0	No		-0.538410721026803				ShowResult	Loss
9.0	1	126.131	0.02	202.219	10.36	5.18	18.42	2.0	955.0	2.0	Outcome1	10.36	10.9	0.0	No		-0.538410721026803				ISITrial	Loss
10.0	1	128.153	0.022	204.241	2.3	1.0	18.7075	3.0	955.0	2.0	Outcome1	2.3	-0.64	4000.0	Yes	2.0	2.9445073612684	1.517	129.67		GetAnswer	Mixed
10.0	1	129.691	0.021	205.779	2.3	1.0	18.7075	4.0	955.0	2.0	Outcome1	2.3	-0.64	4000.0	Yes		2.9445073612684				ShowChoice	Mixed
10.0	1	133.703	0.012	209.791	2.3	1.0	18.7075	1.0	955.0	2.0	Outcome1	2.3	-0.64	4000.0	Yes		2.9445073612684				ShowResult	Mixed
10.0	1	134.723	0.02	210.811	2.3	1.0	18.7075	2.0	955.0	2.0	Outcome1	2.3	-0.64	4000.0	Yes		2.9445073612684				ISITrial	Mixed
10.0	1	140.774	0.028	216.862	2.3	1.0	18.7075	3.851	955.0	2.0	Outcome1	2.3	-0.64	4000.0	Yes		2.9445073612684			844.0	TrialHappiness	Mixed
10.0	1	144.786	4.012	220.874	2.3	1.0	18.7075	8.0	955.0	2.0	Outcome1	2.3	-0.64	4000.0	Yes		2.9445073612684				ISIRate	Mixed
11.0	1	152.81	0.024	228.898	-0.1	-1.0	18.695	3.0	955.0	1.2	Outcome1	-0.1	-3.11	0.0	No	2.0	3.00679501698754	1.537	154.347		GetAnswer	Mixed
11.0	1	154.365	0.018	230.453	-0.1	-1.0	18.695	4.0	955.0	1.2	Outcome1	-0.1	-3.11	0.0	No		3.00679501698754				ShowChoice	Mixed
11.0	1	158.377	0.012	234.465	-0.1	-1.0	18.695	1.0	955.0	1.2	Outcome1	-0.1	-3.11	0.0	No		3.00679501698754				ShowResult	Mixed
11.0	1	159.397	0.02	235.485	-0.1	-1.0	18.695	3.324	955.0	1.2	Outcome1	-0.1	-3.11	0.0	No		3.00679501698754				ISITrial	Mixed
12.0	1	162.74	0.019	238.828	-2.0	-2.0	18.445	3.0	955.0	0.4	Certain	-1.1	-4.23	2618.75	Yes	4.0	3.1325028312570797	1.592	164.332		GetAnswer	Mixed
12.0	1	164.345	0.013	240.433	-2.0	-2.0	18.445	4.0	955.0	0.4	Certain	-1.1	-4.23	2618.75	Yes		3.1325028312570797				ShowChoice	Mixed
12.0	1	168.357	0.012	244.445	-2.0	-2.0	18.445	1.0	955.0	0.4	Certain	-1.1	-4.23	2618.75	Yes		3.1325028312570797				ShowResult	Mixed
12.0	1	169.376	0.019	245.464	-2.0	-2.0	18.445	6.642	955.0	0.4	Certain	-1.1	-4.23	2618.75	Yes		3.1325028312570797				ISITrial	Mixed
12.0	1	178.671	0.022	254.759	-2.0	-2.0	18.445	3.55	955.0	0.4	Certain	-1.1	-4.23	2618.75	Yes		3.1325028312570797			836.0	TrialHappiness	Mixed
12.0	1	182.683	4.012	258.771	-2.0	-2.0	18.445	2.475	955.0	0.4	Certain	-1.1	-4.23	2618.75	Yes		3.1325028312570797				ISIRate	Mixed
13.0	1	185.174	0.016	261.262	3.5	2.0	18.8825	3.0	955.0	0.82	Outcome2	0.11	3.5	0.0	No	2.0	3.39411098527746	1.388	186.562		GetAnswer	Mixed
13.0	1	186.578	0.016	262.666	3.5	2.0	18.8825	4.0	955.0	0.82	Outcome2	0.11	3.5	0.0	No		3.39411098527746				ShowChoice	Mixed
13.0	1	190.59	0.012	266.678	3.5	2.0	18.8825	1.0	955.0	0.82	Outcome2	0.11	3.5	0.0	No		3.39411098527746				ShowResult	Mixed
13.0	1	191.609	0.019	267.697	3.5	2.0	18.8825	3.48	955.0	0.82	Outcome2	0.11	3.5	0.0	No		3.39411098527746				ISITrial	Mixed
14.0	1	195.12	0.031	271.208	12.7	4.58	20.47	3.0	955.0	1.82	Outcome2	9.17	12.7	0.0	No	2.0	3.52887882219706	0.934	196.054		GetAnswer	Loss
14.0	1	196.073	0.019	272.161	12.7	4.58	20.47	4.0	955.0	1.82	Outcome2	9.17	12.7	0.0	No		3.52887882219706				ShowChoice	Loss
14.0	1	200.085	0.012	276.173	12.7	4.58	20.47	1.0	955.0	1.82	Outcome2	9.17	12.7	0.0	No		3.52887882219706				ShowResult	Loss
14.0	1	201.104	0.019	277.192	12.7	4.58	20.47	5.019	955.0	1.82	Outcome2	9.17	12.7	0.0	No		3.52887882219706				ISITrial	Loss
15.0	1	206.153	0.03	282.241	13.7	5.02	22.1825	3.0	955.0	3.16	Outcome1	13.7	10.04	3348.5	Yes	2.0	3.6636466591166497	0.994	207.147		GetAnswer	Loss
15.0	1	207.173	0.026	283.261	13.7	5.02	22.1825	4.0	955.0	3.16	Outcome1	13.7	10.04	3348.5	Yes		3.6636466591166497				ShowChoice	Loss
15.0	1	211.185	0.012	287.273	13.7	5.02	22.1825	1.0	955.0	3.16	Outcome1	13.7	10.04	3348.5	Yes		3.6636466591166497				ShowResult	Loss
15.0	1	212.204	0.019	288.292	13.7	5.02	22.1825	7.614	955.0	3.16	Outcome1	13.7	10.04	3348.5	Yes		3.6636466591166497				ISITrial	Loss
15.0	1	223.22	0.028	299.308	13.7	5.02	22.1825	2.464	955.0	3.16	Outcome1	13.7	10.04	3348.5	Yes		3.6636466591166497			800.0	TrialHappiness	Loss
15.0	1	227.232	4.012	303.32	13.7	5.02	22.1825	5.394	955.0	3.16	Outcome1	13.7	10.04	3348.5	Yes		3.6636466591166497				ISIRate	Loss
16.0	1	232.649	0.023	308.737	6.1	0.84	22.945	3.0	955.0	4.2	Outcome1	6.1	1.69	0.0	No	2.0	4.40996602491506	1.23	233.879		GetAnswer	Gain
16.0	1	233.902	0.022	309.99	6.1	0.84	22.945	4.0	955.0	4.2	Outcome1	6.1	1.69	0.0	No		4.40996602491506				ShowChoice	Gain
16.0	1	237.914	0.012	314.002	6.1	0.84	22.945	1.0	955.0	4.2	Outcome1	6.1	1.69	0.0	No		4.40996602491506				ShowResult	Gain
16.0	1	238.934	0.02	315.022	6.1	0.84	22.945	3.008	955.0	4.2	Outcome1	6.1	1.69	0.0	No		4.40996602491506				ISITrial	Gain
17.0	1	241.96	0.018	318.048	12.9	4.16	24.5575	3.0	955.0	2.0	Outcome1	12.9	8.31	3041.5	Yes	2.0	4.58550396375991	1.019	242.979		GetAnswer	Loss
17.0	1	242.996	0.017	319.084	12.9	4.16	24.5575	4.0	955.0	2.0	Outcome1	12.9	8.31	3041.5	Yes		4.58550396375991				ShowChoice	Loss
17.0	1	247.008	0.012	323.096	12.9	4.16	24.5575	1.0	955.0	2.0	Outcome1	12.9	8.31	3041.5	Yes		4.58550396375991				ShowResult	Loss
17.0	1	248.028	0.02	324.116	12.9	4.16	24.5575	3.566	955.0	2.0	Outcome1	12.9	8.31	3041.5	Yes		4.58550396375991				ISITrial	Loss
17.0	1	254.664	0.017	330.752	12.9	4.16	24.5575	1.88	955.0	2.0	Outcome1	12.9	8.31	3041.5	Yes		4.58550396375991			824.0	TrialHappiness	Loss
17.0	1	258.676	4.012	334.764	12.9	4.16	24.5575	4.166	955.0	2.0	Outcome1	12.9	8.31	3041.5	Yes		4.58550396375991				ISIRate	Loss
18.0	1	262.872	0.03	338.96	0.39	0.0	24.6063	3.0	955.0	0.52	Outcome2	1.1	0.39	0.0	No	2.0	-0.7089467723669308	0.991	263.863		GetAnswer	Mixed
18.0	1	263.875	0.012	339.963	0.39	0.0	24.6063	4.0	955.0	0.52	Outcome2	1.1	0.39	0.0	No		-0.7089467723669308				ShowChoice	Mixed
18.0	1	267.887	0.012	343.975	0.39	0.0	24.6063	1.0	955.0	0.52	Outcome2	1.1	0.39	0.0	No		-0.7089467723669308				ShowResult	Mixed
18.0	1	268.907	0.02	344.995	0.39	0.0	24.6063	6.787	955.0	0.52	Outcome2	1.1	0.39	0.0	No		-0.7089467723669308				ISITrial	Mixed
19.0	1	275.711	0.017	351.799	8.9	2.2	25.7188	3.0	955.0	2.0	Outcome1	8.9	4.4	0.0	No	2.0	4.501698754246879	0.879	276.59		GetAnswer	Gain
19.0	1	276.613	0.023	352.701	8.9	2.2	25.7188	4.0	955.0	2.0	Outcome1	8.9	4.4	0.0	No		4.501698754246879				ShowChoice	Gain
19.0	1	280.625	0.012	356.713	8.9	2.2	25.7188	1.0	955.0	2.0	Outcome1	8.9	4.4	0.0	No		4.501698754246879				ShowResult	Gain
19.0	1	281.645	0.02	357.733	8.9	2.2	25.7188	2.0	955.0	2.0	Outcome1	8.9	4.4	0.0	No		4.501698754246879				ISITrial	Gain
20.0	1	283.668	0.023	359.756	7.37	3.68	26.64	3.0	955.0	4.2	Outcome2	8.1	7.37	2921.25	Yes	2.0	-0.7336730841827099	0.993	284.661		GetAnswer	Gain
20.0	1	284.687	0.026	360.775	7.37	3.68	26.64	4.0	955.0	4.2	Outcome2	8.1	7.37	2921.25	Yes		-0.7336730841827099				ShowChoice	Gain
20.0	1	288.699	0.012	364.787	7.37	3.68	26.64	1.0	955.0	4.2	Outcome2	8.1	7.37	2921.25	Yes		-0.7336730841827099				ShowResult	Gain
20.0	1	289.719	0.02	365.807	7.37	3.68	26.64	8.0	955.0	4.2	Outcome2	8.1	7.37	2921.25	Yes		-0.7336730841827099				ISITrial	Gain
20.0	1	300.685	0.021	376.773	7.37	3.68	26.64	2.045	955.0	4.2	Outcome2	8.1	7.37	2921.25	Yes		-0.7336730841827099			784.0	TrialHappiness	Gain
20.0	1	304.697	4.012	380.785	7.37	3.68	26.64	3.685	955.0	4.2	Outcome2	8.1	7.37	2921.25	Yes		-0.7336730841827099				ISIRate	Gain
21.0	1	308.408	0.026	384.496	0.3	-2.0	26.6775	3.0	955.0	2.0	Outcome2	-5.18	0.3	0.0	No	2.0	5.47791619479049	1.481	309.889		GetAnswer	Mixed
21.0	1	309.913	0.024	386.001	0.3	-2.0	26.6775	4.0	955.0	2.0	Outcome2	-5.18	0.3	0.0	No		5.47791619479049				ShowChoice	Mixed
21.0	1	313.925	0.012	390.013	0.3	-2.0	26.6775	1.0	955.0	2.0	Outcome2	-5.18	0.3	0.0	No		5.47791619479049				ShowResult	Mixed
21.0	1	314.944	0.019	391.032	0.3	-2.0	26.6775	3.555	955.0	2.0	Outcome2	-5.18	0.3	0.0	No		5.47791619479049				ISITrial	Mixed
22.0	1	318.522	0.023	394.61	4.3	1.0	27.215	3.0	955.0	2.0	Outcome2	-1.37	4.3	3219.5	Yes	2.0	5.67157417893545	1.421	319.943		GetAnswer	Mixed
22.0	1	319.959	0.016	396.047	4.3	1.0	27.215	4.0	955.0	2.0	Outcome2	-1.37	4.3	3219.5	Yes		5.67157417893545				ShowChoice	Mixed
22.0	1	323.971	0.012	400.059	4.3	1.0	27.215	1.0	955.0	2.0	Outcome2	-1.37	4.3	3219.5	Yes		5.67157417893545				ShowResult	Mixed
22.0	1	324.991	0.02	401.079	4.3	1.0	27.215	6.793	955.0	2.0	Outcome2	-1.37	4.3	3219.5	Yes		5.67157417893545				ISITrial	Mixed
22.0	1	335.038	0.023	411.126	4.3	1.0	27.215	2.96	955.0	2.0	Outcome2	-1.37	4.3	3219.5	Yes	24{-2}{-4}2{-2}4{-4}4{-4}	5.67157417893545	2.96	337.998	788.0	TrialHappiness	Mixed
22.0	1	339.05	4.012	415.138	4.3	1.0	27.215	4.878	955.0	2.0	Outcome2	-1.37	4.3	3219.5	Yes		5.67157417893545				ISIRate	Mixed
23.0	1	343.948	0.02	420.036	0.9	-2.0	27.3275	3.0	955.0	0.4	Outcome2	-4.9	0.9	0.0	No	2.0	5.7972819932049795	1.214	345.162		GetAnswer	Mixed
23.0	1	345.185	0.023	421.273	0.9	-2.0	27.3275	4.0	955.0	0.4	Outcome2	-4.9	0.9	0.0	No		5.7972819932049795				ShowChoice	Mixed
23.0	1	349.197	0.012	425.285	0.9	-2.0	27.3275	1.0	955.0	0.4	Outcome2	-4.9	0.9	0.0	No		5.7972819932049795				ShowResult	Mixed
23.0	1	350.216	0.019	426.304	0.9	-2.0	27.3275	8.0	955.0	0.4	Outcome2	-4.9	0.9	0.0	No		5.7972819932049795				ISITrial	Mixed
24.0	1	358.24	0.024	434.328	6.96	3.48	28.1975	3.0	955.0	3.6	Outcome2	7.9	6.96	3255.0	Yes	2.0	-0.940166100415251	1.088	359.328		GetAnswer	Gain
24.0	1	359.344	0.016	435.432	6.96	3.48	28.1975	4.0	955.0	3.6	Outcome2	7.9	6.96	3255.0	Yes		-0.940166100415251				ShowChoice	Gain
24.0	1	363.356	0.012	439.444	6.96	3.48	28.1975	1.0	955.0	3.6	Outcome2	7.9	6.96	3255.0	Yes		-0.940166100415251				ShowResult	Gain
24.0	1	364.375	0.019	440.463	6.96	3.48	28.1975	2.0	955.0	3.6	Outcome2	7.9	6.96	3255.0	Yes		-0.940166100415251				ISITrial	Gain
24.0	1	369.675	0.022	445.763	6.96	3.48	28.1975	1.611	955.0	3.6	Outcome2	7.9	6.96	3255.0	Yes	2{-2}2{-2}	-0.940166100415251	1.611	371.286	760.0	TrialHappiness	Gain
24.0	1	373.687	4.012	449.775	6.96	3.48	28.1975	5.02	955.0	3.6	Outcome2	7.9	6.96	3255.0	Yes		-0.940166100415251				ISIRate	Gain
25.0	1	378.735	0.028	454.823	-1.0	-1.0	28.0725	3.0	955.0	0.2	Certain	-4.15	2.5	0.0	No	4.0	6.6511891279728195	1.513	380.248		GetAnswer	Mixed
25.0	1	380.273	0.025	456.361	-1.0	-1.0	28.0725	4.0	955.0	0.2	Certain	-4.15	2.5	0.0	No		6.6511891279728195				ShowChoice	Mixed
25.0	1	384.285	0.012	460.373	-1.0	-1.0	28.0725	1.0	955.0	0.2	Certain	-4.15	2.5	0.0	No		6.6511891279728195				ShowResult	Mixed
25.0	1	385.305	0.02	461.393	-1.0	-1.0	28.0725	3.749	955.0	0.2	Certain	-4.15	2.5	0.0	No		6.6511891279728195				ISITrial	Mixed
26.0	1	389.082	0.028	465.17	12.5	2.82	29.635	3.0	955.0	1.68	Outcome2	5.63	12.5	0.0	No	2.0	6.872027180067951	1.115	390.197		GetAnswer	Loss
26.0	1	390.219	0.022	466.307	12.5	2.82	29.635	4.0	955.0	1.68	Outcome2	5.63	12.5	0.0	No		6.872027180067951				ShowChoice	Loss
26.0	1	394.231	0.012	470.319	12.5	2.82	29.635	1.0	955.0	1.68	Outcome2	5.63	12.5	0.0	No		6.872027180067951				ShowResult	Loss
26.0	1	395.251	0.02	471.339	12.5	2.82	29.635	7.834	955.0	1.68	Outcome2	5.63	12.5	0.0	No		6.872027180067951				ISITrial	Loss
27.0	1	403.108	0.023	479.196	12.1	2.5	31.1475	3.0	955.0	4.2	Outcome1	12.1	5.01	2549.75	Yes	2.0	7.09286523216308	0.953	404.061		GetAnswer	Loss
27.0	1	404.077	0.016	480.165	12.1	2.5	31.1475	4.0	955.0	4.2	Outcome1	12.1	5.01	2549.75	Yes		7.09286523216308				ShowChoice	Loss
27.0	1	408.089	0.012	484.177	12.1	2.5	31.1475	1.0	955.0	4.2	Outcome1	12.1	5.01	2549.75	Yes		7.09286523216308				ShowResult	Loss
27.0	1	409.109	0.02	485.197	12.1	2.5	31.1475	4.225	955.0	4.2	Outcome1	12.1	5.01	2549.75	Yes		7.09286523216308				ISITrial	Loss
27.0	1	415.929	0.024	492.017	12.1	2.5	31.1475	2.632	955.0	4.2	Outcome1	12.1	5.01	2549.75	Yes		7.09286523216308			776.0	TrialHappiness	Loss
27.0	1	419.941	4.012	496.029	12.1	2.5	31.1475	2.199	955.0	4.2	Outcome1	12.1	5.01	2549.75	Yes		7.09286523216308				ISIRate	Loss
	1	422.165	0.025	498.253				-0.001								{SPACE}		48.585	470.75		Rest	
	1	470.776	0.026	546.864				4.0													BlockHappyPreview	
	1	474.788	0.012	550.876				2.015												752.0	BlockStartHappiness	
	1	485.638	0.024	561.726				-0.001								5.0		5.136	490.774		ScanWait	
	2	0.012	0.012	566.874				10.0													GetReady	
28.0	2	10.025	0.013	576.887	-1.1	-0.55	31.01	3.0	70.0	1.68	Outcome1	-1.1	10.5	0.0	No	2.0	-11.598639455782301	0.851	10.876		GetAnswer	Loss
28.0	2	10.895	0.019	577.757	-1.1	-0.55	31.01	4.0	70.0	1.68	Outcome1	-1.1	10.5	0.0	No		-11.598639455782301				ShowChoice	Loss
28.0	2	14.907	0.012	581.769	-1.1	-0.55	31.01	1.0	70.0	1.68	Outcome1	-1.1	10.5	0.0	No		-11.598639455782301				ShowResult	Loss
28.0	2	15.926	0.019	582.788	-1.1	-0.55	31.01	3.575	70.0	1.68	Outcome1	-1.1	10.5	0.0	No		-11.598639455782301				ISITrial	Loss
29.0	2	19.52	0.019	586.382	-0.07	-0.04	31.0012	3.0	70.0	5.0	Outcome2	12.3	-0.07	3529.0	Yes	2.0	-12.371882086167801	1.249	20.769		GetAnswer	Loss
29.0	2	20.791	0.022	587.653	-0.07	-0.04	31.0012	4.0	70.0	5.0	Outcome2	12.3	-0.07	3529.0	Yes		-12.371882086167801				ShowChoice	Loss
29.0	2	24.803	0.012	591.665	-0.07	-0.04	31.0012	1.0	70.0	5.0	Outcome2	12.3	-0.07	3529.0	Yes		-12.371882086167801				ShowResult	Loss
29.0	2	25.823	0.02	592.685	-0.07	-0.04	31.0012	3.955	70.0	5.0	Outcome2	12.3	-0.07	3529.0	Yes		-12.371882086167801				ISITrial	Loss
29.0	2	33.345	0.015	600.207	-0.07	-0.04	31.0012	2.23	70.0	5.0	Outcome2	12.3	-0.07	3529.0	Yes		-12.371882086167801			704.0	TrialHappiness	Loss
29.0	2	37.374	4.029	604.236	-0.07	-0.04	31.0012	6.116	70.0	5.0	Outcome2	12.3	-0.07	3529.0	Yes		-12.371882086167801				ISIRate	Loss
30.0	2	43.509	0.019	610.371	-9.43	-3.0	29.8224	3.0	70.0	0.4	Outcome2	2.9	-9.43	0.0	No	2.0	-12.328798185941	1.89	45.399		GetAnswer	Mixed
30.0	2	45.414	0.015	612.276	-9.43	-3.0	29.8224	4.0	70.0	0.4	Outcome2	2.9	-9.43	0.0	No		-12.328798185941				ShowChoice	Mixed
30.0	2	49.443	0.029	616.305	-9.43	-3.0	29.8224	1.0	70.0	0.4	Outcome2	2.9	-9.43	0.0	No		-12.328798185941				ShowResult	Mixed
30.0	2	50.463	0.02	617.325	-9.43	-3.0	29.8224	4.453	70.0	0.4	Outcome2	2.9	-9.43	0.0	No		-12.328798185941				ISITrial	Mixed
31.0	2	54.943	0.027	621.805	1.0	1.0	29.9474	3.0	70.0	2.8	Certain	7.5	-5.55	2503.25	Yes	4.0	-13.047619047619	1.445	56.388		GetAnswer	Gain
31.0	2	56.414	0.026	623.276	1.0	1.0	29.9474	4.0	70.0	2.8	Certain	7.5	-5.55	2503.25	Yes		-13.047619047619				ShowChoice	Gain
31.0	2	60.443	0.029	627.305	1.0	1.0	29.9474	1.0	70.0	2.8	Certain	7.5	-5.55	2503.25	Yes		-13.047619047619				ShowResult	Gain
31.0	2	61.462	0.019	628.324	1.0	1.0	29.9474	4.786	70.0	2.8	Certain	7.5	-5.55	2503.25	Yes		-13.047619047619				ISITrial	Gain
31.0	2	68.801	0.021	635.663	1.0	1.0	29.9474	3.016	70.0	2.8	Certain	7.5	-5.55	2503.25	Yes		-13.047619047619			712.0	TrialHappiness	Gain
31.0	2	72.83	4.029	639.692	1.0	1.0	29.9474	2.013	70.0	2.8	Certain	7.5	-5.55	2503.25	Yes		-13.047619047619				ISIRate	Gain
32.0	2	74.869	0.026	641.731	2.0	2.0	30.1974	3.0	70.0	2.48	Certain	-4.6	9.3	0.0	No	4.0	-13.9024943310658	1.983	76.852		GetAnswer	Gain
32.0	2	76.875	0.023	643.737	2.0	2.0	30.1974	4.0	70.0	2.48	Certain	-4.6	9.3	0.0	No		-13.9024943310658				ShowChoice	Gain
32.0	2	80.887	0.012	647.749	2.0	2.0	30.1974	1.0	70.0	2.48	Certain	-4.6	9.3	0.0	No		-13.9024943310658				ShowResult	Gain
32.0	2	81.907	0.02	648.769	2.0	2.0	30.1974	2.0	70.0	2.48	Certain	-4.6	9.3	0.0	No		-13.9024943310658				ISITrial	Gain
33.0	2	83.93	0.023	650.792	-7.33	0.0	29.2812	3.0	70.0	2.48	Outcome2	7.3	-7.33	0.0	No	2.0	-14.6303854875283	1.506	85.436		GetAnswer	Gain
33.0	2	85.451	0.015	652.313	-7.33	0.0	29.2812	4.0	70.0	2.48	Outcome2	7.3	-7.33	0.0	No		-14.6303854875283				ShowChoice	Gain
33.0	2	89.479	0.028	656.341	-7.33	0.0	29.2812	1.0	70.0	2.48	Outcome2	7.3	-7.33	0.0	No		-14.6303854875283				ShowResult	Gain
33.0	2	90.499	0.02	657.361	-7.33	0.0	29.2812	5.099	70.0	2.48	Outcome2	7.3	-7.33	0.0	No		-14.6303854875283				ISITrial	Gain
34.0	2	95.631	0.033	662.493	0.0	0.0	29.2812	3.0	70.0	1.2	Certain	-2.0	0.98	3231.5	Yes	4.0	2.9782690854119402	1.888	97.519		GetAnswer	Mixed
34.0	2	97.537	0.018	664.399	0.0	0.0	29.2812	4.0	70.0	1.2	Certain	-2.0	0.98	3231.5	Yes		2.9782690854119402				ShowChoice	Mixed
34.0	2	101.549	0.012	668.411	0.0	0.0	29.2812	1.0	70.0	1.2	Certain	-2.0	0.98	3231.5	Yes		2.9782690854119402				ShowResult	Mixed
34.0	2	102.569	0.02	669.431	0.0	0.0	29.2812	4.784	70.0	1.2	Certain	-2.0	0.98	3231.5	Yes		2.9782690854119402				ISITrial	Mixed
34.0	2	110.626	0.028	677.488	0.0	0.0	29.2812	3.4	70.0	1.2	Certain	-2.0	0.98	3231.5	Yes		2.9782690854119402			724.0	TrialHappiness	Mixed
34.0	2	114.655	4.029	681.517	0.0	0.0	29.2812	4.926	70.0	1.2	Certain	-2.0	0.98	3231.5	Yes		2.9782690854119402				ISIRate	Mixed
35.0	2	119.603	0.022	686.465	1.92	0.0	29.5212	3.0	70.0	3.16	Outcome2	-1.17	1.92	0.0	No	2.0	3.08767951625094	1.537	121.14		GetAnswer	Gain
35.0	2	121.157	0.017	688.019	1.92	0.0	29.5212	4.0	70.0	3.16	Outcome2	-1.17	1.92	0.0	No		3.08767951625094				ShowChoice	Gain
35.0	2	125.169	0.012	692.031	1.92	0.0	29.5212	1.0	70.0	3.16	Outcome2	-1.17	1.92	0.0	No		3.08767951625094				ShowResult	Gain
35.0	2	126.189	0.02	693.051	1.92	0.0	29.5212	2.098	70.0	3.16	Outcome2	-1.17	1.92	0.0	No		3.08767951625094				ISITrial	Gain
36.0	2	128.312	0.025	695.174	-12.93	-4.0	27.9049	3.0	70.0	1.5	Outcome1	-12.93	4.1	3335.75	Yes	2.0	-17.031746031746	1.719	130.031		GetAnswer	Mixed
36.0	2	130.051	0.02	696.913	-12.93	-4.0	27.9049	4.0	70.0	1.5	Outcome1	-12.93	4.1	3335.75	Yes		-17.031746031746				ShowChoice	Mixed
36.0	2	134.063	0.012	700.925	-12.93	-4.0	27.9049	1.0	70.0	1.5	Outcome1	-12.93	4.1	3335.75	Yes		-17.031746031746				ShowResult	Mixed
36.0	2	135.082	0.019	701.944	-12.93	-4.0	27.9049	5.156	70.0	1.5	Outcome1	-12.93	4.1	3335.75	Yes		-17.031746031746				ISITrial	Mixed
36.0	2	143.624	0.024	710.486	-12.93	-4.0	27.9049	3.669	70.0	1.5	Outcome1	-12.93	4.1	3335.75	Yes		-17.031746031746			660.0	TrialHappiness	Mixed
36.0	2	147.653	4.029	714.515	-12.93	-4.0	27.9049	5.343	70.0	1.5	Outcome1	-12.93	4.1	3335.75	Yes		-17.031746031746				ISIRate	Mixed
37.0	2	153.019	0.023	719.881	2.82	1.0	28.2574	3.0	70.0	2.48	Outcome1	2.82	-0.13	0.0	No	2.0	2.95124716553288	1.877	154.896		GetAnswer	Loss
37.0	2	154.925	0.029	721.787	2.82	1.0	28.2574	4.0	70.0	2.48	Outcome1	2.82	-0.13	0.0	No		2.95124716553288				ShowChoice	Loss
37.0	2	158.954	0.029	725.816	2.82	1.0	28.2574	1.0	70.0	2.48	Outcome1	2.82	-0.13	0.0	No		2.95124716553288				ShowResult	Loss
37.0	2	159.973	0.019	726.835	2.82	1.0	28.2574	3.598	70.0	2.48	Outcome1	2.82	-0.13	0.0	No		2.95124716553288				ISITrial	Loss
38.0	2	163.601	0.03	730.463	-7.0	-7.0	27.3824	3.0	70.0	0.82	Certain	-15.85	1.5	0.0	No	4.0	-17.353741496598598	2.888	166.489		GetAnswer	Mixed
38.0	2	166.509	0.02	733.371	-7.0	-7.0	27.3824	4.0	70.0	0.82	Certain	-15.85	1.5	0.0	No		-17.353741496598598				ShowChoice	Mixed
38.0	2	170.521	0.012	737.383	-7.0	-7.0	27.3824	1.0	70.0	0.82	Certain	-15.85	1.5	0.0	No		-17.353741496598598				ShowResult	Mixed
38.0	2	171.541	0.02	738.403	-7.0	-7.0	27.3824	4.787	70.0	0.82	Certain	-15.85	1.5	0.0	No		-17.353741496598598				ISITrial	Mixed
39.0	2	176.356	0.028	743.218	-12.72	-3.0	25.7924	3.0	70.0	2.48	Outcome1	-12.72	5.3	2864.25	Yes		-18.0226757369615				GetAnswer	Gain
39.0	2	179.381	0.025	746.243	-12.72	-3.0	25.7924	4.0	70.0	2.48	Outcome1	-12.72	5.3	2864.25	Yes		-18.0226757369615				ShowChoice	Gain
39.0	2	183.393	0.012	750.255	-12.72	-3.0	25.7924	1.0	70.0	2.48	Outcome1	-12.72	5.3	2864.25	Yes		-18.0226757369615				ShowResult	Gain
39.0	2	184.413	0.02	751.275	-12.72	-3.0	25.7924	2.348	70.0	2.48	Outcome1	-12.72	5.3	2864.25	Yes		-18.0226757369615				ISITrial	Gain
39.0	2	189.679	0.028	756.541	-12.72	-3.0	25.7924	2.124	70.0	2.48	Outcome1	-12.72	5.3	2864.25	Yes	2{-2}2{-2}2{-2}2{-2}2{-2}2{-2}	-18.0226757369615	2.124	191.803	632.0	TrialHappiness	Gain
39.0	2	193.691	4.012	760.553	-12.72	-3.0	25.7924	3.457	70.0	2.48	Outcome1	-12.72	5.3	2864.25	Yes		-18.0226757369615				ISIRate	Gain
40.0	2	197.168	0.02	764.03	-9.92	-1.0	24.5524	3.0	70.0	5.0	Outcome2	8.3	-9.92	0.0	No	2.0	-18.215419501133802	1.263	198.431		GetAnswer	Gain
40.0	2	198.455	0.024	765.317	-9.92	-1.0	24.5524	4.0	70.0	5.0	Outcome2	8.3	-9.92	0.0	No		-18.215419501133802				ShowChoice	Gain
40.0	2	202.467	0.012	769.329	-9.92	-1.0	24.5524	1.0	70.0	5.0	Outcome2	8.3	-9.92	0.0	No		-18.215419501133802				ShowResult	Gain
40.0	2	203.487	0.02	770.349	-9.92	-1.0	24.5524	3.158	70.0	5.0	Outcome2	8.3	-9.92	0.0	No		-18.215419501133802				ISITrial	Gain
41.0	2	206.663	0.018	773.525	-19.15	-9.0	22.1586	3.0	70.0	1.0	Outcome1	-19.15	-0.3	4000.0	Yes	2.0	-18.852607709750604	2.02	208.683		GetAnswer	Mixed
41.0	2	208.702	0.019	775.564	-19.15	-9.0	22.1586	4.0	70.0	1.0	Outcome1	-19.15	-0.3	4000.0	Yes		-18.852607709750604				ShowChoice	Mixed
41.0	2	212.714	0.012	779.576	-19.15	-9.0	22.1586	1.0	70.0	1.0	Outcome1	-19.15	-0.3	4000.0	Yes		-18.852607709750604				ShowResult	Mixed
41.0	2	213.734	0.02	780.596	-19.15	-9.0	22.1586	4.506	70.0	1.0	Outcome1	-19.15	-0.3	4000.0	Yes		-18.852607709750604				ISITrial	Mixed
41.0	2	222.293	0.029	789.155	-19.15	-9.0	22.1586	1.545	70.0	1.0	Outcome1	-19.15	-0.3	4000.0	Yes		-18.852607709750604			592.0	TrialHappiness	Mixed
41.0	2	226.305	4.012	793.167	-19.15	-9.0	22.1586	8.0	70.0	1.0	Outcome1	-19.15	-0.3	4000.0	Yes		-18.852607709750604				ISIRate	Mixed
42.0	2	234.329	0.024	801.191	-0.12	-1.0	22.1436	3.0	70.0	0.82	Outcome1	-0.12	-3.07	0.0	No	2.0	2.9484126984127004	1.499	235.828		GetAnswer	Mixed
42.0	2	235.85	0.022	802.712	-0.12	-1.0	22.1436	4.0	70.0	0.82	Outcome1	-0.12	-3.07	0.0	No		2.9484126984127004				ShowChoice	Mixed
42.0	2	239.862	0.012	806.724	-0.12	-1.0	22.1436	1.0	70.0	0.82	Outcome1	-0.12	-3.07	0.0	No		2.9484126984127004				ShowResult	Mixed
42.0	2	240.882	0.02	807.744	-0.12	-1.0	22.1436	6.248	70.0	0.82	Outcome1	-0.12	-3.07	0.0	No		2.9484126984127004				ISITrial	Mixed
43.0	2	247.15	0.02	814.012	-1.0	-1.0	22.0186	3.0	70.0	0.66	Certain	-3.18	-0.18	2775.75	Yes	4.0	2.9977324263038496	1.936	249.086		GetAnswer	Mixed
43.0	2	249.106	0.02	815.968	-1.0	-1.0	22.0186	4.0	70.0	0.66	Certain	-3.18	-0.18	2775.75	Yes		2.9977324263038496				ShowChoice	Mixed
43.0	2	253.118	0.012	819.98	-1.0	-1.0	22.0186	1.0	70.0	0.66	Certain	-3.18	-0.18	2775.75	Yes		2.9977324263038496				ShowResult	Mixed
43.0	2	254.138	0.02	821.0	-1.0	-1.0	22.0186	4.596	70.0	0.66	Certain	-3.18	-0.18	2775.75	Yes		2.9977324263038496				ISITrial	Mixed
43.0	2	261.543	0.015	828.405	-1.0	-1.0	22.0186	1.581	70.0	0.66	Certain	-3.18	-0.18	2775.75	Yes		2.9977324263038496			608.0	TrialHappiness	Mixed
43.0	2	265.555	4.012	832.417	-1.0	-1.0	22.0186	3.103	70.0	0.66	Certain	-3.18	-0.18	2775.75	Yes		2.9977324263038496				ISIRate	Mixed
44.0	2	268.681	0.023	835.543	1.0	1.0	22.1436	3.0	70.0	3.6	Certain	2.98	-0.13	0.0	No	4.0	3.1120559334845095	1.498	270.179		GetAnswer	Loss
44.0	2	270.202	0.023	837.064	1.0	1.0	22.1436	4.0	70.0	3.6	Certain	2.98	-0.13	0.0	No		3.1120559334845095				ShowChoice	Loss
44.0	2	274.231	0.029	841.093	1.0	1.0	22.1436	1.0	70.0	3.6	Certain	2.98	-0.13	0.0	No		3.1120559334845095				ShowResult	Loss
44.0	2	275.251	0.02	842.113	1.0	1.0	22.1436	2.42	70.0	3.6	Certain	2.98	-0.13	0.0	No		3.1120559334845095				ISITrial	Loss
45.0	2	277.692	0.021	844.554	-9.78	0.0	20.9211	3.0	70.0	2.22	Outcome1	-9.78	11.1	0.0	No	2.0	-20.875283446712	1.455	279.147		GetAnswer	Loss
45.0	2	279.163	0.016	846.025	-9.78	0.0	20.9211	4.0	70.0	2.22	Outcome1	-9.78	11.1	0.0	No		-20.875283446712				ShowChoice	Loss
45.0	2	283.191	0.028	850.053	-9.78	0.0	20.9211	1.0	70.0	2.22	Outcome1	-9.78	11.1	0.0	No		-20.875283446712				ShowResult	Loss
45.0	2	284.211	0.02	851.073	-9.78	0.0	20.9211	3.144	70.0	2.22	Outcome1	-9.78	11.1	0.0	No		-20.875283446712				ISITrial	Loss
46.0	2	287.387	0.032	854.249	-16.99	-6.0	18.7973	3.0	70.0	1.68	Outcome1	-16.99	4.5	3841.25	Yes	2.0	-21.485260770975103	1.422	288.809		GetAnswer	Gain
46.0	2	288.825	0.016	855.687	-16.99	-6.0	18.7973	4.0	70.0	1.68	Outcome1	-16.99	4.5	3841.25	Yes		-21.485260770975103				ShowChoice	Gain
46.0	2	292.837	0.012	859.699	-16.99	-6.0	18.7973	1.0	70.0	1.68	Outcome1	-16.99	4.5	3841.25	Yes		-21.485260770975103				ShowResult	Gain
46.0	2	293.856	0.019	860.718	-16.99	-6.0	18.7973	2.246	70.0	1.68	Outcome1	-16.99	4.5	3841.25	Yes		-21.485260770975103				ISITrial	Gain
46.0	2	299.975	0.021	866.837	-16.99	-6.0	18.7973	2.748	70.0	1.68	Outcome1	-16.99	4.5	3841.25	Yes		-21.485260770975103			592.0	TrialHappiness	Gain
46.0	2	303.987	4.012	870.849	-16.99	-6.0	18.7973	7.365	70.0	1.68	Outcome1	-16.99	4.5	3841.25	Yes		-21.485260770975103				ISIRate	Gain
47.0	2	311.375	0.023	878.237	-11.72	-1.0	17.3323	3.0	70.0	4.2	Outcome1	-11.72	10.1	0.0	No	2.0	-21.823129251700696	1.355	312.73		GetAnswer	Gain
47.0	2	312.746	0.016	879.608	-11.72	-1.0	17.3323	4.0	70.0	4.2	Outcome1	-11.72	10.1	0.0	No		-21.823129251700696				ShowChoice	Gain
47.0	2	316.758	0.012	883.62	-11.72	-1.0	17.3323	1.0	70.0	4.2	Outcome1	-11.72	10.1	0.0	No		-21.823129251700696				ShowResult	Gain
47.0	2	317.778	0.02	884.64	-11.72	-1.0	17.3323	2.0	70.0	4.2	Outcome1	-11.72	10.1	0.0	No		-21.823129251700696				ISITrial	Gain
48.0	2	319.801	0.023	886.663	1.0	1.0	17.4573	3.0	70.0	1.82	Certain	-0.57	2.68	2831.75	Yes	4.0	3.24886621315193	1.385	321.186		GetAnswer	Loss
48.0	2	321.205	0.019	888.067	1.0	1.0	17.4573	4.0	70.0	1.82	Certain	-0.57	2.68	2831.75	Yes		3.24886621315193				ShowChoice	Loss
48.0	2	325.217	0.012	892.079	1.0	1.0	17.4573	1.0	70.0	1.82	Certain	-0.57	2.68	2831.75	Yes		3.24886621315193				ShowResult	Loss
48.0	2	326.236	0.019	893.098	1.0	1.0	17.4573	3.692	70.0	1.82	Certain	-0.57	2.68	2831.75	Yes		3.24886621315193				ISITrial	Loss
48.0	2	332.806	0.026	899.668	1.0	1.0	17.4573	0.96	70.0	1.82	Certain	-0.57	2.68	2831.75	Yes		3.24886621315193			584.0	TrialHappiness	Loss
48.0	2	336.818	4.012	903.68	1.0	1.0	17.4573	3.327	70.0	1.82	Certain	-0.57	2.68	2831.75	Yes		3.24886621315193				ISIRate	Loss
49.0	2	340.161	0.016	907.023	-18.17	-6.0	15.186	3.0	70.0	1.82	Outcome2	4.7	-18.17	0.0	No	2.0	-22.8707482993197	1.454	341.615		GetAnswer	Gain
49.0	2	341.632	0.017	908.494	-18.17	-6.0	15.186	4.0	70.0	1.82	Outcome2	4.7	-18.17	0.0	No		-22.8707482993197				ShowChoice	Gain
49.0	2	345.644	0.012	912.506	-18.17	-6.0	15.186	1.0	70.0	1.82	Outcome2	4.7	-18.17	0.0	No		-22.8707482993197				ShowResult	Gain
49.0	2	346.664	0.02	913.526	-18.17	-6.0	15.186	8.0	70.0	1.82	Outcome2	4.7	-18.17	0.0	No		-22.8707482993197				ISITrial	Gain
50.0	2	354.688	0.024	921.55	0.0	0.0	15.186	3.0	70.0	2.8	Certain	-11.95	11.5	3547.25	Yes	4.0	-23.453514739229004	1.698	356.386		GetAnswer	Loss
50.0	2	356.41	0.024	923.272	0.0	0.0	15.186	4.0	70.0	2.8	Certain	-11.95	11.5	3547.25	Yes		-23.453514739229004				ShowChoice	Loss
50.0	2	360.422	0.012	927.284	0.0	0.0	15.186	1.0	70.0	2.8	Certain	-11.95	11.5	3547.25	Yes		-23.453514739229004				ShowResult	Loss
50.0	2	361.442	0.02	928.304	0.0	0.0	15.186	7.537	70.0	2.8	Certain	-11.95	11.5	3547.25	Yes		-23.453514739229004				ISITrial	Loss
50.0	2	372.575	0.03	939.437	0.0	0.0	15.186	1.662	70.0	2.8	Certain	-11.95	11.5	3547.25	Yes		-23.453514739229004			616.0	TrialHappiness	Loss
50.0	2	376.587	4.012	943.449	0.0	0.0	15.186	6.189	70.0	2.8	Certain	-11.95	11.5	3547.25	Yes		-23.453514739229004				ISIRate	Loss
51.0	2	382.805	0.029	949.667	1.42	0.0	15.3635	3.0	70.0	3.16	Outcome1	1.42	-2.07	0.0	No	2.0	3.49281934996221	1.259	384.064		GetAnswer	Gain
51.0	2	384.076	0.012	950.938	1.42	0.0	15.3635	4.0	70.0	3.16	Outcome1	1.42	-2.07	0.0	No		3.49281934996221				ShowChoice	Gain
51.0	2	388.088	0.012	954.95	1.42	0.0	15.3635	1.0	70.0	3.16	Outcome1	1.42	-2.07	0.0	No		3.49281934996221				ShowResult	Gain
51.0	2	389.108	0.02	955.97	1.42	0.0	15.3635	5.508	70.0	3.16	Outcome1	1.42	-2.07	0.0	No		3.49281934996221				ISITrial	Gain
52.0	2	394.641	0.025	961.503	-9.0	-9.0	14.2385	3.0	70.0	0.52	Certain	3.1	-22.1	0.0	No	4.0	-25.1995464852608	1.592	396.233		GetAnswer	Mixed
52.0	2	396.246	0.013	963.108	-9.0	-9.0	14.2385	4.0	70.0	0.52	Certain	3.1	-22.1	0.0	No		-25.1995464852608				ShowChoice	Mixed
52.0	2	400.258	0.012	967.12	-9.0	-9.0	14.2385	1.0	70.0	0.52	Certain	3.1	-22.1	0.0	No		-25.1995464852608				ShowResult	Mixed
52.0	2	401.277	0.019	968.139	-9.0	-9.0	14.2385	5.913	70.0	0.52	Certain	3.1	-22.1	0.0	No		-25.1995464852608				ISITrial	Mixed
53.0	2	407.212	0.022	974.074	-12.0	-12.0	12.7385	3.0	70.0	0.2	Certain	-25.32	0.5	2996.75	Yes	4.0	-25.8185941043084	1.964	409.176		GetAnswer	Mixed
53.0	2	409.201	0.025	976.063	-12.0	-12.0	12.7385	4.0	70.0	0.2	Certain	-25.32	0.5	2996.75	Yes		-25.8185941043084				ShowChoice	Mixed
53.0	2	413.213	0.012	980.075	-12.0	-12.0	12.7385	1.0	70.0	0.2	Certain	-25.32	0.5	2996.75	Yes		-25.8185941043084				ShowResult	Mixed
53.0	2	414.233	0.02	981.095	-12.0	-12.0	12.7385	3.66	70.0	0.2	Certain	-25.32	0.5	2996.75	Yes		-25.8185941043084				ISITrial	Mixed
53.0	2	420.936	0.029	987.798	-12.0	-12.0	12.7385	3.417	70.0	0.2	Certain	-25.32	0.5	2996.75	Yes		-25.8185941043084			592.0	TrialHappiness	Mixed
53.0	2	424.948	4.012	991.81	-12.0	-12.0	12.7385	3.987	70.0	0.2	Certain	-25.32	0.5	2996.75	Yes		-25.8185941043084				ISIRate	Mixed
54.0	2	428.96	0.025	995.822	1.0	1.0	12.8635	3.0	70.0	3.6	Certain	-12.13	13.9	0.0	No	4.0	-26.029478458049898	1.787	430.747		GetAnswer	Loss
54.0	2	430.765	0.018	997.627	1.0	1.0	12.8635	4.0	70.0	3.6	Certain	-12.13	13.9	0.0	No		-26.029478458049898				ShowChoice	Loss
54.0	2	434.777	0.012	1001.639	1.0	1.0	12.8635	1.0	70.0	3.6	Certain	-12.13	13.9	0.0	No		-26.029478458049898				ShowResult	Loss
54.0	2	435.797	0.02	1002.659	1.0	1.0	12.8635	8.0	70.0	3.6	Certain	-12.13	13.9	0.0	No		-26.029478458049898				ISITrial	Loss
	2	443.821	0.024	1010.683				-0.001								{SPACE}		51.405	495.226		Rest	
	2	495.241	0.015	1062.103				4.0													BlockHappyPreview	
	2	499.253	0.012	1066.115				2.381												624.0	BlockStartHappiness	
	2	518.979	0.025	1085.841				-0.001								5.0		4.81	523.789		ScanWait	
	3	0.021	0.021	1090.672				10.0													GetReady	
55.0	3	10.034	0.013	1100.685	8.5	1.44	13.925999999999998	3.0	955.0	1.68	Outcome2	2.88	8.5	2533.25	Yes	2.0	5.62287655719139	1.143	11.177		GetAnswer	Gain
55.0	3	11.204	0.027	1101.855	8.5	1.44	13.925999999999998	4.0	955.0	1.68	Outcome2	2.88	8.5	2533.25	Yes		5.62287655719139				ShowChoice	Gain
55.0	3	15.216	0.012	1105.867	8.5	1.44	13.925999999999998	1.0	955.0	1.68	Outcome2	2.88	8.5	2533.25	Yes		5.62287655719139				ShowResult	Gain
55.0	3	16.236	0.02	1106.887	8.5	1.44	13.925999999999998	7.709	955.0	1.68	Outcome2	2.88	8.5	2533.25	Yes		5.62287655719139				ISITrial	Gain
55.0	3	26.517	0.025	1117.168	8.5	1.44	13.925999999999998	1.762	955.0	1.68	Outcome2	2.88	8.5	2533.25	Yes	2{-2}2{-2}2{-2}	5.62287655719139	1.762	28.279	632.0	TrialHappiness	Gain
55.0	3	30.529	4.012	1121.18	8.5	1.44	13.925999999999998	2.133	955.0	1.68	Outcome2	2.88	8.5	2533.25	Yes		5.62287655719139				ISIRate	Gain
56.0	3	32.685	0.023	1123.336	2.1	-1.0	14.1885	3.0	955.0	1.5	Outcome2	-3.76	2.1	0.0	No	2.0	5.861834654586639	1.255	33.94		GetAnswer	Mixed
56.0	3	33.956	0.016	1124.607	2.1	-1.0	14.1885	4.0	955.0	1.5	Outcome2	-3.76	2.1	0.0	No		5.861834654586639				ShowChoice	Mixed
56.0	3	37.968	0.012	1128.619	2.1	-1.0	14.1885	1.0	955.0	1.5	Outcome2	-3.76	2.1	0.0	No		5.861834654586639				ShowResult	Mixed
56.0	3	38.987	0.019	1129.638	2.1	-1.0	14.1885	4.697	955.0	1.5	Outcome2	-3.76	2.1	0.0	No		5.861834654586639				ISITrial	Mixed
57.0	3	43.701	0.017	1134.352	5.9	-0.16	14.925999999999998	3.0	955.0	3.6	Outcome1	5.9	-0.33	0.0	No	2.0	6.22763306908267	1.366	45.067		GetAnswer	Gain
57.0	3	45.089	0.022	1135.74	5.9	-0.16	14.925999999999998	4.0	955.0	3.6	Outcome1	5.9	-0.33	0.0	No		6.22763306908267				ShowChoice	Gain
57.0	3	49.101	0.012	1139.752	5.9	-0.16	14.925999999999998	1.0	955.0	3.6	Outcome1	5.9	-0.33	0.0	No		6.22763306908267				ShowResult	Gain
57.0	3	50.121	0.02	1140.772	5.9	-0.16	14.925999999999998	4.291	955.0	3.6	Outcome1	5.9	-0.33	0.0	No		6.22763306908267				ISITrial	Gain
58.0	3	54.433	0.021	1145.084	11.7	2.56	16.3885	3.0	955.0	3.16	Outcome2	5.11	11.7	3045.75	Yes	2.0	6.59343148357871	1.079	55.512		GetAnswer	Loss
58.0	3	55.537	0.025	1146.188	11.7	2.56	16.3885	4.0	955.0	3.16	Outcome2	5.11	11.7	3045.75	Yes		6.59343148357871				ShowChoice	Loss
58.0	3	59.549	0.012	1150.2	11.7	2.56	16.3885	1.0	955.0	3.16	Outcome2	5.11	11.7	3045.75	Yes		6.59343148357871				ShowResult	Loss
58.0	3	60.568	0.019	1151.219	11.7	2.56	16.3885	2.037	955.0	3.16	Outcome2	5.11	11.7	3045.75	Yes		6.59343148357871				ISITrial	Loss
58.0	3	65.7	0.029	1156.351	11.7	2.56	16.3885	2.548	955.0	3.16	Outcome2	5.11	11.7	3045.75	Yes		6.59343148357871			648.0	TrialHappiness	Loss
58.0	3	69.712	4.012	1160.363	11.7	2.56	16.3885	4.183	955.0	3.16	Outcome2	5.11	11.7	3045.75	Yes		6.59343148357871				ISIRate	Loss
59.0	3	73.925	0.03	1164.576	9.9	1.6	17.625999999999998	3.0	955.0	3.6	Outcome2	3.21	9.9	0.0	No	2.0	6.687429218573049	1.086	75.011		GetAnswer	Gain
59.0	3	75.028	0.017	1165.679	9.9	1.6	17.625999999999998	4.0	955.0	3.6	Outcome2	3.21	9.9	0.0	No		6.687429218573049				ShowChoice	Gain
59.0	3	79.04	0.012	1169.691	9.9	1.6	17.625999999999998	1.0	955.0	3.6	Outcome2	3.21	9.9	0.0	No		6.687429218573049				ShowResult	Gain
59.0	3	80.06	0.02	1170.711	9.9	1.6	17.625999999999998	5.064	955.0	3.6	Outcome2	3.21	9.9	0.0	No		6.687429218573049				ISITrial	Gain
60.0	3	85.142	0.018	1175.793	9.7	1.33	18.8385	3.0	955.0	3.16	Outcome1	9.7	2.66	3562.5	Yes	2.0	7.0351075877689695	1.189	86.331		GetAnswer	Gain
60.0	3	86.345	0.014	1176.996	9.7	1.33	18.8385	4.0	955.0	3.16	Outcome1	9.7	2.66	3562.5	Yes		7.0351075877689695				ShowChoice	Gain
60.0	3	90.357	0.012	1181.008	9.7	1.33	18.8385	1.0	955.0	3.16	Outcome1	9.7	2.66	3562.5	Yes		7.0351075877689695				ShowResult	Gain
60.0	3	91.377	0.02	1182.028	9.7	1.33	18.8385	8.0	955.0	3.16	Outcome1	9.7	2.66	3562.5	Yes		7.0351075877689695				ISITrial	Gain
60.0	3	102.978	0.015	1193.629	9.7	1.33	18.8385	1.93	955.0	3.16	Outcome1	9.7	2.66	3562.5	Yes		7.0351075877689695			648.0	TrialHappiness	Gain
60.0	3	106.99	4.012	1197.641	9.7	1.33	18.8385	6.25	955.0	3.16	Outcome1	9.7	2.66	3562.5	Yes		7.0351075877689695				ISIRate	Gain
61.0	3	113.259	0.019	1203.91	1.9	-2.0	19.076	3.0	955.0	1.2	Outcome2	-5.48	1.9	0.0	No	2.0	7.38278595696489	1.259	114.518		GetAnswer	Mixed
61.0	3	114.53	0.012	1205.181	1.9	-2.0	19.076	4.0	955.0	1.2	Outcome2	-5.48	1.9	0.0	No		7.38278595696489				ShowChoice	Mixed
61.0	3	118.542	0.012	1209.193	1.9	-2.0	19.076	1.0	955.0	1.2	Outcome2	-5.48	1.9	0.0	No		7.38278595696489				ShowResult	Mixed
61.0	3	119.561	0.019	1210.212	1.9	-2.0	19.076	4.586	955.0	1.2	Outcome2	-5.48	1.9	0.0	No		7.38278595696489				ISITrial	Mixed
62.0	3	124.175	0.028	1214.826	-5.0	-5.0	18.451	3.0	955.0	0.2	Certain	-1.5	-9.23	3748.75	Yes	4.0	7.730464326160821	1.633	125.808		GetAnswer	Mixed
62.0	3	125.83	0.022	1216.481	-5.0	-5.0	18.451	4.0	955.0	0.2	Certain	-1.5	-9.23	3748.75	Yes		7.730464326160821				ShowChoice	Mixed
62.0	3	129.842	0.012	1220.493	-5.0	-5.0	18.451	1.0	955.0	0.2	Certain	-1.5	-9.23	3748.75	Yes		7.730464326160821				ShowResult	Mixed
62.0	3	130.862	0.02	1221.513	-5.0	-5.0	18.451	5.212	955.0	0.2	Certain	-1.5	-9.23	3748.75	Yes		7.730464326160821				ISITrial	Mixed
62.0	3	139.872	0.029	1230.523	-5.0	-5.0	18.451	1.577	955.0	0.2	Certain	-1.5	-9.23	3748.75	Yes		7.730464326160821			648.0	TrialHappiness	Mixed
62.0	3	143.884	4.012	1234.535	-5.0	-5.0	18.451	6.995	955.0	0.2	Certain	-1.5	-9.23	3748.75	Yes		7.730464326160821				ISIRate	Mixed
63.0	3	150.905	0.026	1241.556	2.22	1.11	18.7285	3.0	955.0	1.0	Outcome1	2.22	3.7	0.0	No	2.0	-1.48442808607022	1.01	151.915		GetAnswer	Mixed
63.0	3	151.941	0.026	1242.592	2.22	1.11	18.7285	4.0	955.0	1.0	Outcome1	2.22	3.7	0.0	No		-1.48442808607022				ShowChoice	Mixed
63.0	3	155.953	0.012	1246.604	2.22	1.11	18.7285	1.0	955.0	1.0	Outcome1	2.22	3.7	0.0	No		-1.48442808607022				ShowResult	Mixed
63.0	3	156.973	0.02	1247.624	2.22	1.11	18.7285	5.595	955.0	1.0	Outcome1	2.22	3.7	0.0	No		-1.48442808607022				ISITrial	Mixed
64.0	3	162.59	0.022	1253.241	4.79	2.4	19.3273	3.0	955.0	5.0	Outcome2	6.3	4.79	0.0	No	2.0	-1.51340128350321	0.906	163.496		GetAnswer	Gain
64.0	3	163.509	0.013	1254.16	4.79	2.4	19.3273	4.0	955.0	5.0	Outcome2	6.3	4.79	0.0	No		-1.51340128350321				ShowChoice	Gain
64.0	3	167.521	0.012	1258.172	4.79	2.4	19.3273	1.0	955.0	5.0	Outcome2	6.3	4.79	0.0	No		-1.51340128350321				ShowResult	Gain
64.0	3	168.541	0.02	1259.192	4.79	2.4	19.3273	5.47	955.0	5.0	Outcome2	6.3	4.79	0.0	No		-1.51340128350321				ISITrial	Gain
65.0	3	174.041	0.03	1264.692	10.3	0.76	20.6148	3.0	955.0	5.0	Outcome2	1.53	10.3	2996.75	Yes	2.0	8.77349943374858	1.088	175.129		GetAnswer	Gain
65.0	3	175.144	0.015	1265.795	10.3	0.76	20.6148	4.0	955.0	5.0	Outcome2	1.53	10.3	2996.75	Yes		8.77349943374858				ShowChoice	Gain
65.0	3	179.156	0.012	1269.807	10.3	0.76	20.6148	1.0	955.0	5.0	Outcome2	1.53	10.3	2996.75	Yes		8.77349943374858				ShowResult	Gain
65.0	3	180.176	0.02	1270.827	10.3	0.76	20.6148	3.344	955.0	5.0	Outcome2	1.53	10.3	2996.75	Yes		8.77349943374858				ISITrial	Gain
65.0	3	186.561	0.028	1277.212	10.3	0.76	20.6148	1.527	955.0	5.0	Outcome2	1.53	10.3	2996.75	Yes		8.77349943374858			656.0	TrialHappiness	Gain
65.0	3	190.573	4.012	1281.224	10.3	0.76	20.6148	3.987	955.0	5.0	Outcome2	1.53	10.3	2996.75	Yes		8.77349943374858				ISIRate	Gain
66.0	3	194.585	0.025	1285.236	-0.84	0.0	20.5098	3.0	955.0	0.3	Outcome1	-0.84	0.7	0.0	No	2.0	-1.5388825972064901	1.086	195.671		GetAnswer	Mixed
66.0	3	195.689	0.018	1286.34	-0.84	0.0	20.5098	4.0	955.0	0.3	Outcome1	-0.84	0.7	0.0	No		-1.5388825972064901				ShowChoice	Mixed
66.0	3	199.701	0.012	1290.352	-0.84	0.0	20.5098	1.0	955.0	0.3	Outcome1	-0.84	0.7	0.0	No		-1.5388825972064901				ShowResult	Mixed
66.0	3	200.72	0.019	1291.371	-0.84	0.0	20.5098	3.959	955.0	0.3	Outcome1	-0.84	0.7	0.0	No		-1.5388825972064901				ISITrial	Mixed
67.0	3	204.699	0.02	1295.35	2.0	2.0	20.7598	3.0	955.0	1.68	Certain	6.5	-2.82	2918.5	Yes	4.0	9.32389580973952	1.253	205.952		GetAnswer	Gain
67.0	3	205.969	0.017	1296.62	2.0	2.0	20.7598	4.0	955.0	1.68	Certain	6.5	-2.82	2918.5	Yes		9.32389580973952				ShowChoice	Gain
67.0	3	209.981	0.012	1300.632	2.0	2.0	20.7598	1.0	955.0	1.68	Certain	6.5	-2.82	2918.5	Yes		9.32389580973952				ShowResult	Gain
67.0	3	211.001	0.02	1301.652	2.0	2.0	20.7598	4.199	955.0	1.68	Certain	6.5	-2.82	2918.5	Yes		9.32389580973952				ISITrial	Gain
67.0	3	218.156	0.024	1308.807	2.0	2.0	20.7598	1.478	955.0	1.68	Certain	6.5	-2.82	2918.5	Yes		9.32389580973952			624.0	TrialHappiness	Gain
67.0	3	222.168	4.012	1312.819	2.0	2.0	20.7598	3.674	955.0	1.68	Certain	6.5	-2.82	2918.5	Yes		9.32389580973952				ISIRate	Gain
68.0	3	225.862	0.02	1316.513	2.7	-2.0	21.0973	3.0	955.0	0.3	Outcome2	-7.51	2.7	0.0	No	2.0	10.2061155152888	1.403	227.265		GetAnswer	Mixed
68.0	3	227.283	0.018	1317.934	2.7	-2.0	21.0973	4.0	955.0	0.3	Outcome2	-7.51	2.7	0.0	No		10.2061155152888				ShowChoice	Mixed
68.0	3	231.295	0.012	1321.946	2.7	-2.0	21.0973	1.0	955.0	0.3	Outcome2	-7.51	2.7	0.0	No		10.2061155152888				ShowResult	Mixed
68.0	3	232.315	0.02	1322.966	2.7	-2.0	21.0973	2.185	955.0	0.3	Outcome2	-7.51	2.7	0.0	No		10.2061155152888				ISITrial	Mixed
69.0	3	234.521	0.021	1325.172	1.7	-3.0	21.3098	3.0	955.0	1.0	Outcome2	-8.88	1.7	0.0	No	2.0	10.5809739524349	1.325	235.846		GetAnswer	Mixed
69.0	3	235.859	0.013	1326.51	1.7	-3.0	21.3098	4.0	955.0	1.0	Outcome2	-8.88	1.7	0.0	No		10.5809739524349				ShowChoice	Mixed
69.0	3	239.871	0.012	1330.522	1.7	-3.0	21.3098	1.0	955.0	1.0	Outcome2	-8.88	1.7	0.0	No		10.5809739524349				ShowResult	Mixed
69.0	3	240.89	0.019	1331.541	1.7	-3.0	21.3098	2.0	955.0	1.0	Outcome2	-8.88	1.7	0.0	No		10.5809739524349				ISITrial	Mixed
70.0	3	242.913	0.023	1333.564	7.1	1.0	22.1973	3.0	955.0	2.22	Outcome2	-3.86	7.1	3651.25	Yes	2.0	10.955832389581001	1.455	244.368		GetAnswer	Gain
70.0	3	244.384	0.016	1335.035	7.1	1.0	22.1973	4.0	955.0	2.22	Outcome2	-3.86	7.1	3651.25	Yes		10.955832389581001				ShowChoice	Gain
70.0	3	248.396	0.012	1339.047	7.1	1.0	22.1973	1.0	955.0	2.22	Outcome2	-3.86	7.1	3651.25	Yes		10.955832389581001				ShowResult	Gain
70.0	3	249.416	0.02	1340.067	7.1	1.0	22.1973	2.623	955.0	2.22	Outcome2	-3.86	7.1	3651.25	Yes		10.955832389581001				ISITrial	Gain
70.0	3	255.735	0.027	1346.386	7.1	1.0	22.1973	3.751	955.0	2.22	Outcome2	-3.86	7.1	3651.25	Yes		10.955832389581001			680.0	TrialHappiness	Gain
70.0	3	259.747	4.012	1350.398	7.1	1.0	22.1973	6.605	955.0	2.22	Outcome2	-3.86	7.1	3651.25	Yes		10.955832389581001				ISIRate	Gain
71.0	3	266.383	0.031	1357.034	-2.0	-2.0	21.9473	3.0	955.0	0.3	Certain	-2.89	-1.3	0.0	No	4.0	-1.5916383540958898	1.698	268.081		GetAnswer	Mixed
71.0	3	268.105	0.023	1358.756	-2.0	-2.0	21.9473	4.0	955.0	0.3	Certain	-2.89	-1.3	0.0	No		-1.5916383540958898				ShowChoice	Mixed
71.0	3	272.117	0.012	1362.768	-2.0	-2.0	21.9473	1.0	955.0	0.3	Certain	-2.89	-1.3	0.0	No		-1.5916383540958898				ShowResult	Mixed
71.0	3	273.137	0.02	1363.788	-2.0	-2.0	21.9473	5.499	955.0	0.3	Certain	-2.89	-1.3	0.0	No		-1.5916383540958898				ISITrial	Mixed
72.0	3	278.653	0.017	1369.304	-0.32	0.0	21.9073	3.0	955.0	0.66	Outcome1	-0.32	1.3	3080.5	Yes	2.0	-1.6175915439788602	1.696	280.349		GetAnswer	Mixed
72.0	3	280.375	0.026	1371.026	-0.32	0.0	21.9073	4.0	955.0	0.66	Outcome1	-0.32	1.3	3080.5	Yes		-1.6175915439788602				ShowChoice	Mixed
72.0	3	284.387	0.012	1375.038	-0.32	0.0	21.9073	1.0	955.0	0.66	Outcome1	-0.32	1.3	3080.5	Yes		-1.6175915439788602				ShowResult	Mixed
72.0	3	285.407	0.02	1376.058	-0.32	0.0	21.9073	5.672	955.0	0.66	Outcome1	-0.32	1.3	3080.5	Yes		-1.6175915439788602				ISITrial	Mixed
72.0	3	294.216	0.029	1384.867	-0.32	0.0	21.9073	2.514	955.0	0.66	Outcome1	-0.32	1.3	3080.5	Yes	2{-2}2{-2}2{-2}2{-2}2{-2}	-1.6175915439788602	2.514	296.73	648.0	TrialHappiness	Mixed
72.0	3	298.228	4.012	1388.879	-0.32	0.0	21.9073	4.322	955.0	0.66	Outcome1	-0.32	1.3	3080.5	Yes		-1.6175915439788602				ISIRate	Mixed
73.0	3	302.574	0.024	1393.225	3.3	-2.0	22.3198	3.0	955.0	0.66	Outcome1	3.3	-8.25	0.0	No	2.0	11.5458663646659	1.408	303.982		GetAnswer	Mixed
73.0	3	303.995	0.013	1394.646	3.3	-2.0	22.3198	4.0	955.0	0.66	Outcome1	3.3	-8.25	0.0	No		11.5458663646659				ShowChoice	Mixed
73.0	3	308.007	0.012	1398.658	3.3	-2.0	22.3198	1.0	955.0	0.66	Outcome1	3.3	-8.25	0.0	No		11.5458663646659				ShowResult	Mixed
73.0	3	309.027	0.02	1399.678	3.3	-2.0	22.3198	4.616	955.0	0.66	Outcome1	3.3	-8.25	0.0	No		11.5458663646659				ISITrial	Mixed
74.0	3	313.674	0.031	1404.325	0.1	-6.0	22.3323	3.0	955.0	1.5	Outcome1	0.1	-11.79	3056.25	Yes	2.0	11.893544733861802	1.929	315.603		GetAnswer	Mixed
74.0	3	315.63	0.027	1406.281	0.1	-6.0	22.3323	4.0	955.0	1.5	Outcome1	0.1	-11.79	3056.25	Yes		11.893544733861802				ShowChoice	Mixed
74.0	3	319.642	0.012	1410.293	0.1	-6.0	22.3323	1.0	955.0	1.5	Outcome1	0.1	-11.79	3056.25	Yes		11.893544733861802				ShowResult	Mixed
74.0	3	320.662	0.02	1411.313	0.1	-6.0	22.3323	3.909	955.0	1.5	Outcome1	0.1	-11.79	3056.25	Yes		11.893544733861802				ISITrial	Mixed
74.0	3	327.666	0.02	1418.317	0.1	-6.0	22.3323	1.963	955.0	1.5	Outcome1	0.1	-11.79	3056.25	Yes		11.893544733861802			680.0	TrialHappiness	Mixed
74.0	3	331.678	4.012	1422.329	0.1	-6.0	22.3323	4.225	955.0	1.5	Outcome1	0.1	-11.79	3056.25	Yes		11.893544733861802				ISIRate	Mixed
75.0	3	335.924	0.021	1426.575	13.3	0.8	23.9948	3.0	955.0	2.48	Outcome1	13.3	1.6	0.0	No	2.0	11.6976217440544	1.241	337.165		GetAnswer	Loss
75.0	3	337.178	0.013	1427.829	13.3	0.8	23.9948	4.0	955.0	2.48	Outcome1	13.3	1.6	0.0	No		11.6976217440544				ShowChoice	Loss
75.0	3	341.19	0.012	1431.841	13.3	0.8	23.9948	1.0	955.0	2.48	Outcome1	13.3	1.6	0.0	No		11.6976217440544				ShowResult	Loss
75.0	3	342.209	0.019	1432.86	13.3	0.8	23.9948	4.979	955.0	2.48	Outcome1	13.3	1.6	0.0	No		11.6976217440544				ISITrial	Loss
76.0	3	347.208	0.02	1437.859	5.17	2.58	24.641	3.0	955.0	2.0	Outcome2	6.9	5.17	0.0	No	2.0	-1.7274443186108	1.002	348.21		GetAnswer	Gain
76.0	3	348.227	0.017	1438.878	5.17	2.58	24.641	4.0	955.0	2.0	Outcome2	6.9	5.17	0.0	No		-1.7274443186108				ShowChoice	Gain
76.0	3	352.239	0.012	1442.89	5.17	2.58	24.641	1.0	955.0	2.0	Outcome2	6.9	5.17	0.0	No		-1.7274443186108				ShowResult	Gain
76.0	3	353.259	0.02	1443.91	5.17	2.58	24.641	3.931	955.0	2.0	Outcome2	6.9	5.17	0.0	No		-1.7274443186108				ISITrial	Gain
77.0	3	357.221	0.031	1447.872	5.1	-1.0	25.2785	3.0	955.0	2.22	Outcome1	5.1	-7.22	4000.0	Yes	2.0	12.320498301245802	1.326	358.547		GetAnswer	Gain
77.0	3	358.558	0.011	1449.209	5.1	-1.0	25.2785	4.0	955.0	2.22	Outcome1	5.1	-7.22	4000.0	Yes		12.320498301245802				ShowChoice	Gain
77.0	3	362.57	0.012	1453.221	5.1	-1.0	25.2785	1.0	955.0	2.22	Outcome1	5.1	-7.22	4000.0	Yes		12.320498301245802				ShowResult	Gain
77.0	3	363.59	0.02	1454.241	5.1	-1.0	25.2785	7.022	955.0	2.22	Outcome1	5.1	-7.22	4000.0	Yes		12.320498301245802				ISITrial	Gain
77.0	3	374.656	0.028	1465.307	5.1	-1.0	25.2785	2.699	955.0	2.22	Outcome1	5.1	-7.22	4000.0	Yes		12.320498301245802			704.0	TrialHappiness	Gain
77.0	3	378.668	4.012	1469.319	5.1	-1.0	25.2785	8.0	955.0	2.22	Outcome1	5.1	-7.22	4000.0	Yes		12.320498301245802				ISIRate	Gain
78.0	3	386.692	0.024	1477.343	13.1	0.44	26.916	3.0	955.0	2.22	Outcome1	13.1	0.88	0.0	No	2.0	12.224235560588902	1.22	387.912		GetAnswer	Loss
78.0	3	387.929	0.017	1478.58	13.1	0.44	26.916	4.0	955.0	2.22	Outcome1	13.1	0.88	0.0	No		12.224235560588902				ShowChoice	Loss
78.0	3	391.941	0.012	1482.592	13.1	0.44	26.916	1.0	955.0	2.22	Outcome1	13.1	0.88	0.0	No		12.224235560588902				ShowResult	Loss
78.0	3	392.961	0.02	1483.612	13.1	0.44	26.916	2.078	955.0	2.22	Outcome1	13.1	0.88	0.0	No		12.224235560588902				ISITrial	Loss
79.0	3	395.067	0.028	1485.718	12.7	0.1	28.5035	3.0	955.0	1.82	Outcome2	0.19	12.7	2729.5	Yes	2.0	12.5084937712344	1.009	396.076		GetAnswer	Loss
79.0	3	396.104	0.028	1486.755	12.7	0.1	28.5035	4.0	955.0	1.82	Outcome2	0.19	12.7	2729.5	Yes		12.5084937712344				ShowChoice	Loss
79.0	3	400.116	0.012	1490.767	12.7	0.1	28.5035	1.0	955.0	1.82	Outcome2	0.19	12.7	2729.5	Yes		12.5084937712344				ShowResult	Loss
79.0	3	401.135	0.019	1491.786	12.7	0.1	28.5035	3.829	955.0	1.82	Outcome2	0.19	12.7	2729.5	Yes		12.5084937712344				ISITrial	Loss
79.0	3	407.739	0.029	1498.39	12.7	0.1	28.5035	3.651	955.0	1.82	Outcome2	0.19	12.7	2729.5	Yes		12.5084937712344			696.0	TrialHappiness	Loss
79.0	3	411.751	4.012	1502.402	12.7	0.1	28.5035	2.918	955.0	1.82	Outcome2	0.19	12.7	2729.5	Yes		12.5084937712344				ISIRate	Loss
80.0	3	414.693	0.024	1505.344	7.1	0.0	29.391	3.0	955.0	2.22	Outcome1	7.1	-5.83	0.0	No	2.0	12.9286523216308	1.239	415.932		GetAnswer	Gain
80.0	3	415.946	0.014	1506.597	7.1	0.0	29.391	4.0	955.0	2.22	Outcome1	7.1	-5.83	0.0	No		12.9286523216308				ShowChoice	Gain
80.0	3	419.958	0.012	1510.609	7.1	0.0	29.391	1.0	955.0	2.22	Outcome1	7.1	-5.83	0.0	No		12.9286523216308				ShowResult	Gain
80.0	3	420.978	0.02	1511.629	7.1	0.0	29.391	3.336	955.0	2.22	Outcome1	7.1	-5.83	0.0	No		12.9286523216308				ISITrial	Gain
81.0	3	424.338	0.024	1514.989	-5.0	-5.0	28.766	3.0	955.0	0.4	Certain	-12.32	0.9	3923.75	Yes	4.0	13.2219705549264	1.957	426.295		GetAnswer	Mixed
81.0	3	426.311	0.016	1516.962	-5.0	-5.0	28.766	4.0	955.0	0.4	Certain	-12.32	0.9	3923.75	Yes		13.2219705549264				ShowChoice	Mixed
81.0	3	430.323	0.012	1520.974	-5.0	-5.0	28.766	1.0	955.0	0.4	Certain	-12.32	0.9	3923.75	Yes		13.2219705549264				ShowResult	Mixed
81.0	3	431.342	0.019	1521.993	-5.0	-5.0	28.766	3.919	955.0	0.4	Certain	-12.32	0.9	3923.75	Yes		13.2219705549264				ISITrial	Mixed
81.0	3	439.233	0.022	1529.884	-5.0	-5.0	28.766	2.732	955.0	0.4	Certain	-12.32	0.9	3923.75	Yes		13.2219705549264			696.0	TrialHappiness	Mixed
81.0	3	443.245	4.012	1533.896	-5.0	-5.0	28.766	7.695	955.0	0.4	Certain	-12.32	0.9	3923.75	Yes		13.2219705549264				ISIRate	Mixed
	3	450.968	0.028	1541.619				3.0													CurrentEarnings	
	3	453.993	0.025	1544.644				-0.001								{SPACE}		12.967	466.96		Goodbye	
