trial_number	block	onset	onset_delay	onset_unadjusted	amount_change	certain_amount	current_amount	duration	mood_target	multiplier	outcome	outcome1_amount	outcome2_amount	question_duration	rating	response	rpe	rt	rt_time	slider_response	trial_phase	trial_type
	0	-33.731	0.036	23.938				-0.001								{SPACE}		3.817	-29.914		Welcome	
	0	-29.884	0.03	27.785				5.0													LifeHappyPreview	
	0	-24.786	0.098	32.883				3.503												340.0	LifeHappiness	
	0	-11.429	0.021	46.24				4.0													BlockHappyPreview	
	0	-7.417	0.012	50.252				2.798												580.0	BlockStartHappiness	
	0	-0.58	0.023	57.089				-0.001								5.0					ScanWait	
	1	0.022	0.022	57.691				10.0													GetReady	
1.0	1	10.052	0.03	67.721	-0.04	-0.04	9.995	3.0	955.0	5.0	Certain	-0.07	6.3	0.0	No	4.0	6.37032842582106	1.697	11.749		GetAnswer	Gain
1.0	1	11.773	0.024	69.442	-0.04	-0.04	9.995	4.0	955.0	5.0	Certain	-0.07	6.3	0.0	No		6.37032842582106				ShowChoice	Gain
1.0	1	15.785	0.012	73.454	-0.04	-0.04	9.995	1.0	955.0	5.0	Certain	-0.07	6.3	0.0	No		6.37032842582106				ShowResult	Gain
1.0	1	16.805	0.02	74.474	-0.04	-0.04	9.995	2.431	955.0	5.0	Certain	-0.07	6.3	0.0	No		6.37032842582106				ISITrial	Gain
2.0	1	19.263	0.027	76.932	2.9	0.0	10.3575	3.0	955.0	0.4	Outcome2	-3.9	2.9	0.0	No	2.0	6.7950169875424695	1.789	21.052		GetAnswer	Mixed
2.0	1	21.068	0.016	78.737	2.9	0.0	10.3575	4.0	955.0	0.4	Outcome2	-3.9	2.9	0.0	No		6.7950169875424695				ShowChoice	Mixed
2.0	1	25.097	0.029	82.766	2.9	0.0	10.3575	1.0	955.0	0.4	Outcome2	-3.9	2.9	0.0	No		6.7950169875424695				ShowResult	Mixed
2.0	1	26.116	0.019	83.785	2.9	0.0	10.3575	4.568	955.0	0.4	Outcome2	-3.9	2.9	0.0	No		6.7950169875424695				ISITrial	Mixed
3.0	1	30.713	0.029	88.382	12.1	2.44	11.87	3.0	955.0	4.2	Outcome1	12.1	4.88	2868.0	Yes	2.0	7.219705549263869	1.177	31.89		GetAnswer	Loss
3.0	1	31.917	0.027	89.586	12.1	2.44	11.87	4.0	955.0	4.2	Outcome1	12.1	4.88	2868.0	Yes		7.219705549263869				ShowChoice	Loss
3.0	1	35.946	0.029	93.615	12.1	2.44	11.87	1.0	955.0	4.2	Outcome1	12.1	4.88	2868.0	Yes		7.219705549263869				ShowResult	Loss
3.0	1	36.965	0.019	94.634	12.1	2.44	11.87	3.243	955.0	4.2	Outcome1	12.1	4.88	2868.0	Yes		7.219705549263869				ISITrial	Loss
3.0	1	43.117	0.024	100.786	12.1	2.44	11.87	1.059	955.0	4.2	Outcome1	12.1	4.88	2868.0	Yes		7.219705549263869			648.0	TrialHappiness	Loss
3.0	1	47.146	4.029	104.815	12.1	2.44	11.87	3.472	955.0	4.2	Outcome1	12.1	4.88	2868.0	Yes		7.219705549263869				ISIRate	Loss
4.0	1	50.64	0.022	108.309	5.7	2.0	12.5825	3.0	955.0	3.16	Outcome1	5.7	-0.79	0.0	No	2.0	6.489241223103059	1.277	51.917		GetAnswer	Gain
4.0	1	51.944	0.027	109.613	5.7	2.0	12.5825	4.0	955.0	3.16	Outcome1	5.7	-0.79	0.0	No		6.489241223103059				ShowChoice	Gain
4.0	1	55.972	0.028	113.641	5.7	2.0	12.5825	1.0	955.0	3.16	Outcome1	5.7	-0.79	0.0	No		6.489241223103059				ShowResult	Gain
4.0	1	56.992	0.02	114.661	5.7	2.0	12.5825	2.011	955.0	3.16	Outcome1	5.7	-0.79	0.0	No		6.489241223103059				ISITrial	Gain
5.0	1	59.031	0.028	116.7	10.52	5.26	13.8975	3.0	955.0	3.6	Outcome2	11.9	10.52	2582.5	Yes	2.0	-1.38099282748207	1.495	60.526		GetAnswer	Loss
5.0	1	60.553	0.027	118.222	10.52	5.26	13.8975	4.0	955.0	3.6	Outcome2	11.9	10.52	2582.5	Yes		-1.38099282748207				ShowChoice	Loss
5.0	1	64.581	0.028	122.25	10.52	5.26	13.8975	1.0	955.0	3.6	Outcome2	11.9	10.52	2582.5	Yes		-1.38099282748207				ShowResult	Loss
5.0	1	65.601	0.02	123.27	10.52	5.26	13.8975	5.129	955.0	3.6	Outcome2	11.9	10.52	2582.5	Yes		-1.38099282748207				ISITrial	Loss
5.0	1	73.358	0.026	131.027	10.52	5.26	13.8975	2.564	955.0	3.6	Outcome2	11.9	10.52	2582.5	Yes		-1.38099282748207			648.0	TrialHappiness	Loss
5.0	1	77.386	4.028	135.055	10.52	5.26	13.8975	2.33	955.0	3.6	Outcome2	11.9	10.52	2582.5	Yes		-1.38099282748207				ISIRate	Loss
6.0	1	79.743	0.027	137.412	9.89	4.94	15.1337	3.0	955.0	2.48	Outcome2	11.3	9.89	0.0	No	2.0	-1.40996602491506	1.195	80.938		GetAnswer	Loss
6.0	1	80.964	0.026	138.633	9.89	4.94	15.1337	4.0	955.0	2.48	Outcome2	11.3	9.89	0.0	No		-1.40996602491506				ShowChoice	Loss
6.0	1	84.992	0.028	142.661	9.89	4.94	15.1337	1.0	955.0	2.48	Outcome2	11.3	9.89	0.0	No		-1.40996602491506				ShowResult	Loss
6.0	1	86.012	0.02	143.681	9.89	4.94	15.1337	6.232	955.0	2.48	Outcome2	11.3	9.89	0.0	No		-1.40996602491506				ISITrial	Loss
7.0	1	92.264	0.02	149.933	2.26	1.13	15.4162	3.0	955.0	1.0	Outcome1	2.26	3.7	0.0	No	2.0	-1.43893922234806	1.574	93.838		GetAnswer	Mixed
7.0	1	93.869	0.031	151.538	2.26	1.13	15.4162	4.0	955.0	1.0	Outcome1	2.26	3.7	0.0	No		-1.43893922234806				ShowChoice	Mixed
7.0	1	97.898	0.029	155.567	2.26	1.13	15.4162	1.0	955.0	1.0	Outcome1	2.26	3.7	0.0	No		-1.43893922234806				ShowResult	Mixed
7.0	1	98.917	0.019	156.586	2.26	1.13	15.4162	2.305	955.0	1.0	Outcome1	2.26	3.7	0.0	No		-1.43893922234806				ISITrial	Mixed
8.0	1	101.241	0.019	158.91	-3.0	-3.0	15.0412	3.0	955.0	0.3	Certain	0.7	-7.18	3112.5	Yes	4.0	7.87995469988675	1.57	102.811		GetAnswer	Mixed
8.0	1	102.829	0.018	160.498	-3.0	-3.0	15.0412	4.0	955.0	0.3	Certain	0.7	-7.18	3112.5	Yes		7.87995469988675				ShowChoice	Mixed
8.0	1	106.858	0.029	164.527	-3.0	-3.0	15.0412	1.0	955.0	0.3	Certain	0.7	-7.18	3112.5	Yes		7.87995469988675				ShowResult	Mixed
8.0	1	107.877	0.019	165.546	-3.0	-3.0	15.0412	3.506	955.0	0.3	Certain	0.7	-7.18	3112.5	Yes		7.87995469988675				ISITrial	Mixed
8.0	1	114.547	0.03	172.216	-3.0	-3.0	15.0412	3.187	955.0	0.3	Certain	0.7	-7.18	3112.5	Yes	2{-2}2{-2}2{-2}2{-2}2{-2}	7.87995469988675	3.187	117.734	600.0	TrialHappiness	Mixed
8.0	1	118.559	4.012	176.228	-3.0	-3.0	15.0412	4.45	955.0	0.3	Certain	0.7	-7.18	3112.5	Yes		7.87995469988675				ISIRate	Mixed
9.0	1	123.039	0.03	180.708	8.3	-0.37	16.0787	3.0	955.0	5.0	Outcome1	8.3	-0.74	0.0	No	2.0	9.04303510758777	1.309	124.348		GetAnswer	Gain
9.0	1	124.377	0.029	182.046	8.3	-0.37	16.0787	4.0	955.0	5.0	Outcome1	8.3	-0.74	0.0	No		9.04303510758777				ShowChoice	Gain
9.0	1	128.406	0.029	186.075	8.3	-0.37	16.0787	1.0	955.0	5.0	Outcome1	8.3	-0.74	0.0	No		9.04303510758777				ShowResult	Gain
9.0	1	129.425	0.019	187.094	8.3	-0.37	16.0787	2.0	955.0	5.0	Outcome1	8.3	-0.74	0.0	No		9.04303510758777				ISITrial	Gain
10.0	1	131.448	0.023	189.117	10.1	0.32	17.3412	3.0	955.0	4.2	Outcome2	0.65	10.1	4000.0	Yes	2.0	9.445073612684029	1.362	132.81		GetAnswer	Gain
10.0	1	132.835	0.025	190.504	10.1	0.32	17.3412	4.0	955.0	4.2	Outcome2	0.65	10.1	4000.0	Yes		9.445073612684029				ShowChoice	Gain
10.0	1	136.864	0.029	194.533	10.1	0.32	17.3412	1.0	955.0	4.2	Outcome2	0.65	10.1	4000.0	Yes		9.445073612684029				ShowResult	Gain
10.0	1	137.884	0.02	195.553	10.1	0.32	17.3412	2.0	955.0	4.2	Outcome2	0.65	10.1	4000.0	Yes		9.445073612684029				ISITrial	Gain
10.0	1	143.935	0.028	201.604	10.1	0.32	17.3412	1.278	955.0	4.2	Outcome2	0.65	10.1	4000.0	Yes	2{-2}2{-2}	9.445073612684029	1.278	145.213	608.0	TrialHappiness	Gain
10.0	1	147.964	4.029	205.633	10.1	0.32	17.3412	8.0	955.0	4.2	Outcome2	0.65	10.1	4000.0	Yes		9.445073612684029				ISIRate	Gain
11.0	1	155.988	0.024	213.657	2.77	1.38	17.6874	3.0	955.0	1.68	Outcome2	4.5	2.77	0.0	No	2.0	-1.7262174405436	1.181	157.169		GetAnswer	Gain
11.0	1	157.192	0.023	214.861	2.77	1.38	17.6874	4.0	955.0	1.68	Outcome2	4.5	2.77	0.0	No		-1.7262174405436				ShowChoice	Gain
11.0	1	161.22	0.028	218.889	2.77	1.38	17.6874	1.0	955.0	1.68	Outcome2	4.5	2.77	0.0	No		-1.7262174405436				ShowResult	Gain
11.0	1	162.24	0.02	219.909	2.77	1.38	17.6874	3.324	955.0	1.68	Outcome2	4.5	2.77	0.0	No		-1.7262174405436				ISITrial	Gain
12.0	1	165.583	0.019	223.252	-3.0	-3.0	17.3124	3.0	955.0	2.0	Certain	-7.8	2.3	2618.75	Yes	4.0	10.104190260475699	1.306	166.889		GetAnswer	Mixed
12.0	1	166.904	0.015	224.573	-3.0	-3.0	17.3124	4.0	955.0	2.0	Certain	-7.8	2.3	2618.75	Yes		10.104190260475699				ShowChoice	Mixed
12.0	1	170.933	0.029	228.602	-3.0	-3.0	17.3124	1.0	955.0	2.0	Certain	-7.8	2.3	2618.75	Yes		10.104190260475699				ShowResult	Mixed
12.0	1	171.952	0.019	229.621	-3.0	-3.0	17.3124	6.642	955.0	2.0	Certain	-7.8	2.3	2618.75	Yes		10.104190260475699				ISITrial	Mixed
12.0	1	181.264	0.023	238.933	-3.0	-3.0	17.3124	1.427	955.0	2.0	Certain	-7.8	2.3	2618.75	Yes		10.104190260475699			584.0	TrialHappiness	Mixed
12.0	1	185.276	4.012	242.945	-3.0	-3.0	17.3124	2.475	955.0	2.0	Certain	-7.8	2.3	2618.75	Yes		10.104190260475699				ISIRate	Mixed
13.0	1	187.783	0.032	245.452	0.0	0.0	17.3124	3.0	955.0	2.48	Certain	5.3	-5.6	0.0	No	4.0	10.904869762174402	2.343	190.126		GetAnswer	Gain
13.0	1	190.14	0.014	247.809	0.0	0.0	17.3124	4.0	955.0	2.48	Certain	5.3	-5.6	0.0	No		10.904869762174402				ShowChoice	Gain
13.0	1	194.169	0.029	251.838	0.0	0.0	17.3124	1.0	955.0	2.48	Certain	5.3	-5.6	0.0	No		10.904869762174402				ShowResult	Gain
13.0	1	195.189	0.02	252.858	0.0	0.0	17.3124	3.48	955.0	2.48	Certain	5.3	-5.6	0.0	No		10.904869762174402				ISITrial	Gain
14.0	1	198.699	0.03	256.368	-1.82	-1.0	17.0849	3.0	955.0	1.5	Outcome1	-1.82	0.1	0.0	No	2.0	-1.92412231030578	1.812	200.511		GetAnswer	Mixed
14.0	1	200.538	0.027	258.207	-1.82	-1.0	17.0849	4.0	955.0	1.5	Outcome1	-1.82	0.1	0.0	No		-1.92412231030578				ShowChoice	Mixed
14.0	1	204.567	0.029	262.236	-1.82	-1.0	17.0849	1.0	955.0	1.5	Outcome1	-1.82	0.1	0.0	No		-1.92412231030578				ShowResult	Mixed
14.0	1	205.586	0.019	263.255	-1.82	-1.0	17.0849	5.019	955.0	1.5	Outcome1	-1.82	0.1	0.0	No		-1.92412231030578				ISITrial	Mixed
15.0	1	210.635	0.03	268.304	11.5	-0.12	18.5224	3.0	955.0	2.8	Outcome1	11.5	-0.25	3348.5	Yes	2.0	11.7451868629672	1.671	212.306		GetAnswer	Loss
15.0	1	212.323	0.017	269.992	11.5	-0.12	18.5224	4.0	955.0	2.8	Outcome1	11.5	-0.25	3348.5	Yes		11.7451868629672				ShowChoice	Loss
15.0	1	216.352	0.029	274.021	11.5	-0.12	18.5224	1.0	955.0	2.8	Outcome1	11.5	-0.25	3348.5	Yes		11.7451868629672				ShowResult	Loss
15.0	1	217.371	0.019	275.04	11.5	-0.12	18.5224	7.614	955.0	2.8	Outcome1	11.5	-0.25	3348.5	Yes		11.7451868629672				ISITrial	Loss
15.0	1	228.388	0.029	286.057	11.5	-0.12	18.5224	2.932	955.0	2.8	Outcome1	11.5	-0.25	3348.5	Yes		11.7451868629672			552.0	TrialHappiness	Loss
15.0	1	232.416	4.028	290.085	11.5	-0.12	18.5224	5.394	955.0	2.8	Outcome1	11.5	-0.25	3348.5	Yes		11.7451868629672				ISIRate	Loss
16.0	1	237.833	0.023	295.502	5.38	2.69	19.1949	3.0	955.0	2.8	Outcome1	5.38	7.5	0.0	No	2.0	-2.1240090600226496	1.186	239.019		GetAnswer	Gain
16.0	1	239.036	0.017	296.705	5.38	2.69	19.1949	4.0	955.0	2.8	Outcome1	5.38	7.5	0.0	No		-2.1240090600226496				ShowChoice	Gain
16.0	1	243.048	0.012	300.717	5.38	2.69	19.1949	1.0	955.0	2.8	Outcome1	5.38	7.5	0.0	No		-2.1240090600226496				ShowResult	Gain
16.0	1	244.068	0.02	301.737	5.38	2.69	19.1949	3.008	955.0	2.8	Outcome1	5.38	7.5	0.0	No		-2.1240090600226496				ISITrial	Gain
17.0	1	247.094	0.018	304.763	10.7	-1.24	20.5324	3.0	955.0	1.82	Outcome2	-2.47	10.7	3041.5	Yes	2.0	13.1653454133635	1.46	248.554		GetAnswer	Loss
17.0	1	248.581	0.027	306.25	10.7	-1.24	20.5324	4.0	955.0	1.82	Outcome2	-2.47	10.7	3041.5	Yes		13.1653454133635				ShowChoice	Loss
17.0	1	252.61	0.029	310.279	10.7	-1.24	20.5324	1.0	955.0	1.82	Outcome2	-2.47	10.7	3041.5	Yes		13.1653454133635				ShowResult	Loss
17.0	1	253.63	0.02	311.299	10.7	-1.24	20.5324	3.566	955.0	1.82	Outcome2	-2.47	10.7	3041.5	Yes		13.1653454133635				ISITrial	Loss
17.0	1	260.283	0.017	317.952	10.7	-1.24	20.5324	1.044	955.0	1.82	Outcome2	-2.47	10.7	3041.5	Yes		13.1653454133635			568.0	TrialHappiness	Loss
17.0	1	264.312	4.029	321.981	10.7	-1.24	20.5324	4.166	955.0	1.82	Outcome2	-2.47	10.7	3041.5	Yes		13.1653454133635				ISIRate	Loss
18.0	1	268.508	0.03	326.177	1.76	0.88	20.7524	3.0	955.0	1.2	Outcome1	1.76	3.9	0.0	No	2.0	-2.13514533786334	1.692	270.2		GetAnswer	Mixed
18.0	1	270.23	0.03	327.899	1.76	0.88	20.7524	4.0	955.0	1.2	Outcome1	1.76	3.9	0.0	No		-2.13514533786334				ShowChoice	Mixed
18.0	1	274.258	0.028	331.927	1.76	0.88	20.7524	1.0	955.0	1.2	Outcome1	1.76	3.9	0.0	No		-2.13514533786334				ShowResult	Mixed
18.0	1	275.278	0.02	332.947	1.76	0.88	20.7524	6.787	955.0	1.2	Outcome1	1.76	3.9	0.0	No		-2.13514533786334				ISITrial	Mixed
19.0	1	282.098	0.033	339.767	-5.0	-5.0	20.1274	3.0	955.0	1.2	Certain	-11.89	1.9	0.0	No	4.0	13.7882219705549	1.917	284.015		GetAnswer	Mixed
19.0	1	284.037	0.022	341.706	-5.0	-5.0	20.1274	4.0	955.0	1.2	Certain	-11.89	1.9	0.0	No		13.7882219705549				ShowChoice	Mixed
19.0	1	288.049	0.012	345.718	-5.0	-5.0	20.1274	1.0	955.0	1.2	Certain	-11.89	1.9	0.0	No		13.7882219705549				ShowResult	Mixed
19.0	1	289.069	0.02	346.738	-5.0	-5.0	20.1274	2.0	955.0	1.2	Certain	-11.89	1.9	0.0	No		13.7882219705549				ISITrial	Mixed
20.0	1	291.092	0.023	348.761	9.49	4.74	21.3136	3.0	955.0	3.16	Outcome2	11.7	9.49	2921.25	Yes	2.0	-2.2081917704794303	1.523	292.615		GetAnswer	Loss
20.0	1	292.63	0.015	350.299	9.49	4.74	21.3136	4.0	955.0	3.16	Outcome2	11.7	9.49	2921.25	Yes		-2.2081917704794303				ShowChoice	Loss
20.0	1	296.659	0.029	354.328	9.49	4.74	21.3136	1.0	955.0	3.16	Outcome2	11.7	9.49	2921.25	Yes		-2.2081917704794303				ShowResult	Loss
20.0	1	297.678	0.019	355.347	9.49	4.74	21.3136	8.0	955.0	3.16	Outcome2	11.7	9.49	2921.25	Yes		-2.2081917704794303				ISITrial	Loss
20.0	1	308.644	0.021	366.313	9.49	4.74	21.3136	3.151	955.0	3.16	Outcome2	11.7	9.49	2921.25	Yes	2{-2}2{-2}2{-2}2{-2}	-2.2081917704794303	3.151	311.795	656.0	TrialHappiness	Loss
20.0	1	312.673	4.029	370.342	9.49	4.74	21.3136	3.685	955.0	3.16	Outcome2	11.7	9.49	2921.25	Yes		-2.2081917704794303				ISIRate	Loss
21.0	1	316.384	0.026	374.053	-5.0	-5.0	20.6886	3.0	955.0	0.82	Certain	-11.67	1.5	0.0	No	4.0	13.169875424688598	1.294	317.678		GetAnswer	Mixed
21.0	1	317.705	0.027	375.374	-5.0	-5.0	20.6886	4.0	955.0	0.82	Certain	-11.67	1.5	0.0	No		13.169875424688598				ShowChoice	Mixed
21.0	1	321.734	0.029	379.403	-5.0	-5.0	20.6886	1.0	955.0	0.82	Certain	-11.67	1.5	0.0	No		13.169875424688598				ShowResult	Mixed
21.0	1	322.753	0.019	380.422	-5.0	-5.0	20.6886	3.555	955.0	0.82	Certain	-11.67	1.5	0.0	No		13.169875424688598				ISITrial	Mixed
22.0	1	326.331	0.023	384.0	9.18	4.59	21.8361	3.0	955.0	2.22	Outcome1	9.18	11.1	3219.5	Yes	2.0	-1.9158172895432202	0.93	327.261		GetAnswer	Loss
22.0	1	327.283	0.022	384.952	9.18	4.59	21.8361	4.0	955.0	2.22	Outcome1	9.18	11.1	3219.5	Yes		-1.9158172895432202				ShowChoice	Loss
22.0	1	331.312	0.029	388.981	9.18	4.59	21.8361	1.0	955.0	2.22	Outcome1	9.18	11.1	3219.5	Yes		-1.9158172895432202				ShowResult	Loss
22.0	1	332.332	0.02	390.001	9.18	4.59	21.8361	6.793	955.0	2.22	Outcome1	9.18	11.1	3219.5	Yes		-1.9158172895432202				ISITrial	Loss
22.0	1	342.395	0.023	400.064	9.18	4.59	21.8361	1.527	955.0	2.22	Outcome1	9.18	11.1	3219.5	Yes		-1.9158172895432202			624.0	TrialHappiness	Loss
22.0	1	346.424	4.029	404.093	9.18	4.59	21.8361	4.878	955.0	2.22	Outcome1	9.18	11.1	3219.5	Yes		-1.9158172895432202				ISIRate	Loss
23.0	1	351.322	0.02	408.991	-2.37	-1.0	21.5399	3.0	955.0	1.0	Outcome1	-2.37	-0.3	0.0	No	2.0	-2.07389580973952	2.565	353.887		GetAnswer	Mixed
23.0	1	353.913	0.026	411.582	-2.37	-1.0	21.5399	4.0	955.0	1.0	Outcome1	-2.37	-0.3	0.0	No		-2.07389580973952				ShowChoice	Mixed
23.0	1	357.925	0.012	415.594	-2.37	-1.0	21.5399	1.0	955.0	1.0	Outcome1	-2.37	-0.3	0.0	No		-2.07389580973952				ShowResult	Mixed
23.0	1	358.945	0.02	416.614	-2.37	-1.0	21.5399	8.0	955.0	1.0	Outcome1	-2.37	-0.3	0.0	No		-2.07389580973952				ISITrial	Mixed
24.0	1	366.969	0.024	424.638	2.19	1.1	21.8137	3.0	955.0	2.0	Outcome1	2.19	4.3	3255.0	Yes	2.0	-2.10513401283503	1.413	368.382		GetAnswer	Mixed
24.0	1	368.406	0.024	426.075	2.19	1.1	21.8137	4.0	955.0	2.0	Outcome1	2.19	4.3	3255.0	Yes		-2.10513401283503				ShowChoice	Mixed
24.0	1	372.435	0.029	430.104	2.19	1.1	21.8137	1.0	955.0	2.0	Outcome1	2.19	4.3	3255.0	Yes		-2.10513401283503				ShowResult	Mixed
24.0	1	373.455	0.02	431.124	2.19	1.1	21.8137	2.0	955.0	2.0	Outcome1	2.19	4.3	3255.0	Yes		-2.10513401283503				ISITrial	Mixed
24.0	1	378.754	0.021	436.423	2.19	1.1	21.8137	2.267	955.0	2.0	Outcome1	2.19	4.3	3255.0	Yes	2{-2}	-2.10513401283503	2.267	381.021	532.0	TrialHappiness	Mixed
24.0	1	382.783	4.029	440.452	2.19	1.1	21.8137	5.02	955.0	2.0	Outcome1	2.19	4.3	3255.0	Yes		-2.10513401283503				ISIRate	Mixed
25.0	1	387.831	0.028	445.5	0.0	0.0	21.8137	3.0	955.0	1.68	Certain	8.5	-8.2	0.0	No	4.0	16.703284258210598	1.426	389.257		GetAnswer	Gain
25.0	1	389.286	0.029	446.955	0.0	0.0	21.8137	4.0	955.0	1.68	Certain	8.5	-8.2	0.0	No		16.703284258210598				ShowChoice	Gain
25.0	1	393.314	0.028	450.983	0.0	0.0	21.8137	1.0	955.0	1.68	Certain	8.5	-8.2	0.0	No		16.703284258210598				ShowResult	Gain
25.0	1	394.334	0.02	452.003	0.0	0.0	21.8137	3.749	955.0	1.68	Certain	8.5	-8.2	0.0	No		16.703284258210598				ISITrial	Gain
26.0	1	398.112	0.029	455.781	-8.0	-8.0	20.8137	3.0	955.0	0.2	Certain	-16.68	0.5	0.0	No	4.0	17.1823329558324	1.801	399.913		GetAnswer	Mixed
26.0	1	399.934	0.021	457.603	-8.0	-8.0	20.8137	4.0	955.0	0.2	Certain	-16.68	0.5	0.0	No		17.1823329558324				ShowChoice	Mixed
26.0	1	403.963	0.029	461.632	-8.0	-8.0	20.8137	1.0	955.0	0.2	Certain	-16.68	0.5	0.0	No		17.1823329558324				ShowResult	Mixed
26.0	1	404.982	0.019	462.651	-8.0	-8.0	20.8137	7.834	955.0	0.2	Certain	-16.68	0.5	0.0	No		17.1823329558324				ISITrial	Mixed
27.0	1	412.839	0.023	470.508	-9.0	-9.0	19.6887	3.0	955.0	1.2	Certain	-0.1	-17.76	2549.75	Yes	4.0	17.6613816534541	2.178	415.017		GetAnswer	Mixed
27.0	1	415.046	0.029	472.715	-9.0	-9.0	19.6887	4.0	955.0	1.2	Certain	-0.1	-17.76	2549.75	Yes		17.6613816534541				ShowChoice	Mixed
27.0	1	419.075	0.029	476.744	-9.0	-9.0	19.6887	1.0	955.0	1.2	Certain	-0.1	-17.76	2549.75	Yes		17.6613816534541				ShowResult	Mixed
27.0	1	420.094	0.019	477.763	-9.0	-9.0	19.6887	4.225	955.0	1.2	Certain	-0.1	-17.76	2549.75	Yes		17.6613816534541				ISITrial	Mixed
27.0	1	426.915	0.025	484.584	-9.0	-9.0	19.6887	2.791	955.0	1.2	Certain	-0.1	-17.76	2549.75	Yes		17.6613816534541			532.0	TrialHappiness	Mixed
27.0	1	430.943	4.028	488.612	-9.0	-9.0	19.6887	2.199	955.0	1.2	Certain	-0.1	-17.76	2549.75	Yes		17.6613816534541				ISIRate	Mixed
	1	433.167	0.025	490.836				-0.001								{SPACE}		40.651	473.818		Rest	
	1	473.838	0.02	531.507				4.0													BlockHappyPreview	
	1	477.85	0.012	535.519				1.879												560.0	BlockStartHappiness	
	1	483.35	0.028	541.019				-0.001								5.0		3.034	486.384		ScanWait	
	2	0.025	0.025	544.078				10.0													GetReady	
28.0	2	10.055	0.03	554.108	-1.0	-1.0	19.5637	3.0	70.0	0.52	Certain	-5.23	3.1	0.0	No	4.0	-8.33333333333333	1.368	11.423		GetAnswer	Mixed
28.0	2	11.443	0.02	555.496	-1.0	-1.0	19.5637	4.0	70.0	0.52	Certain	-5.23	3.1	0.0	No		-8.33333333333333				ShowChoice	Mixed
28.0	2	15.455	0.012	559.508	-1.0	-1.0	19.5637	1.0	70.0	0.52	Certain	-5.23	3.1	0.0	No		-8.33333333333333				ShowResult	Mixed
28.0	2	16.474	0.019	560.527	-1.0	-1.0	19.5637	3.575	70.0	0.52	Certain	-5.23	3.1	0.0	No		-8.33333333333333				ISITrial	Mixed
29.0	2	20.068	0.019	564.121	-1.0	-1.0	19.4387	3.0	70.0	2.0	Certain	0.08	-1.96	3529.0	Yes	4.0	2.03703703703704	1.61	21.678		GetAnswer	Mixed
29.0	2	21.707	0.029	565.76	-1.0	-1.0	19.4387	4.0	70.0	2.0	Certain	0.08	-1.96	3529.0	Yes		2.03703703703704				ShowChoice	Mixed
29.0	2	25.735	0.028	569.788	-1.0	-1.0	19.4387	1.0	70.0	2.0	Certain	0.08	-1.96	3529.0	Yes		2.03703703703704				ShowResult	Mixed
29.0	2	26.755	0.02	570.808	-1.0	-1.0	19.4387	3.955	70.0	2.0	Certain	0.08	-1.96	3529.0	Yes		2.03703703703704				ISITrial	Mixed
29.0	2	34.294	0.031	578.347	-1.0	-1.0	19.4387	0.0	70.0	2.0	Certain	0.08	-1.96	3529.0	Yes		2.03703703703704			512.0	TrialHappiness	Mixed
29.0	2	38.306	4.012	582.359	-1.0	-1.0	19.4387	6.116	70.0	2.0	Certain	0.08	-1.96	3529.0	Yes		2.03703703703704				ISIRate	Mixed
30.0	2	44.441	0.019	588.494	4.07	2.04	19.9475	3.0	70.0	1.82	Outcome1	4.07	12.7	0.0	No	2.0	-8.6281179138322	1.136	45.577		GetAnswer	Loss
30.0	2	45.595	0.018	589.648	4.07	2.04	19.9475	4.0	70.0	1.82	Outcome1	4.07	12.7	0.0	No		-8.6281179138322				ShowChoice	Loss
30.0	2	49.624	0.029	593.677	4.07	2.04	19.9475	1.0	70.0	1.82	Outcome1	4.07	12.7	0.0	No		-8.6281179138322				ShowResult	Loss
30.0	2	50.643	0.019	594.696	4.07	2.04	19.9475	4.453	70.0	1.82	Outcome1	4.07	12.7	0.0	No		-8.6281179138322				ISITrial	Loss
31.0	2	55.123	0.027	599.176	-1.0	-1.0	19.8225	3.0	70.0	0.82	Certain	-5.63	3.5	2503.25	Yes	4.0	-9.12925170068027	2.176	57.299		GetAnswer	Mixed
31.0	2	57.313	0.014	601.366	-1.0	-1.0	19.8225	4.0	70.0	0.82	Certain	-5.63	3.5	2503.25	Yes		-9.12925170068027				ShowChoice	Mixed
31.0	2	61.325	0.012	605.378	-1.0	-1.0	19.8225	1.0	70.0	0.82	Certain	-5.63	3.5	2503.25	Yes		-9.12925170068027				ShowResult	Mixed
31.0	2	62.345	0.02	606.398	-1.0	-1.0	19.8225	4.786	70.0	0.82	Certain	-5.63	3.5	2503.25	Yes		-9.12925170068027				ISITrial	Mixed
31.0	2	69.684	0.022	613.737	-1.0	-1.0	19.8225	2.235	70.0	0.82	Certain	-5.63	3.5	2503.25	Yes		-9.12925170068027			504.0	TrialHappiness	Mixed
31.0	2	73.712	4.028	617.765	-1.0	-1.0	19.8225	2.013	70.0	0.82	Certain	-5.63	3.5	2503.25	Yes		-9.12925170068027				ISIRate	Mixed
32.0	2	75.752	0.027	619.805	0.0	0.0	19.8225	3.0	70.0	1.5	Certain	4.1	-5.39	0.0	No	4.0	-9.49433106575964	2.315	78.067		GetAnswer	Mixed
32.0	2	78.092	0.025	622.145	0.0	0.0	19.8225	4.0	70.0	1.5	Certain	4.1	-5.39	0.0	No		-9.49433106575964				ShowChoice	Mixed
32.0	2	82.121	0.029	626.174	0.0	0.0	19.8225	1.0	70.0	1.5	Certain	4.1	-5.39	0.0	No		-9.49433106575964				ShowResult	Mixed
32.0	2	83.14	0.019	627.193	0.0	0.0	19.8225	2.0	70.0	1.5	Certain	4.1	-5.39	0.0	No		-9.49433106575964				ISITrial	Mixed
33.0	2	85.163	0.023	629.216	0.0	0.0	19.8225	3.0	70.0	2.22	Certain	-0.71	1.27	0.0	No	4.0	1.98034769463341	1.842	87.005		GetAnswer	Gain
33.0	2	87.035	0.03	631.088	0.0	0.0	19.8225	4.0	70.0	2.22	Certain	-0.71	1.27	0.0	No		1.98034769463341				ShowChoice	Gain
33.0	2	91.047	0.012	635.1	0.0	0.0	19.8225	1.0	70.0	2.22	Certain	-0.71	1.27	0.0	No		1.98034769463341				ShowResult	Gain
33.0	2	92.067	0.02	636.12	0.0	0.0	19.8225	5.099	70.0	2.22	Certain	-0.71	1.27	0.0	No		1.98034769463341				ISITrial	Gain
34.0	2	97.199	0.033	641.252	0.0	0.0	19.8225	3.0	70.0	2.0	Certain	4.9	-5.58	3231.5	Yes	4.0	-10.4784580498866	2.184	99.383		GetAnswer	Gain
34.0	2	99.406	0.023	643.459	0.0	0.0	19.8225	4.0	70.0	2.0	Certain	4.9	-5.58	3231.5	Yes		-10.4784580498866				ShowChoice	Gain
34.0	2	103.418	0.012	647.471	0.0	0.0	19.8225	1.0	70.0	2.0	Certain	4.9	-5.58	3231.5	Yes		-10.4784580498866				ShowResult	Gain
34.0	2	104.437	0.019	648.49	0.0	0.0	19.8225	4.784	70.0	2.0	Certain	4.9	-5.58	3231.5	Yes		-10.4784580498866				ISITrial	Gain
34.0	2	112.495	0.028	656.548	0.0	0.0	19.8225	1.634	70.0	2.0	Certain	4.9	-5.58	3231.5	Yes		-10.4784580498866			584.0	TrialHappiness	Gain
34.0	2	116.524	4.029	660.577	0.0	0.0	19.8225	4.926	70.0	2.0	Certain	4.9	-5.58	3231.5	Yes		-10.4784580498866				ISIRate	Gain
35.0	2	121.472	0.022	665.525	-7.0	-7.0	18.9475	3.0	70.0	0.66	Certain	-13.03	-0.7	0.0	No	4.0	-12.331065759637198	1.881	123.353		GetAnswer	Mixed
35.0	2	123.377	0.024	667.43	-7.0	-7.0	18.9475	4.0	70.0	0.66	Certain	-13.03	-0.7	0.0	No		-12.331065759637198				ShowChoice	Mixed
35.0	2	127.406	0.029	671.459	-7.0	-7.0	18.9475	1.0	70.0	0.66	Certain	-13.03	-0.7	0.0	No		-12.331065759637198				ShowResult	Mixed
35.0	2	128.426	0.02	672.479	-7.0	-7.0	18.9475	2.098	70.0	0.66	Certain	-13.03	-0.7	0.0	No		-12.331065759637198				ISITrial	Mixed
36.0	2	130.549	0.025	674.602	3.22	2.0	19.35	3.0	70.0	2.0	Outcome1	3.22	0.78	3335.75	Yes	2.0	2.4359410430839	2.028	132.577		GetAnswer	Loss
36.0	2	132.605	0.028	676.658	3.22	2.0	19.35	4.0	70.0	2.0	Outcome1	3.22	0.78	3335.75	Yes		2.4359410430839				ShowChoice	Loss
36.0	2	136.617	0.012	680.67	3.22	2.0	19.35	1.0	70.0	2.0	Outcome1	3.22	0.78	3335.75	Yes		2.4359410430839				ShowResult	Loss
36.0	2	137.637	0.02	681.69	3.22	2.0	19.35	5.156	70.0	2.0	Outcome1	3.22	0.78	3335.75	Yes		2.4359410430839				ISITrial	Loss
36.0	2	146.179	0.024	690.232	3.22	2.0	19.35	1.915	70.0	2.0	Outcome1	3.22	0.78	3335.75	Yes		2.4359410430839			540.0	TrialHappiness	Loss
36.0	2	150.208	4.029	694.261	3.22	2.0	19.35	5.343	70.0	2.0	Outcome1	3.22	0.78	3335.75	Yes		2.4359410430839				ISIRate	Loss
37.0	2	155.574	0.023	699.627	-7.0	-7.0	18.475	3.0	70.0	0.52	Certain	-13.65	-0.9	0.0	No	4.0	-12.7482993197279	1.525	157.099		GetAnswer	Mixed
37.0	2	157.128	0.029	701.181	-7.0	-7.0	18.475	4.0	70.0	0.52	Certain	-13.65	-0.9	0.0	No		-12.7482993197279				ShowChoice	Mixed
37.0	2	161.157	0.029	705.21	-7.0	-7.0	18.475	1.0	70.0	0.52	Certain	-13.65	-0.9	0.0	No		-12.7482993197279				ShowResult	Mixed
37.0	2	162.177	0.02	706.23	-7.0	-7.0	18.475	3.598	70.0	0.52	Certain	-13.65	-0.9	0.0	No		-12.7482993197279				ISITrial	Mixed
38.0	2	165.804	0.029	709.857	-1.0	-1.0	18.35	3.0	70.0	0.52	Certain	0.28	-2.07	0.0	No	4.0	2.3501511715797405	1.493	167.297		GetAnswer	Mixed
38.0	2	167.325	0.028	711.378	-1.0	-1.0	18.35	4.0	70.0	0.52	Certain	0.28	-2.07	0.0	No		2.3501511715797405				ShowChoice	Mixed
38.0	2	171.354	0.029	715.407	-1.0	-1.0	18.35	1.0	70.0	0.52	Certain	0.28	-2.07	0.0	No		2.3501511715797405				ShowResult	Mixed
38.0	2	172.374	0.02	716.427	-1.0	-1.0	18.35	4.787	70.0	0.52	Certain	0.28	-2.07	0.0	No		2.3501511715797405				ISITrial	Mixed
39.0	2	177.188	0.027	721.241	3.42	2.0	18.7775	3.0	70.0	3.16	Outcome2	1.03	3.42	2864.25	Yes	2.0	2.39455782312925	1.244	178.432		GetAnswer	Loss
39.0	2	178.459	0.027	722.512	3.42	2.0	18.7775	4.0	70.0	3.16	Outcome2	1.03	3.42	2864.25	Yes		2.39455782312925				ShowChoice	Loss
39.0	2	182.487	0.028	726.54	3.42	2.0	18.7775	1.0	70.0	3.16	Outcome2	1.03	3.42	2864.25	Yes		2.39455782312925				ShowResult	Loss
39.0	2	183.507	0.02	727.56	3.42	2.0	18.7775	2.348	70.0	3.16	Outcome2	1.03	3.42	2864.25	Yes		2.39455782312925				ISITrial	Loss
39.0	2	188.773	0.028	732.826	3.42	2.0	18.7775	0.659	70.0	3.16	Outcome2	1.03	3.42	2864.25	Yes		2.39455782312925			536.0	TrialHappiness	Loss
39.0	2	192.802	4.029	736.855	3.42	2.0	18.7775	3.457	70.0	3.16	Outcome2	1.03	3.42	2864.25	Yes		2.39455782312925				ISIRate	Loss
40.0	2	196.279	0.02	740.332	2.72	1.0	19.1175	3.0	70.0	2.0	Outcome1	2.72	0.3	0.0	No	2.0	2.42271352985639	1.383	197.662		GetAnswer	Loss
40.0	2	197.683	0.021	741.736	2.72	1.0	19.1175	4.0	70.0	2.0	Outcome1	2.72	0.3	0.0	No		2.42271352985639				ShowChoice	Loss
40.0	2	201.712	0.029	745.765	2.72	1.0	19.1175	1.0	70.0	2.0	Outcome1	2.72	0.3	0.0	No		2.42271352985639				ShowResult	Loss
40.0	2	202.731	0.019	746.784	2.72	1.0	19.1175	3.158	70.0	2.0	Outcome1	2.72	0.3	0.0	No		2.42271352985639				ISITrial	Loss
41.0	2	205.907	0.018	749.96	-2.31	-1.16	18.8287	3.0	70.0	1.68	Outcome2	12.5	-2.31	4000.0	Yes	2.0	-14.8072562358277	1.662	207.569		GetAnswer	Loss
41.0	2	207.596	0.027	751.649	-2.31	-1.16	18.8287	4.0	70.0	1.68	Outcome2	12.5	-2.31	4000.0	Yes		-14.8072562358277				ShowChoice	Loss
41.0	2	211.625	0.029	755.678	-2.31	-1.16	18.8287	1.0	70.0	1.68	Outcome2	12.5	-2.31	4000.0	Yes		-14.8072562358277				ShowResult	Loss
41.0	2	212.644	0.019	756.697	-2.31	-1.16	18.8287	4.506	70.0	1.68	Outcome2	12.5	-2.31	4000.0	Yes		-14.8072562358277				ISITrial	Loss
41.0	2	221.203	0.029	765.256	-2.31	-1.16	18.8287	0.851	70.0	1.68	Outcome2	12.5	-2.31	4000.0	Yes		-14.8072562358277			572.0	TrialHappiness	Loss
41.0	2	225.232	4.029	769.285	-2.31	-1.16	18.8287	8.0	70.0	1.68	Outcome2	12.5	-2.31	4000.0	Yes		-14.8072562358277				ISIRate	Loss
42.0	2	233.256	0.024	777.309	0.0	0.0	18.8287	3.0	70.0	3.6	Certain	1.48	-1.18	0.0	No	4.0	2.6570294784580497	1.729	234.985		GetAnswer	Gain
42.0	2	235.011	0.026	779.064	0.0	0.0	18.8287	4.0	70.0	3.6	Certain	1.48	-1.18	0.0	No		2.6570294784580497				ShowChoice	Gain
42.0	2	239.023	0.012	783.076	0.0	0.0	18.8287	1.0	70.0	3.6	Certain	1.48	-1.18	0.0	No		2.6570294784580497				ShowResult	Gain
42.0	2	240.043	0.02	784.096	0.0	0.0	18.8287	6.248	70.0	3.6	Certain	1.48	-1.18	0.0	No		2.6570294784580497				ISITrial	Gain
43.0	2	246.312	0.021	790.365	2.38	1.0	19.1262	3.0	70.0	2.8	Outcome2	-0.32	2.38	2775.75	Yes	2.0	2.70445956160242	1.734	248.046		GetAnswer	Gain
43.0	2	248.067	0.021	792.12	2.38	1.0	19.1262	4.0	70.0	2.8	Outcome2	-0.32	2.38	2775.75	Yes		2.70445956160242				ShowChoice	Gain
43.0	2	252.079	0.012	796.132	2.38	1.0	19.1262	1.0	70.0	2.8	Outcome2	-0.32	2.38	2775.75	Yes		2.70445956160242				ShowResult	Gain
43.0	2	253.099	0.02	797.152	2.38	1.0	19.1262	4.596	70.0	2.8	Outcome2	-0.32	2.38	2775.75	Yes		2.70445956160242				ISITrial	Gain
43.0	2	260.521	0.033	804.574	2.38	1.0	19.1262	1.428	70.0	2.8	Outcome2	-0.32	2.38	2775.75	Yes		2.70445956160242			624.0	TrialHappiness	Gain
43.0	2	264.549	4.028	808.602	2.38	1.0	19.1262	3.103	70.0	2.8	Outcome2	-0.32	2.38	2775.75	Yes		2.70445956160242				ISIRate	Gain
44.0	2	267.675	0.023	811.728	-10.0	-10.0	17.8762	3.0	70.0	0.4	Certain	-19.07	-1.1	0.0	No	4.0	-17.970521541950102	2.415	270.09		GetAnswer	Mixed
44.0	2	270.116	0.026	814.169	-10.0	-10.0	17.8762	4.0	70.0	0.4	Certain	-19.07	-1.1	0.0	No		-17.970521541950102				ShowChoice	Mixed
44.0	2	274.145	0.029	818.198	-10.0	-10.0	17.8762	1.0	70.0	0.4	Certain	-19.07	-1.1	0.0	No		-17.970521541950102				ShowResult	Mixed
44.0	2	275.165	0.02	819.218	-10.0	-10.0	17.8762	2.42	70.0	0.4	Certain	-19.07	-1.1	0.0	No		-17.970521541950102				ISITrial	Mixed
45.0	2	277.605	0.02	821.658	-3.0	-3.0	17.5012	3.0	70.0	1.68	Certain	6.5	-12.1	0.0	No	4.0	-18.5986394557823	1.565	279.17		GetAnswer	Gain
45.0	2	279.193	0.023	823.246	-3.0	-3.0	17.5012	4.0	70.0	1.68	Certain	6.5	-12.1	0.0	No		-18.5986394557823				ShowChoice	Gain
45.0	2	283.222	0.029	827.275	-3.0	-3.0	17.5012	1.0	70.0	1.68	Certain	6.5	-12.1	0.0	No		-18.5986394557823				ShowResult	Gain
45.0	2	284.242	0.02	828.295	-3.0	-3.0	17.5012	3.144	70.0	1.68	Certain	6.5	-12.1	0.0	No		-18.5986394557823				ISITrial	Gain
46.0	2	287.418	0.032	831.471	-3.0	-3.0	17.1262	3.0	70.0	1.82	Certain	6.7	-12.53	3841.25	Yes	4.0	-19.2267573696145	2.008	289.426		GetAnswer	Gain
46.0	2	289.441	0.015	833.494	-3.0	-3.0	17.1262	4.0	70.0	1.82	Certain	6.7	-12.53	3841.25	Yes		-19.2267573696145				ShowChoice	Gain
46.0	2	293.469	0.028	837.522	-3.0	-3.0	17.1262	1.0	70.0	1.82	Certain	6.7	-12.53	3841.25	Yes		-19.2267573696145				ShowResult	Gain
46.0	2	294.489	0.02	838.542	-3.0	-3.0	17.1262	2.246	70.0	1.82	Certain	6.7	-12.53	3841.25	Yes		-19.2267573696145				ISITrial	Gain
46.0	2	300.624	0.021	844.677	-3.0	-3.0	17.1262	1.664	70.0	1.82	Certain	6.7	-12.53	3841.25	Yes	4{-4}2{-2}2{-2}	-19.2267573696145	1.664	302.288	484.0	TrialHappiness	Gain
46.0	2	304.653	4.029	848.706	-3.0	-3.0	17.1262	7.365	70.0	1.82	Certain	6.7	-12.53	3841.25	Yes		-19.2267573696145				ISIRate	Gain
47.0	2	312.041	0.023	856.094	1.92	0.0	17.3662	3.0	70.0	3.16	Outcome1	1.92	-0.63	0.0	No	2.0	2.5513983371126203	1.427	313.468		GetAnswer	Gain
47.0	2	313.496	0.028	857.549	1.92	0.0	17.3662	4.0	70.0	3.16	Outcome1	1.92	-0.63	0.0	No		2.5513983371126203				ShowChoice	Gain
47.0	2	317.525	0.029	861.578	1.92	0.0	17.3662	1.0	70.0	3.16	Outcome1	1.92	-0.63	0.0	No		2.5513983371126203				ShowResult	Gain
47.0	2	318.544	0.019	862.597	1.92	0.0	17.3662	2.0	70.0	3.16	Outcome1	1.92	-0.63	0.0	No		2.5513983371126203				ISITrial	Gain
48.0	2	320.567	0.023	864.62	1.78	0.0	17.5887	3.0	70.0	2.22	Outcome1	1.78	-0.81	2831.75	Yes	2.0	2.59051398337113	2.394	322.961		GetAnswer	Gain
48.0	2	322.991	0.03	867.044	1.78	0.0	17.5887	4.0	70.0	2.22	Outcome1	1.78	-0.81	2831.75	Yes		2.59051398337113				ShowChoice	Gain
48.0	2	327.02	0.029	871.073	1.78	0.0	17.5887	1.0	70.0	2.22	Outcome1	1.78	-0.81	2831.75	Yes		2.59051398337113				ShowResult	Gain
48.0	2	328.039	0.019	872.092	1.78	0.0	17.5887	3.692	70.0	2.22	Outcome1	1.78	-0.81	2831.75	Yes		2.59051398337113				ISITrial	Gain
48.0	2	334.609	0.027	878.662	1.78	0.0	17.5887	1.33	70.0	2.22	Outcome1	1.78	-0.81	2831.75	Yes		2.59051398337113			552.0	TrialHappiness	Gain
48.0	2	338.621	4.012	882.674	1.78	0.0	17.5887	3.327	70.0	2.22	Outcome1	1.78	-0.81	2831.75	Yes		2.59051398337113				ISIRate	Gain
49.0	2	341.981	0.033	886.034	-1.0	-1.0	17.4637	3.0	70.0	2.0	Certain	8.9	-10.67	0.0	No	4.0	-19.5691609977324	1.68	343.661		GetAnswer	Gain
49.0	2	343.686	0.025	887.739	-1.0	-1.0	17.4637	4.0	70.0	2.0	Certain	8.9	-10.67	0.0	No		-19.5691609977324				ShowChoice	Gain
49.0	2	347.698	0.012	891.751	-1.0	-1.0	17.4637	1.0	70.0	2.0	Certain	8.9	-10.67	0.0	No		-19.5691609977324				ShowResult	Gain
49.0	2	348.718	0.02	892.771	-1.0	-1.0	17.4637	8.0	70.0	2.0	Certain	8.9	-10.67	0.0	No		-19.5691609977324				ISITrial	Gain
50.0	2	356.742	0.024	900.795	1.72	0.0	17.6787	3.0	70.0	2.0	Outcome2	-1.23	1.72	3547.25	Yes	2.0	2.9514361300075604	1.802	358.544		GetAnswer	Gain
50.0	2	358.564	0.02	902.617	1.72	0.0	17.6787	4.0	70.0	2.0	Outcome2	-1.23	1.72	3547.25	Yes		2.9514361300075604				ShowChoice	Gain
50.0	2	362.593	0.029	906.646	1.72	0.0	17.6787	1.0	70.0	2.0	Outcome2	-1.23	1.72	3547.25	Yes		2.9514361300075604				ShowResult	Gain
50.0	2	363.612	0.019	907.665	1.72	0.0	17.6787	7.537	70.0	2.0	Outcome2	-1.23	1.72	3547.25	Yes		2.9514361300075604				ISITrial	Gain
50.0	2	374.746	0.031	918.799	1.72	0.0	17.6787	2.933	70.0	2.0	Outcome2	-1.23	1.72	3547.25	Yes		2.9514361300075604			568.0	TrialHappiness	Gain
50.0	2	378.774	4.028	922.827	1.72	0.0	17.6787	6.189	70.0	2.0	Outcome2	-1.23	1.72	3547.25	Yes		2.9514361300075604				ISIRate	Gain
51.0	2	384.993	0.03	929.046	-12.0	-12.0	16.1787	3.0	70.0	0.2	Certain	-1.5	-22.43	0.0	No	4.0	-20.934240362811803	1.873	386.866		GetAnswer	Mixed
51.0	2	386.882	0.016	930.935	-12.0	-12.0	16.1787	4.0	70.0	0.2	Certain	-1.5	-22.43	0.0	No		-20.934240362811803				ShowChoice	Mixed
51.0	2	390.911	0.029	934.964	-12.0	-12.0	16.1787	1.0	70.0	0.2	Certain	-1.5	-22.43	0.0	No		-20.934240362811803				ShowResult	Mixed
51.0	2	391.93	0.019	935.983	-12.0	-12.0	16.1787	5.508	70.0	0.2	Certain	-1.5	-22.43	0.0	No		-20.934240362811803				ISITrial	Mixed
52.0	2	397.464	0.026	941.517	-2.0	-2.0	15.9287	3.0	70.0	4.2	Certain	8.1	-13.4	0.0	No	4.0	-21.4988662131519	2.63	400.094		GetAnswer	Gain
52.0	2	400.121	0.027	944.174	-2.0	-2.0	15.9287	4.0	70.0	4.2	Certain	8.1	-13.4	0.0	No		-21.4988662131519				ShowChoice	Gain
52.0	2	404.133	0.012	948.186	-2.0	-2.0	15.9287	1.0	70.0	4.2	Certain	8.1	-13.4	0.0	No		-21.4988662131519				ShowResult	Gain
52.0	2	405.153	0.02	949.206	-2.0	-2.0	15.9287	5.913	70.0	4.2	Certain	8.1	-13.4	0.0	No		-21.4988662131519				ISITrial	Gain
53.0	2	411.088	0.022	955.141	-8.0	-8.0	14.9287	3.0	70.0	0.3	Certain	2.7	-19.36	2996.75	Yes	4.0	-22.063492063492102	2.522	413.61		GetAnswer	Mixed
53.0	2	413.629	0.018	957.682	-8.0	-8.0	14.9287	4.0	70.0	0.3	Certain	2.7	-19.36	2996.75	Yes		-22.063492063492102				ShowChoice	Mixed
53.0	2	417.657	0.028	961.71	-8.0	-8.0	14.9287	1.0	70.0	0.3	Certain	2.7	-19.36	2996.75	Yes		-22.063492063492102				ShowResult	Mixed
53.0	2	418.677	0.02	962.73	-8.0	-8.0	14.9287	3.66	70.0	0.3	Certain	2.7	-19.36	2996.75	Yes		-22.063492063492102				ISITrial	Mixed
53.0	2	425.38	0.028	969.433	-8.0	-8.0	14.9287	0.0	70.0	0.3	Certain	2.7	-19.36	2996.75	Yes		-22.063492063492102			512.0	TrialHappiness	Mixed
53.0	2	429.409	4.029	973.462	-8.0	-8.0	14.9287	3.987	70.0	0.3	Certain	2.7	-19.36	2996.75	Yes		-22.063492063492102				ISIRate	Mixed
54.0	2	433.421	0.025	977.474	-2.0	-2.0	14.6787	3.0	70.0	1.82	Certain	8.7	-12.98	0.0	No	4.0	-21.6757369614512	2.11	435.531		GetAnswer	Gain
54.0	2	435.561	0.03	979.614	-2.0	-2.0	14.6787	4.0	70.0	1.82	Certain	8.7	-12.98	0.0	No		-21.6757369614512				ShowChoice	Gain
54.0	2	439.589	0.028	983.642	-2.0	-2.0	14.6787	1.0	70.0	1.82	Certain	8.7	-12.98	0.0	No		-21.6757369614512				ShowResult	Gain
54.0	2	440.609	0.02	984.662	-2.0	-2.0	14.6787	8.0	70.0	1.82	Certain	8.7	-12.98	0.0	No		-21.6757369614512				ISITrial	Gain
	2	448.633	0.024	992.686				-0.001								2		15.013	463.646		Rest	
	2	463.678	0.032	1007.731				4.0													BlockHappyPreview	
	2	467.69	0.012	1011.743				1.997												568.0	BlockStartHappiness	
	2	474.277	0.022	1018.33				-0.001								5.0		5.398	479.675		ScanWait	
	3	0.018	0.018	1023.746				10.0													GetReady	
55.0	3	10.048	0.03	1033.776	11.53	5.76	16.12	3.0	955.0	2.22	Outcome2	13.1	11.53	2533.25	Yes	2.0	-1.5704983012457499	1.213	11.261		GetAnswer	Loss
55.0	3	11.285	0.024	1035.013	11.53	5.76	16.12	4.0	955.0	2.22	Outcome2	13.1	11.53	2533.25	Yes		-1.5704983012457499				ShowChoice	Loss
55.0	3	15.313	0.028	1039.041	11.53	5.76	16.12	1.0	955.0	2.22	Outcome2	13.1	11.53	2533.25	Yes		-1.5704983012457499				ShowResult	Loss
55.0	3	16.333	0.02	1040.061	11.53	5.76	16.12	7.709	955.0	2.22	Outcome2	13.1	11.53	2533.25	Yes		-1.5704983012457499				ISITrial	Loss
55.0	3	26.614	0.025	1050.342	11.53	5.76	16.12	1.98	955.0	2.22	Outcome2	13.1	11.53	2533.25	Yes		-1.5704983012457499			576.0	TrialHappiness	Loss
55.0	3	30.643	4.029	1054.371	11.53	5.76	16.12	2.133	955.0	2.22	Outcome2	13.1	11.53	2533.25	Yes		-1.5704983012457499				ISIRate	Loss
56.0	3	32.799	0.023	1056.527	12.3	2.71	17.6575	3.0	955.0	5.0	Outcome2	5.42	12.3	0.0	No	2.0	6.876557191392981	1.213	34.012		GetAnswer	Loss
56.0	3	34.036	0.024	1057.764	12.3	2.71	17.6575	4.0	955.0	5.0	Outcome2	5.42	12.3	0.0	No		6.876557191392981				ShowChoice	Loss
56.0	3	38.065	0.029	1061.793	12.3	2.71	17.6575	1.0	955.0	5.0	Outcome2	5.42	12.3	0.0	No		6.876557191392981				ShowResult	Loss
56.0	3	39.085	0.02	1062.813	12.3	2.71	17.6575	4.697	955.0	5.0	Outcome2	5.42	12.3	0.0	No		6.876557191392981				ISITrial	Loss
57.0	3	43.815	0.033	1067.543	7.3	0.0	18.57	3.0	955.0	2.48	Outcome2	-0.01	7.3	0.0	No	2.0	7.30577576443941	1.501	45.316		GetAnswer	Gain
57.0	3	45.337	0.021	1069.065	7.3	0.0	18.57	4.0	955.0	2.48	Outcome2	-0.01	7.3	0.0	No		7.30577576443941				ShowChoice	Gain
57.0	3	49.365	0.028	1073.093	7.3	0.0	18.57	1.0	955.0	2.48	Outcome2	-0.01	7.3	0.0	No		7.30577576443941				ShowResult	Gain
57.0	3	50.385	0.02	1074.113	7.3	0.0	18.57	4.291	955.0	2.48	Outcome2	-0.01	7.3	0.0	No		7.30577576443941				ISITrial	Gain
58.0	3	54.698	0.022	1078.426	-4.0	-4.0	18.07	3.0	955.0	0.82	Certain	-0.5	-8.24	3045.75	Yes	4.0	7.7349943374858405	2.28	56.978		GetAnswer	Mixed
58.0	3	57.005	0.027	1080.733	-4.0	-4.0	18.07	4.0	955.0	0.82	Certain	-0.5	-8.24	3045.75	Yes		7.7349943374858405				ShowChoice	Mixed
58.0	3	61.017	0.012	1084.745	-4.0	-4.0	18.07	1.0	955.0	0.82	Certain	-0.5	-8.24	3045.75	Yes		7.7349943374858405				ShowResult	Mixed
58.0	3	62.036	0.019	1085.764	-4.0	-4.0	18.07	2.037	955.0	0.82	Certain	-0.5	-8.24	3045.75	Yes		7.7349943374858405				ISITrial	Mixed
58.0	3	67.168	0.029	1090.896	-4.0	-4.0	18.07	1.914	955.0	0.82	Certain	-0.5	-8.24	3045.75	Yes		7.7349943374858405			560.0	TrialHappiness	Mixed
58.0	3	71.197	4.029	1094.925	-4.0	-4.0	18.07	4.183	955.0	0.82	Certain	-0.5	-8.24	3045.75	Yes		7.7349943374858405				ISIRate	Mixed
59.0	3	75.41	0.03	1099.138	10.5	1.03	19.3825	3.0	955.0	1.68	Outcome2	2.06	10.5	0.0	No	2.0	8.43601359003398	1.67	77.08		GetAnswer	Loss
59.0	3	77.098	0.018	1100.826	10.5	1.03	19.3825	4.0	955.0	1.68	Outcome2	2.06	10.5	0.0	No		8.43601359003398				ShowChoice	Loss
59.0	3	81.11	0.012	1104.838	10.5	1.03	19.3825	1.0	955.0	1.68	Outcome2	2.06	10.5	0.0	No		8.43601359003398				ShowResult	Loss
59.0	3	82.13	0.02	1105.858	10.5	1.03	19.3825	5.064	955.0	1.68	Outcome2	2.06	10.5	0.0	No		8.43601359003398				ISITrial	Loss
60.0	3	87.212	0.018	1110.94	3.72	1.86	19.8475	3.0	955.0	2.8	Outcome1	3.72	5.5	3562.5	Yes	2.0	-1.7840694601736498	1.666	88.878		GetAnswer	Gain
60.0	3	88.9	0.022	1112.628	3.72	1.86	19.8475	4.0	955.0	2.8	Outcome1	3.72	5.5	3562.5	Yes		-1.7840694601736498				ShowChoice	Gain
60.0	3	92.929	0.029	1116.657	3.72	1.86	19.8475	1.0	955.0	2.8	Outcome1	3.72	5.5	3562.5	Yes		-1.7840694601736498				ShowResult	Gain
60.0	3	93.949	0.02	1117.677	3.72	1.86	19.8475	8.0	955.0	2.8	Outcome1	3.72	5.5	3562.5	Yes		-1.7840694601736498				ISITrial	Gain
60.0	3	105.567	0.032	1129.295	3.72	1.86	19.8475	1.644	955.0	2.8	Outcome1	3.72	5.5	3562.5	Yes		-1.7840694601736498			616.0	TrialHappiness	Gain
60.0	3	109.595	4.028	1133.323	3.72	1.86	19.8475	6.25	955.0	2.8	Outcome1	3.72	5.5	3562.5	Yes		-1.7840694601736498				ISIRate	Gain
61.0	3	115.864	0.019	1139.592	-1.0	-1.0	19.7225	3.0	955.0	0.2	Certain	-5.88	2.5	0.0	No	4.0	8.37938844847112	2.099	117.963		GetAnswer	Mixed
61.0	3	117.987	0.024	1141.715	-1.0	-1.0	19.7225	4.0	955.0	0.2	Certain	-5.88	2.5	0.0	No		8.37938844847112				ShowChoice	Mixed
61.0	3	121.999	0.012	1145.727	-1.0	-1.0	19.7225	1.0	955.0	0.2	Certain	-5.88	2.5	0.0	No		8.37938844847112				ShowResult	Mixed
61.0	3	123.019	0.02	1146.747	-1.0	-1.0	19.7225	4.586	955.0	0.2	Certain	-5.88	2.5	0.0	No		8.37938844847112				ISITrial	Mixed
62.0	3	127.633	0.028	1151.361	13.3	2.27	21.385	3.0	955.0	2.48	Outcome1	13.3	4.54	3748.75	Yes	2.0	8.76330690826727	1.168	128.801		GetAnswer	Loss
62.0	3	128.819	0.018	1152.547	13.3	2.27	21.385	4.0	955.0	2.48	Outcome1	13.3	4.54	3748.75	Yes		8.76330690826727				ShowChoice	Loss
62.0	3	132.848	0.029	1156.576	13.3	2.27	21.385	1.0	955.0	2.48	Outcome1	13.3	4.54	3748.75	Yes		8.76330690826727				ShowResult	Loss
62.0	3	133.868	0.02	1157.596	13.3	2.27	21.385	5.212	955.0	2.48	Outcome1	13.3	4.54	3748.75	Yes		8.76330690826727				ISITrial	Loss
62.0	3	142.878	0.029	1166.606	13.3	2.27	21.385	2.381	955.0	2.48	Outcome1	13.3	4.54	3748.75	Yes		8.76330690826727			628.0	TrialHappiness	Loss
62.0	3	146.907	4.029	1170.635	13.3	2.27	21.385	6.995	955.0	2.48	Outcome1	13.3	4.54	3748.75	Yes		8.76330690826727				ISIRate	Loss
63.0	3	153.928	0.026	1177.656	3.09	1.54	21.7713	3.0	955.0	1.82	Outcome2	4.7	3.09	0.0	No	2.0	-1.60938089845225	1.069	154.997		GetAnswer	Gain
63.0	3	155.014	0.017	1178.742	3.09	1.54	21.7713	4.0	955.0	1.82	Outcome2	4.7	3.09	0.0	No		-1.60938089845225				ShowChoice	Gain
63.0	3	159.043	0.029	1182.771	3.09	1.54	21.7713	1.0	955.0	1.82	Outcome2	4.7	3.09	0.0	No		-1.60938089845225				ShowResult	Gain
63.0	3	160.063	0.02	1183.791	3.09	1.54	21.7713	5.595	955.0	1.82	Outcome2	4.7	3.09	0.0	No		-1.60938089845225				ISITrial	Gain
64.0	3	165.68	0.022	1189.408	-4.0	-4.0	21.2713	3.0	955.0	0.4	Certain	-8.41	0.9	0.0	No	4.0	9.31370328425821	1.876	167.556		GetAnswer	Mixed
64.0	3	167.585	0.029	1191.313	-4.0	-4.0	21.2713	4.0	955.0	0.4	Certain	-8.41	0.9	0.0	No		9.31370328425821				ShowChoice	Mixed
64.0	3	171.614	0.029	1195.342	-4.0	-4.0	21.2713	1.0	955.0	0.4	Certain	-8.41	0.9	0.0	No		9.31370328425821				ShowResult	Mixed
64.0	3	172.634	0.02	1196.362	-4.0	-4.0	21.2713	5.47	955.0	0.4	Certain	-8.41	0.9	0.0	No		9.31370328425821				ISITrial	Mixed
65.0	3	178.134	0.03	1201.862	7.9	-0.89	22.2588	3.0	955.0	3.6	Outcome1	7.9	-1.78	2996.75	Yes	2.0	9.68403171007927	1.959	180.093		GetAnswer	Gain
65.0	3	180.123	0.03	1203.851	7.9	-0.89	22.2588	4.0	955.0	3.6	Outcome1	7.9	-1.78	2996.75	Yes		9.68403171007927				ShowChoice	Gain
65.0	3	184.152	0.029	1207.88	7.9	-0.89	22.2588	1.0	955.0	3.6	Outcome1	7.9	-1.78	2996.75	Yes		9.68403171007927				ShowResult	Gain
65.0	3	185.171	0.019	1208.899	7.9	-0.89	22.2588	3.344	955.0	3.6	Outcome1	7.9	-1.78	2996.75	Yes		9.68403171007927				ISITrial	Gain
65.0	3	191.557	0.029	1215.285	7.9	-0.89	22.2588	3.806	955.0	3.6	Outcome1	7.9	-1.78	2996.75	Yes		9.68403171007927			516.0	TrialHappiness	Gain
65.0	3	195.569	4.012	1219.297	7.9	-0.89	22.2588	3.987	955.0	3.6	Outcome1	7.9	-1.78	2996.75	Yes		9.68403171007927				ISIRate	Gain
66.0	3	199.581	0.025	1223.309	13.5	0.77	23.9463	3.0	955.0	2.8	Outcome2	1.54	13.5	0.0	No	2.0	11.9569648924122	1.182	200.763		GetAnswer	Loss
66.0	3	200.785	0.022	1224.513	13.5	0.77	23.9463	4.0	955.0	2.8	Outcome2	1.54	13.5	0.0	No		11.9569648924122				ShowChoice	Loss
66.0	3	204.813	0.028	1228.541	13.5	0.77	23.9463	1.0	955.0	2.8	Outcome2	1.54	13.5	0.0	No		11.9569648924122				ShowResult	Loss
66.0	3	205.833	0.02	1229.561	13.5	0.77	23.9463	3.959	955.0	2.8	Outcome2	1.54	13.5	0.0	No		11.9569648924122				ISITrial	Loss
67.0	3	209.812	0.02	1233.54	13.9	0.72	25.6838	3.0	955.0	3.6	Outcome2	1.45	13.9	2918.5	Yes	2.0	12.4541336353341	2.031	211.843		GetAnswer	Loss
67.0	3	211.868	0.025	1235.596	13.9	0.72	25.6838	4.0	955.0	3.6	Outcome2	1.45	13.9	2918.5	Yes		12.4541336353341				ShowChoice	Loss
67.0	3	215.897	0.029	1239.625	13.9	0.72	25.6838	1.0	955.0	3.6	Outcome2	1.45	13.9	2918.5	Yes		12.4541336353341				ShowResult	Loss
67.0	3	216.916	0.019	1240.644	13.9	0.72	25.6838	4.199	955.0	3.6	Outcome2	1.45	13.9	2918.5	Yes		12.4541336353341				ISITrial	Loss
67.0	3	224.071	0.024	1247.799	13.9	0.72	25.6838	3.348	955.0	3.6	Outcome2	1.45	13.9	2918.5	Yes	4{-4}4{-4}	12.4541336353341	3.348	227.419	480.0	TrialHappiness	Loss
67.0	3	228.1	4.029	1251.828	13.9	0.72	25.6838	3.674	955.0	3.6	Outcome2	1.45	13.9	2918.5	Yes		12.4541336353341				ISIRate	Loss
68.0	3	231.794	0.02	1255.522	7.91	3.96	26.6726	3.0	955.0	5.0	Outcome2	10.3	7.91	0.0	No	2.0	-2.3854284635711602	0.92	232.714		GetAnswer	Gain
68.0	3	232.73	0.015	1256.458	7.91	3.96	26.6726	4.0	955.0	5.0	Outcome2	10.3	7.91	0.0	No		-2.3854284635711602				ShowChoice	Gain
68.0	3	236.742	0.012	1260.47	7.91	3.96	26.6726	1.0	955.0	5.0	Outcome2	10.3	7.91	0.0	No		-2.3854284635711602				ShowResult	Gain
68.0	3	237.762	0.02	1261.49	7.91	3.96	26.6726	2.185	955.0	5.0	Outcome2	10.3	7.91	0.0	No		-2.3854284635711602				ISITrial	Gain
69.0	3	239.968	0.021	1263.696	-6.0	-6.0	25.9226	3.0	955.0	0.66	Certain	-12.8	1.3	0.0	No	4.0	14.1007927519819	1.863	241.831		GetAnswer	Mixed
69.0	3	241.857	0.026	1265.585	-6.0	-6.0	25.9226	4.0	955.0	0.66	Certain	-12.8	1.3	0.0	No		14.1007927519819				ShowChoice	Mixed
69.0	3	245.869	0.012	1269.597	-6.0	-6.0	25.9226	1.0	955.0	0.66	Certain	-12.8	1.3	0.0	No		14.1007927519819				ShowResult	Mixed
69.0	3	246.889	0.02	1270.617	-6.0	-6.0	25.9226	2.0	955.0	0.66	Certain	-12.8	1.3	0.0	No		14.1007927519819				ISITrial	Mixed
70.0	3	248.912	0.023	1272.64	-5.0	-5.0	25.2976	3.0	955.0	1.0	Certain	1.7	-12.94	3651.25	Yes	4.0	14.638731596829	2.232	251.144		GetAnswer	Mixed
70.0	3	251.169	0.025	1274.897	-5.0	-5.0	25.2976	4.0	955.0	1.0	Certain	1.7	-12.94	3651.25	Yes		14.638731596829				ShowChoice	Mixed
70.0	3	255.197	0.028	1278.925	-5.0	-5.0	25.2976	1.0	955.0	1.0	Certain	1.7	-12.94	3651.25	Yes		14.638731596829				ShowResult	Mixed
70.0	3	256.217	0.02	1279.945	-5.0	-5.0	25.2976	2.623	955.0	1.0	Certain	1.7	-12.94	3651.25	Yes		14.638731596829				ISITrial	Mixed
70.0	3	262.536	0.027	1286.264	-5.0	-5.0	25.2976	2.949	955.0	1.0	Certain	1.7	-12.94	3651.25	Yes		14.638731596829			560.0	TrialHappiness	Mixed
70.0	3	266.565	4.029	1290.293	-5.0	-5.0	25.2976	6.605	955.0	1.0	Certain	1.7	-12.94	3651.25	Yes		14.638731596829				ISIRate	Mixed
71.0	3	273.201	0.031	1296.929	-2.0	-2.0	25.0476	3.0	955.0	0.3	Certain	-1.3	-3.5	0.0	No	4.0	-2.19526236315591	2.874	276.075		GetAnswer	Mixed
71.0	3	276.093	0.017	1299.821	-2.0	-2.0	25.0476	4.0	955.0	0.3	Certain	-1.3	-3.5	0.0	No		-2.19526236315591				ShowChoice	Mixed
71.0	3	280.105	0.012	1303.833	-2.0	-2.0	25.0476	1.0	955.0	0.3	Certain	-1.3	-3.5	0.0	No		-2.19526236315591				ShowResult	Mixed
71.0	3	281.125	0.02	1304.853	-2.0	-2.0	25.0476	5.499	955.0	0.3	Certain	-1.3	-3.5	0.0	No		-2.19526236315591				ISITrial	Mixed
72.0	3	286.641	0.017	1310.369	9.3	2.0	26.2101	3.0	955.0	2.48	Outcome1	9.3	-4.96	3080.5	Yes	2.0	14.2650056625142	1.897	288.538		GetAnswer	Gain
72.0	3	288.564	0.026	1312.292	9.3	2.0	26.2101	4.0	955.0	2.48	Outcome1	9.3	-4.96	3080.5	Yes		14.2650056625142				ShowChoice	Gain
72.0	3	292.593	0.029	1316.321	9.3	2.0	26.2101	1.0	955.0	2.48	Outcome1	9.3	-4.96	3080.5	Yes		14.2650056625142				ShowResult	Gain
72.0	3	293.612	0.019	1317.34	9.3	2.0	26.2101	5.672	955.0	2.48	Outcome1	9.3	-4.96	3080.5	Yes		14.2650056625142				ISITrial	Gain
72.0	3	302.422	0.029	1326.15	9.3	2.0	26.2101	3.323	955.0	2.48	Outcome1	9.3	-4.96	3080.5	Yes		14.2650056625142			564.0	TrialHappiness	Gain
72.0	3	306.451	4.029	1330.179	9.3	2.0	26.2101	4.322	955.0	2.48	Outcome1	9.3	-4.96	3080.5	Yes		14.2650056625142				ISIRate	Gain
73.0	3	310.797	0.024	1334.525	-4.0	-4.0	25.7101	3.0	955.0	0.66	Certain	-11.34	3.3	0.0	No	4.0	14.644394110985301	1.825	312.622		GetAnswer	Mixed
73.0	3	312.652	0.03	1336.38	-4.0	-4.0	25.7101	4.0	955.0	0.66	Certain	-11.34	3.3	0.0	No		14.644394110985301				ShowChoice	Mixed
73.0	3	316.681	0.029	1340.409	-4.0	-4.0	25.7101	1.0	955.0	0.66	Certain	-11.34	3.3	0.0	No		14.644394110985301				ShowResult	Mixed
73.0	3	317.701	0.02	1341.429	-4.0	-4.0	25.7101	4.616	955.0	0.66	Certain	-11.34	3.3	0.0	No		14.644394110985301				ISITrial	Mixed
74.0	3	322.348	0.031	1346.076	1.0	1.0	25.8351	3.0	955.0	2.22	Certain	9.1	-5.99	3056.25	Yes	4.0	15.087202718006802	1.805	324.153		GetAnswer	Gain
74.0	3	324.17	0.017	1347.898	1.0	1.0	25.8351	4.0	955.0	2.22	Certain	9.1	-5.99	3056.25	Yes		15.087202718006802				ShowChoice	Gain
74.0	3	328.182	0.012	1351.91	1.0	1.0	25.8351	1.0	955.0	2.22	Certain	9.1	-5.99	3056.25	Yes		15.087202718006802				ShowResult	Gain
74.0	3	329.202	0.02	1352.93	1.0	1.0	25.8351	3.909	955.0	2.22	Certain	9.1	-5.99	3056.25	Yes		15.087202718006802				ISITrial	Gain
74.0	3	336.206	0.02	1359.934	1.0	1.0	25.8351	1.362	955.0	2.22	Certain	9.1	-5.99	3056.25	Yes		15.087202718006802			568.0	TrialHappiness	Gain
74.0	3	340.218	4.012	1363.946	1.0	1.0	25.8351	4.225	955.0	2.22	Certain	9.1	-5.99	3056.25	Yes		15.087202718006802				ISIRate	Gain
75.0	3	344.464	0.021	1368.192	2.0	2.0	26.0851	3.0	955.0	3.16	Certain	-5.76	9.7	0.0	No	4.0	15.4620611551529	2.052	346.516		GetAnswer	Gain
75.0	3	346.537	0.021	1370.265	2.0	2.0	26.0851	4.0	955.0	3.16	Certain	-5.76	9.7	0.0	No		15.4620611551529				ShowChoice	Gain
75.0	3	350.549	0.012	1374.277	2.0	2.0	26.0851	1.0	955.0	3.16	Certain	-5.76	9.7	0.0	No		15.4620611551529				ShowResult	Gain
75.0	3	351.569	0.02	1375.297	2.0	2.0	26.0851	4.979	955.0	3.16	Certain	-5.76	9.7	0.0	No		15.4620611551529				ISITrial	Gain
76.0	3	356.567	0.019	1380.295	6.1	-2.0	26.8476	3.0	955.0	4.2	Outcome2	-9.8	6.1	0.0	No		15.9003397508494				GetAnswer	Gain
76.0	3	359.593	0.026	1383.321	6.1	-2.0	26.8476	4.0	955.0	4.2	Outcome2	-9.8	6.1	0.0	No		15.9003397508494				ShowChoice	Gain
76.0	3	363.622	0.029	1387.35	6.1	-2.0	26.8476	1.0	955.0	4.2	Outcome2	-9.8	6.1	0.0	No		15.9003397508494				ShowResult	Gain
76.0	3	364.641	0.019	1388.369	6.1	-2.0	26.8476	3.931	955.0	4.2	Outcome2	-9.8	6.1	0.0	No		15.9003397508494				ISITrial	Gain
77.0	3	368.603	0.031	1392.331	1.0	1.0	26.9726	3.0	955.0	3.6	Certain	9.9	-6.44	4000.0	Yes	4.0	16.3386183465459	1.803	370.406		GetAnswer	Gain
77.0	3	370.425	0.019	1394.153	1.0	1.0	26.9726	4.0	955.0	3.6	Certain	9.9	-6.44	4000.0	Yes		16.3386183465459				ShowChoice	Gain
77.0	3	374.454	0.029	1398.182	1.0	1.0	26.9726	1.0	955.0	3.6	Certain	9.9	-6.44	4000.0	Yes		16.3386183465459				ShowResult	Gain
77.0	3	375.474	0.02	1399.202	1.0	1.0	26.9726	7.022	955.0	3.6	Certain	9.9	-6.44	4000.0	Yes		16.3386183465459				ISITrial	Gain
77.0	3	386.54	0.029	1410.268	1.0	1.0	26.9726	0.0	955.0	3.6	Certain	9.9	-6.44	4000.0	Yes		16.3386183465459			512.0	TrialHappiness	Gain
77.0	3	390.569	4.029	1414.297	1.0	1.0	26.9726	8.0	955.0	3.6	Certain	9.9	-6.44	4000.0	Yes		16.3386183465459				ISIRate	Gain
78.0	3	398.593	0.024	1422.321	-7.0	-7.0	26.0976	3.0	955.0	1.5	Certain	-15.63	2.1	0.0	No	4.0	17.728199320498298	1.981	400.574		GetAnswer	Mixed
78.0	3	400.599	0.025	1424.327	-7.0	-7.0	26.0976	4.0	955.0	1.5	Certain	-15.63	2.1	0.0	No		17.728199320498298				ShowChoice	Mixed
78.0	3	404.627	0.028	1428.355	-7.0	-7.0	26.0976	1.0	955.0	1.5	Certain	-15.63	2.1	0.0	No		17.728199320498298				ShowResult	Mixed
78.0	3	405.647	0.02	1429.375	-7.0	-7.0	26.0976	2.078	955.0	1.5	Certain	-15.63	2.1	0.0	No		17.728199320498298				ISITrial	Mixed
79.0	3	407.753	0.028	1431.481	1.0	1.0	26.2226	3.0	955.0	3.6	Certain	-8.33	9.9	2729.5	Yes	4.0	18.2298980747452	1.333	409.086		GetAnswer	Gain
79.0	3	409.108	0.022	1432.836	1.0	1.0	26.2226	4.0	955.0	3.6	Certain	-8.33	9.9	2729.5	Yes		18.2298980747452				ShowChoice	Gain
79.0	3	413.136	0.028	1436.864	1.0	1.0	26.2226	1.0	955.0	3.6	Certain	-8.33	9.9	2729.5	Yes		18.2298980747452				ShowResult	Gain
79.0	3	414.156	0.02	1437.884	1.0	1.0	26.2226	3.829	955.0	3.6	Certain	-8.33	9.9	2729.5	Yes		18.2298980747452				ISITrial	Gain
79.0	3	420.759	0.028	1444.487	1.0	1.0	26.2226	1.722	955.0	3.6	Certain	-8.33	9.9	2729.5	Yes		18.2298980747452			532.0	TrialHappiness	Gain
79.0	3	424.788	4.029	1448.516	1.0	1.0	26.2226	2.918	955.0	3.6	Certain	-8.33	9.9	2729.5	Yes		18.2298980747452				ISIRate	Gain
80.0	3	427.73	0.024	1451.458	0.85	2.0	26.3288	3.0	955.0	0.82	Outcome2	3.5	0.85	0.0	No	2.0	-2.6504341260853197	1.687	429.417		GetAnswer	Mixed
80.0	3	429.435	0.018	1453.163	0.85	2.0	26.3288	4.0	955.0	0.82	Outcome2	3.5	0.85	0.0	No		-2.6504341260853197				ShowChoice	Mixed
80.0	3	433.464	0.029	1457.192	0.85	2.0	26.3288	1.0	955.0	0.82	Outcome2	3.5	0.85	0.0	No		-2.6504341260853197				ShowResult	Mixed
80.0	3	434.483	0.019	1458.211	0.85	2.0	26.3288	3.336	955.0	0.82	Outcome2	3.5	0.85	0.0	No		-2.6504341260853197				ISITrial	Mixed
81.0	3	437.843	0.024	1461.571	1.0	1.0	26.4538	3.0	955.0	1.68	Certain	10.5	-8.37	3923.75	Yes	4.0	18.8708946772367	1.892	439.735		GetAnswer	Loss
81.0	3	439.749	0.014	1463.477	1.0	1.0	26.4538	4.0	955.0	1.68	Certain	10.5	-8.37	3923.75	Yes		18.8708946772367				ShowChoice	Loss
81.0	3	443.778	0.029	1467.506	1.0	1.0	26.4538	1.0	955.0	1.68	Certain	10.5	-8.37	3923.75	Yes		18.8708946772367				ShowResult	Loss
81.0	3	444.798	0.02	1468.526	1.0	1.0	26.4538	3.919	955.0	1.68	Certain	10.5	-8.37	3923.75	Yes		18.8708946772367				ISITrial	Loss
81.0	3	452.688	0.021	1476.416	1.0	1.0	26.4538	0.843	955.0	1.68	Certain	10.5	-8.37	3923.75	Yes		18.8708946772367			544.0	TrialHappiness	Loss
81.0	3	456.717	4.029	1480.445	1.0	1.0	26.4538	7.695	955.0	1.68	Certain	10.5	-8.37	3923.75	Yes		18.8708946772367				ISIRate	Loss
	3	464.44	0.028	1488.168				3.0													CurrentEarnings	
	3	467.465	0.025	1491.193				-0.001								{SPACE}		279.002	746.467		Goodbye	
