trial_number	block	onset	onset_delay	onset_unadjusted	amount_change	certain_amount	current_amount	duration	mood_target	multiplier	outcome	outcome1_amount	outcome2_amount	question_duration	rating	response	rpe	rt	rt_time	slider_response	trial_phase	trial_type
	0	-46.708	0.022	28.714				-0.001								{SPACE}		3.532	-43.176		Welcome	
	0	-43.148	0.028	32.274				5.0													LifeHappyPreview	
	0	-38.116	0.032	37.306				2.717												728.0	LifeHappiness	
	0	-25.729	0.023	49.693				4.0													BlockHappyPreview	
	0	-21.717	0.012	53.705				1.461												736.0	BlockStartHappiness	
	0	-10.634	0.014	64.788				-0.001								5.0					ScanWait	
	1	0.015	0.015	75.437				10.0													GetReady	
1.0	1	10.045	0.03	85.467	2.5	0.0	10.3125	3.0	955.0	0.2	Outcome2	-1.22	2.5	0.0	No	2.0	3.7202718006795	1.86	11.905		GetAnswer	Mixed
1.0	1	11.917	0.012	87.339	2.5	0.0	10.3125	4.0	955.0	0.2	Outcome2	-1.22	2.5	0.0	No		3.7202718006795				ShowChoice	Mixed
1.0	1	15.929	0.012	91.351	2.5	0.0	10.3125	1.0	955.0	0.2	Outcome2	-1.22	2.5	0.0	No		3.7202718006795				ShowResult	Mixed
1.0	1	16.949	0.02	92.371	2.5	0.0	10.3125	2.431	955.0	0.2	Outcome2	-1.22	2.5	0.0	No		3.7202718006795				ISITrial	Mixed
2.0	1	19.406	0.026	94.828	12.1	4.07	11.825	3.0	955.0	4.2	Outcome1	12.1	8.13	0.0	No	2.0	3.9682899207247995	1.506	20.912		GetAnswer	Loss
2.0	1	20.927	0.015	96.349	12.1	4.07	11.825	4.0	955.0	4.2	Outcome1	12.1	8.13	0.0	No		3.9682899207247995				ShowChoice	Loss
2.0	1	24.939	0.012	100.361	12.1	4.07	11.825	1.0	955.0	4.2	Outcome1	12.1	8.13	0.0	No		3.9682899207247995				ShowResult	Loss
2.0	1	25.959	0.02	101.381	12.1	4.07	11.825	4.568	955.0	4.2	Outcome1	12.1	8.13	0.0	No		3.9682899207247995				ISITrial	Loss
3.0	1	30.556	0.029	105.978	6.5	1.14	12.6375	3.0	955.0	1.68	Outcome2	2.28	6.5	2868.0	Yes	2.0	4.216308040770101	1.292	31.848		GetAnswer	Gain
3.0	1	31.86	0.012	107.282	6.5	1.14	12.6375	4.0	955.0	1.68	Outcome2	2.28	6.5	2868.0	Yes		4.216308040770101				ShowChoice	Gain
3.0	1	35.872	0.012	111.294	6.5	1.14	12.6375	1.0	955.0	1.68	Outcome2	2.28	6.5	2868.0	Yes		4.216308040770101				ShowResult	Gain
3.0	1	36.892	0.02	112.314	6.5	1.14	12.6375	3.243	955.0	1.68	Outcome2	2.28	6.5	2868.0	Yes		4.216308040770101				ISITrial	Gain
3.0	1	43.044	0.024	118.466	6.5	1.14	12.6375	3.301	955.0	1.68	Outcome2	2.28	6.5	2868.0	Yes		4.216308040770101			752.0	TrialHappiness	Gain
3.0	1	47.056	4.012	122.478	6.5	1.14	12.6375	3.472	955.0	1.68	Outcome2	2.28	6.5	2868.0	Yes		4.216308040770101				ISIRate	Gain
4.0	1	50.549	0.021	125.971	10.9	3.36	14.0	3.0	955.0	2.0	Outcome1	10.9	6.71	0.0	No	2.0	4.1925254813137	1.126	51.675		GetAnswer	Loss
4.0	1	51.703	0.027	127.125	10.9	3.36	14.0	4.0	955.0	2.0	Outcome1	10.9	6.71	0.0	No		4.1925254813137				ShowChoice	Loss
4.0	1	55.715	0.012	131.137	10.9	3.36	14.0	1.0	955.0	2.0	Outcome1	10.9	6.71	0.0	No		4.1925254813137				ShowResult	Loss
4.0	1	56.735	0.02	132.157	10.9	3.36	14.0	2.011	955.0	2.0	Outcome1	10.9	6.71	0.0	No		4.1925254813137				ISITrial	Loss
5.0	1	58.774	0.028	134.196	10.8	5.4	15.35	3.0	955.0	3.16	Outcome1	10.8	11.7	2582.5	Yes	2.0	-0.9049641374103442	1.393	60.167		GetAnswer	Loss
5.0	1	60.195	0.028	135.617	10.8	5.4	15.35	4.0	955.0	3.16	Outcome1	10.8	11.7	2582.5	Yes		-0.9049641374103442				ShowChoice	Loss
5.0	1	64.207	0.012	139.629	10.8	5.4	15.35	1.0	955.0	3.16	Outcome1	10.8	11.7	2582.5	Yes		-0.9049641374103442				ShowResult	Loss
5.0	1	65.227	0.02	140.649	10.8	5.4	15.35	5.129	955.0	3.16	Outcome1	10.8	11.7	2582.5	Yes		-0.9049641374103442				ISITrial	Loss
5.0	1	72.983	0.026	148.405	10.8	5.4	15.35	2.582	955.0	3.16	Outcome1	10.8	11.7	2582.5	Yes		-0.9049641374103442			768.0	TrialHappiness	Loss
5.0	1	76.995	4.012	152.417	10.8	5.4	15.35	2.33	955.0	3.16	Outcome1	10.8	11.7	2582.5	Yes		-0.9049641374103442				ISIRate	Loss
6.0	1	79.352	0.027	154.774	7.7	1.66	16.3125	3.0	955.0	3.16	Outcome1	7.7	3.32	0.0	No	2.0	4.38052095130238	1.512	80.864		GetAnswer	Gain
6.0	1	80.89	0.026	156.312	7.7	1.66	16.3125	4.0	955.0	3.16	Outcome1	7.7	3.32	0.0	No		4.38052095130238				ShowChoice	Gain
6.0	1	84.902	0.012	160.324	7.7	1.66	16.3125	1.0	955.0	3.16	Outcome1	7.7	3.32	0.0	No		4.38052095130238				ShowResult	Gain
6.0	1	85.922	0.02	161.344	7.7	1.66	16.3125	6.232	955.0	3.16	Outcome1	7.7	3.32	0.0	No		4.38052095130238				ISITrial	Gain
7.0	1	92.174	0.02	167.596	12.3	3.86	17.85	3.0	955.0	5.0	Outcome2	7.71	12.3	0.0	No	2.0	4.59229898074745	0.932	93.106		GetAnswer	Loss
7.0	1	93.127	0.021	168.549	12.3	3.86	17.85	4.0	955.0	5.0	Outcome2	7.71	12.3	0.0	No		4.59229898074745				ShowChoice	Loss
7.0	1	97.139	0.012	172.561	12.3	3.86	17.85	1.0	955.0	5.0	Outcome2	7.71	12.3	0.0	No		4.59229898074745				ShowResult	Loss
7.0	1	98.159	0.02	173.581	12.3	3.86	17.85	2.305	955.0	5.0	Outcome2	7.71	12.3	0.0	No		4.59229898074745				ISITrial	Loss
8.0	1	100.482	0.018	175.904	8.7	1.95	18.9375	3.0	955.0	1.82	Outcome1	8.7	3.9	3112.5	Yes	2.0	4.80407701019253	1.002	101.484		GetAnswer	Gain
8.0	1	101.502	0.018	176.924	8.7	1.95	18.9375	4.0	955.0	1.82	Outcome1	8.7	3.9	3112.5	Yes		4.80407701019253				ShowChoice	Gain
8.0	1	105.514	0.012	180.936	8.7	1.95	18.9375	1.0	955.0	1.82	Outcome1	8.7	3.9	3112.5	Yes		4.80407701019253				ShowResult	Gain
8.0	1	106.534	0.02	181.956	8.7	1.95	18.9375	3.506	955.0	1.82	Outcome1	8.7	3.9	3112.5	Yes		4.80407701019253				ISITrial	Gain
8.0	1	113.187	0.014	188.609	8.7	1.95	18.9375	1.578	955.0	1.82	Outcome1	8.7	3.9	3112.5	Yes		4.80407701019253			832.0	TrialHappiness	Gain
8.0	1	117.199	4.012	192.621	8.7	1.95	18.9375	4.45	955.0	1.82	Outcome1	8.7	3.9	3112.5	Yes		4.80407701019253				ISIRate	Gain
9.0	1	121.679	0.03	197.101	-1.0	-1.0	18.8125	3.0	955.0	0.3	Certain	0.7	-3.23	0.0	No	4.0	3.9286523216308	1.972	123.651		GetAnswer	Mixed
9.0	1	123.668	0.017	199.09	-1.0	-1.0	18.8125	4.0	955.0	0.3	Certain	0.7	-3.23	0.0	No		3.9286523216308				ShowChoice	Mixed
9.0	1	127.68	0.012	203.102	-1.0	-1.0	18.8125	1.0	955.0	0.3	Certain	0.7	-3.23	0.0	No		3.9286523216308				ShowResult	Mixed
9.0	1	128.7	0.02	204.122	-1.0	-1.0	18.8125	2.0	955.0	0.3	Certain	0.7	-3.23	0.0	No		3.9286523216308				ISITrial	Mixed
10.0	1	130.723	0.023	206.145	3.44	1.72	19.2425	3.0	955.0	1.5	Outcome1	3.44	4.1	4000.0	Yes	2.0	-0.6640241600604	1.573	132.296		GetAnswer	Mixed
10.0	1	132.311	0.015	207.733	3.44	1.72	19.2425	4.0	955.0	1.5	Outcome1	3.44	4.1	4000.0	Yes		-0.6640241600604				ShowChoice	Mixed
10.0	1	136.323	0.012	211.745	3.44	1.72	19.2425	1.0	955.0	1.5	Outcome1	3.44	4.1	4000.0	Yes		-0.6640241600604				ShowResult	Mixed
10.0	1	137.343	0.02	212.765	3.44	1.72	19.2425	2.0	955.0	1.5	Outcome1	3.44	4.1	4000.0	Yes		-0.6640241600604				ISITrial	Mixed
10.0	1	143.394	0.029	218.816	3.44	1.72	19.2425	3.485	955.0	1.5	Outcome1	3.44	4.1	4000.0	Yes		-0.6640241600604			800.0	TrialHappiness	Mixed
10.0	1	147.406	4.012	222.828	3.44	1.72	19.2425	8.0	955.0	1.5	Outcome1	3.44	4.1	4000.0	Yes		-0.6640241600604				ISIRate	Mixed
11.0	1	155.43	0.024	230.852	8.1	1.68	20.255	3.0	955.0	4.2	Outcome1	8.1	3.35	0.0	No	2.0	4.750849377123441	0.979	156.409		GetAnswer	Gain
11.0	1	156.433	0.024	231.855	8.1	1.68	20.255	4.0	955.0	4.2	Outcome1	8.1	3.35	0.0	No		4.750849377123441				ShowChoice	Gain
11.0	1	160.445	0.012	235.867	8.1	1.68	20.255	1.0	955.0	4.2	Outcome1	8.1	3.35	0.0	No		4.750849377123441				ShowResult	Gain
11.0	1	161.465	0.02	236.887	8.1	1.68	20.255	3.324	955.0	4.2	Outcome1	8.1	3.35	0.0	No		4.750849377123441				ISITrial	Gain
12.0	1	164.808	0.019	240.23	-1.0	-1.0	20.13	3.0	955.0	0.3	Certain	-1.3	-2.12	2618.75	Yes	4.0	-0.820120800302001	1.949	166.757		GetAnswer	Mixed
12.0	1	166.781	0.024	242.203	-1.0	-1.0	20.13	4.0	955.0	0.3	Certain	-1.3	-2.12	2618.75	Yes		-0.820120800302001				ShowChoice	Mixed
12.0	1	170.793	0.012	246.215	-1.0	-1.0	20.13	1.0	955.0	0.3	Certain	-1.3	-2.12	2618.75	Yes		-0.820120800302001				ShowResult	Mixed
12.0	1	171.812	0.019	247.234	-1.0	-1.0	20.13	6.642	955.0	0.3	Certain	-1.3	-2.12	2618.75	Yes		-0.820120800302001				ISITrial	Mixed
12.0	1	181.107	0.022	256.529	-1.0	-1.0	20.13	2.983	955.0	0.3	Certain	-1.3	-2.12	2618.75	Yes	2{-2}2{-2}2{-2}2{-2}4{-4}2{-2}	-0.820120800302001	2.983	184.09	796.0	TrialHappiness	Mixed
12.0	1	185.119	4.012	260.541	-1.0	-1.0	20.13	2.475	955.0	0.3	Certain	-1.3	-2.12	2618.75	Yes		-0.820120800302001				ISIRate	Mixed
13.0	1	187.61	0.016	263.032	13.05	6.52	21.7612	3.0	955.0	3.6	Outcome2	13.9	13.05	0.0	No	2.0	-0.850981502453756	1.39	189.0		GetAnswer	Loss
13.0	1	189.014	0.014	264.436	13.05	6.52	21.7612	4.0	955.0	3.6	Outcome2	13.9	13.05	0.0	No		-0.850981502453756				ShowChoice	Loss
13.0	1	193.026	0.012	268.448	13.05	6.52	21.7612	1.0	955.0	3.6	Outcome2	13.9	13.05	0.0	No		-0.850981502453756				ShowResult	Loss
13.0	1	194.046	0.02	269.468	13.05	6.52	21.7612	3.48	955.0	3.6	Outcome2	13.9	13.05	0.0	No		-0.850981502453756				ISITrial	Loss
14.0	1	197.556	0.03	272.978	12.9	3.78	23.3737	3.0	955.0	2.0	Outcome2	7.55	12.9	0.0	No	2.0	5.34994337485844	1.202	198.758		GetAnswer	Loss
14.0	1	198.776	0.018	274.198	12.9	3.78	23.3737	4.0	955.0	2.0	Outcome2	7.55	12.9	0.0	No		5.34994337485844				ShowChoice	Loss
14.0	1	202.788	0.012	278.21	12.9	3.78	23.3737	1.0	955.0	2.0	Outcome2	7.55	12.9	0.0	No		5.34994337485844				ShowResult	Loss
14.0	1	203.808	0.02	279.23	12.9	3.78	23.3737	5.019	955.0	2.0	Outcome2	7.55	12.9	0.0	No		5.34994337485844				ISITrial	Loss
15.0	1	208.857	0.03	284.279	0.9	-2.0	23.4862	3.0	955.0	0.4	Outcome2	-4.63	0.9	3348.5	Yes	2.0	5.53001132502831	2.71	211.567		GetAnswer	Mixed
15.0	1	211.581	0.014	287.003	0.9	-2.0	23.4862	4.0	955.0	0.4	Outcome2	-4.63	0.9	3348.5	Yes		5.53001132502831				ShowChoice	Mixed
15.0	1	215.593	0.012	291.015	0.9	-2.0	23.4862	1.0	955.0	0.4	Outcome2	-4.63	0.9	3348.5	Yes		5.53001132502831				ShowResult	Mixed
15.0	1	216.613	0.02	292.035	0.9	-2.0	23.4862	7.614	955.0	0.4	Outcome2	-4.63	0.9	3348.5	Yes		5.53001132502831				ISITrial	Mixed
15.0	1	227.63	0.029	303.052	0.9	-2.0	23.4862	1.576	955.0	0.4	Outcome2	-4.63	0.9	3348.5	Yes		5.53001132502831			776.0	TrialHappiness	Mixed
15.0	1	231.642	4.012	307.064	0.9	-2.0	23.4862	5.394	955.0	0.4	Outcome2	-4.63	0.9	3348.5	Yes		5.53001132502831				ISIRate	Mixed
16.0	1	237.058	0.022	312.48	8.5	1.23	24.5487	3.0	955.0	1.68	Outcome2	2.45	8.5	0.0	No	2.0	6.04983012457531	1.523	238.581		GetAnswer	Gain
16.0	1	238.596	0.015	314.018	8.5	1.23	24.5487	4.0	955.0	1.68	Outcome2	2.45	8.5	0.0	No		6.04983012457531				ShowChoice	Gain
16.0	1	242.608	0.012	318.03	8.5	1.23	24.5487	1.0	955.0	1.68	Outcome2	2.45	8.5	0.0	No		6.04983012457531				ShowResult	Gain
16.0	1	243.627	0.019	319.049	8.5	1.23	24.5487	3.008	955.0	1.68	Outcome2	2.45	8.5	0.0	No		6.04983012457531				ISITrial	Gain
17.0	1	246.653	0.018	322.075	0.0	0.0	24.5487	3.0	955.0	2.0	Certain	-0.69	0.3	3041.5	Yes	4.0	-0.9940543601359001	2.638	249.291		GetAnswer	Mixed
17.0	1	249.311	0.02	324.733	0.0	0.0	24.5487	4.0	955.0	2.0	Certain	-0.69	0.3	3041.5	Yes		-0.9940543601359001				ShowChoice	Mixed
17.0	1	253.323	0.012	328.745	0.0	0.0	24.5487	1.0	955.0	2.0	Certain	-0.69	0.3	3041.5	Yes		-0.9940543601359001				ShowResult	Mixed
17.0	1	254.343	0.02	329.765	0.0	0.0	24.5487	3.566	955.0	2.0	Certain	-0.69	0.3	3041.5	Yes		-0.9940543601359001				ISITrial	Mixed
17.0	1	260.979	0.017	336.401	0.0	0.0	24.5487	3.585	955.0	2.0	Certain	-0.69	0.3	3041.5	Yes	2{-2}2{-2}2{-2}2{-2}	-0.9940543601359001	3.585	264.564	776.0	TrialHappiness	Mixed
17.0	1	264.991	4.012	340.413	0.0	0.0	24.5487	4.166	955.0	2.0	Certain	-0.69	0.3	3041.5	Yes		-0.9940543601359001				ISIRate	Mixed
18.0	1	269.187	0.03	344.609	10.49	5.24	25.8599	3.0	955.0	2.8	Outcome2	11.5	10.49	0.0	No	2.0	-1.01094752736882	1.177	270.364		GetAnswer	Loss
18.0	1	270.391	0.027	345.813	10.49	5.24	25.8599	4.0	955.0	2.8	Outcome2	11.5	10.49	0.0	No		-1.01094752736882				ShowChoice	Loss
18.0	1	274.403	0.012	349.825	10.49	5.24	25.8599	1.0	955.0	2.8	Outcome2	11.5	10.49	0.0	No		-1.01094752736882				ShowResult	Loss
18.0	1	275.423	0.02	350.845	10.49	5.24	25.8599	6.787	955.0	2.8	Outcome2	11.5	10.49	0.0	No		-1.01094752736882				ISITrial	Loss
19.0	1	282.226	0.016	357.648	1.9	-1.0	26.0974	3.0	955.0	1.2	Outcome1	1.9	-4.76	0.0	No	2.0	6.657984144960361	1.715	283.941		GetAnswer	Mixed
19.0	1	283.965	0.024	359.387	1.9	-1.0	26.0974	4.0	955.0	1.2	Outcome1	1.9	-4.76	0.0	No		6.657984144960361				ShowChoice	Mixed
19.0	1	287.977	0.012	363.399	1.9	-1.0	26.0974	1.0	955.0	1.2	Outcome1	1.9	-4.76	0.0	No		6.657984144960361				ShowResult	Mixed
19.0	1	288.997	0.02	364.419	1.9	-1.0	26.0974	2.0	955.0	1.2	Outcome1	1.9	-4.76	0.0	No		6.657984144960361				ISITrial	Mixed
20.0	1	291.019	0.022	366.441	-1.5	-5.0	25.9099	3.0	955.0	0.2	Outcome1	-1.5	-8.36	2921.25	Yes	2.0	6.86070215175538	2.529	293.548		GetAnswer	Mixed
20.0	1	293.56	0.012	368.982	-1.5	-5.0	25.9099	4.0	955.0	0.2	Outcome1	-1.5	-8.36	2921.25	Yes		6.86070215175538				ShowChoice	Mixed
20.0	1	297.572	0.012	372.994	-1.5	-5.0	25.9099	1.0	955.0	0.2	Outcome1	-1.5	-8.36	2921.25	Yes		6.86070215175538				ShowResult	Mixed
20.0	1	298.592	0.02	374.014	-1.5	-5.0	25.9099	8.0	955.0	0.2	Outcome1	-1.5	-8.36	2921.25	Yes		6.86070215175538				ISITrial	Mixed
20.0	1	309.558	0.021	384.98	-1.5	-5.0	25.9099	2.456	955.0	0.2	Outcome1	-1.5	-8.36	2921.25	Yes		6.86070215175538			764.0	TrialHappiness	Mixed
20.0	1	313.57	4.012	388.992	-1.5	-5.0	25.9099	3.685	955.0	0.2	Outcome1	-1.5	-8.36	2921.25	Yes		6.86070215175538				ISIRate	Mixed
21.0	1	317.281	0.026	392.703	9.19	4.6	27.0587	3.0	955.0	5.0	Outcome2	10.3	9.19	0.0	No	2.0	-1.1103246508116298	1.553	318.834		GetAnswer	Gain
21.0	1	318.853	0.019	394.275	9.19	4.6	27.0587	4.0	955.0	5.0	Outcome2	10.3	9.19	0.0	No		-1.1103246508116298				ShowChoice	Gain
21.0	1	322.865	0.012	398.287	9.19	4.6	27.0587	1.0	955.0	5.0	Outcome2	10.3	9.19	0.0	No		-1.1103246508116298				ShowResult	Gain
21.0	1	323.884	0.019	399.306	9.19	4.6	27.0587	3.555	955.0	5.0	Outcome2	10.3	9.19	0.0	No		-1.1103246508116298				ISITrial	Gain
22.0	1	327.462	0.023	402.884	9.57	4.78	28.2549	3.0	955.0	1.82	Outcome1	9.57	10.7	3219.5	Yes	2.0	-1.1283503208758001	1.235	328.697		GetAnswer	Loss
22.0	1	328.715	0.018	404.137	9.57	4.78	28.2549	4.0	955.0	1.82	Outcome1	9.57	10.7	3219.5	Yes		-1.1283503208758001				ShowChoice	Loss
22.0	1	332.727	0.012	408.149	9.57	4.78	28.2549	1.0	955.0	1.82	Outcome1	9.57	10.7	3219.5	Yes		-1.1283503208758001				ShowResult	Loss
22.0	1	333.747	0.02	409.169	9.57	4.78	28.2549	6.793	955.0	1.82	Outcome1	9.57	10.7	3219.5	Yes		-1.1283503208758001				ISITrial	Loss
22.0	1	343.794	0.023	419.216	9.57	4.78	28.2549	1.109	955.0	1.82	Outcome1	9.57	10.7	3219.5	Yes		-1.1283503208758001			776.0	TrialHappiness	Loss
22.0	1	347.806	4.012	423.228	9.57	4.78	28.2549	4.878	955.0	1.82	Outcome1	9.57	10.7	3219.5	Yes		-1.1283503208758001				ISIRate	Loss
23.0	1	352.704	0.02	428.126	5.5	2.0	28.9424	3.0	955.0	2.8	Outcome1	5.5	-2.0	0.0	No	2.0	7.496036240090599	1.551	354.255		GetAnswer	Gain
23.0	1	354.275	0.02	429.697	5.5	2.0	28.9424	4.0	955.0	2.8	Outcome1	5.5	-2.0	0.0	No		7.496036240090599				ShowChoice	Gain
23.0	1	358.287	0.012	433.709	5.5	2.0	28.9424	1.0	955.0	2.8	Outcome1	5.5	-2.0	0.0	No		7.496036240090599				ShowResult	Gain
23.0	1	359.307	0.02	434.729	5.5	2.0	28.9424	8.0	955.0	2.8	Outcome1	5.5	-2.0	0.0	No		7.496036240090599				ISITrial	Gain
24.0	1	367.331	0.024	442.753	10.1	1.2	30.2049	3.0	955.0	4.2	Outcome2	2.4	10.1	3255.0	Yes	2.0	7.6987542468856205	1.208	368.539		GetAnswer	Gain
24.0	1	368.568	0.029	443.99	10.1	1.2	30.2049	4.0	955.0	4.2	Outcome2	2.4	10.1	3255.0	Yes		7.6987542468856205				ShowChoice	Gain
24.0	1	372.58	0.012	448.002	10.1	1.2	30.2049	1.0	955.0	4.2	Outcome2	2.4	10.1	3255.0	Yes		7.6987542468856205				ShowResult	Gain
24.0	1	373.6	0.02	449.022	10.1	1.2	30.2049	2.0	955.0	4.2	Outcome2	2.4	10.1	3255.0	Yes		7.6987542468856205				ISITrial	Gain
24.0	1	378.899	0.022	454.321	10.1	1.2	30.2049	3.906	955.0	4.2	Outcome2	2.4	10.1	3255.0	Yes		7.6987542468856205			760.0	TrialHappiness	Gain
24.0	1	382.928	4.029	458.35	10.1	1.2	30.2049	5.02	955.0	4.2	Outcome2	2.4	10.1	3255.0	Yes		7.6987542468856205				ISIRate	Gain
25.0	1	387.976	0.028	463.398	2.0	2.0	30.4549	3.0	955.0	4.2	Certain	-2.07	6.1	0.0	No	4.0	8.17327293318233	2.035	390.011		GetAnswer	Gain
25.0	1	390.032	0.021	465.454	2.0	2.0	30.4549	4.0	955.0	4.2	Certain	-2.07	6.1	0.0	No		8.17327293318233				ShowChoice	Gain
25.0	1	394.061	0.029	469.483	2.0	2.0	30.4549	1.0	955.0	4.2	Certain	-2.07	6.1	0.0	No		8.17327293318233				ShowResult	Gain
25.0	1	395.081	0.02	470.503	2.0	2.0	30.4549	3.749	955.0	4.2	Certain	-2.07	6.1	0.0	No		8.17327293318233				ISITrial	Gain
26.0	1	398.859	0.029	474.281	13.7	2.66	32.1674	3.0	955.0	3.16	Outcome1	13.7	5.31	0.0	No	2.0	8.39411098527746	1.061	399.92		GetAnswer	Loss
26.0	1	399.945	0.025	475.367	13.7	2.66	32.1674	4.0	955.0	3.16	Outcome1	13.7	5.31	0.0	No		8.39411098527746				ShowChoice	Loss
26.0	1	403.974	0.029	479.396	13.7	2.66	32.1674	1.0	955.0	3.16	Outcome1	13.7	5.31	0.0	No		8.39411098527746				ShowResult	Loss
26.0	1	404.994	0.02	480.416	13.7	2.66	32.1674	7.834	955.0	3.16	Outcome1	13.7	5.31	0.0	No		8.39411098527746				ISITrial	Loss
27.0	1	412.851	0.023	488.273	11.47	5.74	33.6012	3.0	955.0	1.82	Outcome2	12.7	11.47	2549.75	Yes	2.0	-1.23320120800302	1.274	414.125		GetAnswer	Loss
27.0	1	414.154	0.029	489.576	11.47	5.74	33.6012	4.0	955.0	1.82	Outcome2	12.7	11.47	2549.75	Yes		-1.23320120800302				ShowChoice	Loss
27.0	1	418.183	0.029	493.605	11.47	5.74	33.6012	1.0	955.0	1.82	Outcome2	12.7	11.47	2549.75	Yes		-1.23320120800302				ShowResult	Loss
27.0	1	419.203	0.02	494.625	11.47	5.74	33.6012	4.225	955.0	1.82	Outcome2	12.7	11.47	2549.75	Yes		-1.23320120800302				ISITrial	Loss
27.0	1	426.023	0.024	501.445	11.47	5.74	33.6012	2.097	955.0	1.82	Outcome2	12.7	11.47	2549.75	Yes		-1.23320120800302			784.0	TrialHappiness	Loss
27.0	1	430.052	4.029	505.474	11.47	5.74	33.6012	2.199	955.0	1.82	Outcome2	12.7	11.47	2549.75	Yes		-1.23320120800302				ISIRate	Loss
	1	432.275	0.024	507.697				-0.001								{SPACE}		92.01	524.285		Rest	
	1	524.301	0.016	599.723				4.0													BlockHappyPreview	
	1	528.313	0.012	603.735				3.782												704.0	BlockStartHappiness	
	1	536.554	0.013	611.976				-0.001								5.0		2.054	538.608		ScanWait	
	2	0.019	0.019	614.049				10.0													GetReady	
28.0	2	10.049	0.03	624.079	-11.68	-6.0	32.1412	3.0	70.0	0.52	Outcome1	-11.68	-0.9	0.0	No	2.0	-10.7823129251701	2.582	12.631		GetAnswer	Mixed
28.0	2	12.657	0.026	626.687	-11.68	-6.0	32.1412	4.0	70.0	0.52	Outcome1	-11.68	-0.9	0.0	No		-10.7823129251701				ShowChoice	Mixed
28.0	2	16.669	0.012	630.699	-11.68	-6.0	32.1412	1.0	70.0	0.52	Outcome1	-11.68	-0.9	0.0	No		-10.7823129251701				ShowResult	Mixed
28.0	2	17.689	0.02	631.719	-11.68	-6.0	32.1412	3.575	70.0	0.52	Outcome1	-11.68	-0.9	0.0	No		-10.7823129251701				ISITrial	Mixed
29.0	2	21.283	0.019	635.313	0.0	0.0	32.1412	3.0	70.0	0.4	Certain	-1.92	0.72	3529.0	Yes	4.0	2.63567649281935	2.076	23.359		GetAnswer	Mixed
29.0	2	23.372	0.013	637.402	0.0	0.0	32.1412	4.0	70.0	0.4	Certain	-1.92	0.72	3529.0	Yes		2.63567649281935				ShowChoice	Mixed
29.0	2	27.384	0.012	641.414	0.0	0.0	32.1412	1.0	70.0	0.4	Certain	-1.92	0.72	3529.0	Yes		2.63567649281935				ShowResult	Mixed
29.0	2	28.404	0.02	642.434	0.0	0.0	32.1412	3.955	70.0	0.4	Certain	-1.92	0.72	3529.0	Yes		2.63567649281935				ISITrial	Mixed
29.0	2	35.927	0.015	649.957	0.0	0.0	32.1412	2.208	70.0	0.4	Certain	-1.92	0.72	3529.0	Yes		2.63567649281935			696.0	TrialHappiness	Mixed
29.0	2	39.955	4.028	653.985	0.0	0.0	32.1412	6.116	70.0	0.4	Certain	-1.92	0.72	3529.0	Yes		2.63567649281935				ISIRate	Mixed
30.0	2	46.09	0.019	660.12	-12.18	-6.0	30.6187	3.0	70.0	1.2	Outcome1	-12.18	-0.1	0.0	No	2.0	-12.0839002267574	1.549	47.639		GetAnswer	Mixed
30.0	2	47.662	0.023	661.692	-12.18	-6.0	30.6187	4.0	70.0	1.2	Outcome1	-12.18	-0.1	0.0	No		-12.0839002267574				ShowChoice	Mixed
30.0	2	51.69	0.028	665.72	-12.18	-6.0	30.6187	1.0	70.0	1.2	Outcome1	-12.18	-0.1	0.0	No		-12.0839002267574				ShowResult	Mixed
30.0	2	52.71	0.02	666.74	-12.18	-6.0	30.6187	4.453	70.0	1.2	Outcome1	-12.18	-0.1	0.0	No		-12.0839002267574				ISITrial	Mixed
31.0	2	57.19	0.027	671.22	0.31	0.16	30.6575	3.0	70.0	2.22	Outcome2	13.1	0.31	2503.25	Yes	2.0	-12.793650793650801	1.534	58.724		GetAnswer	Loss
31.0	2	58.745	0.021	672.775	0.31	0.16	30.6575	4.0	70.0	2.22	Outcome2	13.1	0.31	2503.25	Yes		-12.793650793650801				ShowChoice	Loss
31.0	2	62.757	0.012	676.787	0.31	0.16	30.6575	1.0	70.0	2.22	Outcome2	13.1	0.31	2503.25	Yes		-12.793650793650801				ShowResult	Loss
31.0	2	63.777	0.02	677.807	0.31	0.16	30.6575	4.786	70.0	2.22	Outcome2	13.1	0.31	2503.25	Yes		-12.793650793650801				ISITrial	Loss
31.0	2	71.115	0.021	685.145	0.31	0.16	30.6575	2.548	70.0	2.22	Outcome2	13.1	0.31	2503.25	Yes		-12.793650793650801			720.0	TrialHappiness	Loss
31.0	2	75.127	4.012	689.157	0.31	0.16	30.6575	2.013	70.0	2.22	Outcome2	13.1	0.31	2503.25	Yes		-12.793650793650801				ISIRate	Loss
32.0	2	77.167	0.027	691.197	2.98	1.0	31.03	3.0	70.0	3.6	Outcome1	2.98	0.1	0.0	No	2.0	2.87887377173091	1.285	78.452		GetAnswer	Loss
32.0	2	78.471	0.019	692.501	2.98	1.0	31.03	4.0	70.0	3.6	Outcome1	2.98	0.1	0.0	No		2.87887377173091				ShowChoice	Loss
32.0	2	82.483	0.012	696.513	2.98	1.0	31.03	1.0	70.0	3.6	Outcome1	2.98	0.1	0.0	No		2.87887377173091				ShowResult	Loss
32.0	2	83.502	0.019	697.532	2.98	1.0	31.03	2.0	70.0	3.6	Outcome1	2.98	0.1	0.0	No		2.87887377173091				ISITrial	Loss
33.0	2	85.525	0.023	699.555	-14.55	-7.0	29.2112	3.0	70.0	1.5	Outcome2	0.1	-14.55	0.0	No	2.0	-14.648526077097499	1.739	87.264		GetAnswer	Mixed
33.0	2	87.28	0.016	701.31	-14.55	-7.0	29.2112	4.0	70.0	1.5	Outcome2	0.1	-14.55	0.0	No		-14.648526077097499				ShowChoice	Mixed
33.0	2	91.292	0.012	705.322	-14.55	-7.0	29.2112	1.0	70.0	1.5	Outcome2	0.1	-14.55	0.0	No		-14.648526077097499				ShowResult	Mixed
33.0	2	92.312	0.02	706.342	-14.55	-7.0	29.2112	5.099	70.0	1.5	Outcome2	0.1	-14.55	0.0	No		-14.648526077097499				ISITrial	Mixed
34.0	2	97.427	0.016	711.457	1.0	1.0	29.3362	3.0	70.0	3.6	Certain	-0.52	2.48	3231.5	Yes	4.0	3.0017006802721102	2.688	100.115		GetAnswer	Gain
34.0	2	100.135	0.02	714.165	1.0	1.0	29.3362	4.0	70.0	3.6	Certain	-0.52	2.48	3231.5	Yes		3.0017006802721102				ShowChoice	Gain
34.0	2	104.147	0.012	718.177	1.0	1.0	29.3362	1.0	70.0	3.6	Certain	-0.52	2.48	3231.5	Yes		3.0017006802721102				ShowResult	Gain
34.0	2	105.167	0.02	719.197	1.0	1.0	29.3362	4.784	70.0	3.6	Certain	-0.52	2.48	3231.5	Yes		3.0017006802721102				ISITrial	Gain
34.0	2	113.225	0.028	727.255	1.0	1.0	29.3362	0.741	70.0	3.6	Certain	-0.52	2.48	3231.5	Yes		3.0017006802721102			600.0	TrialHappiness	Gain
34.0	2	117.237	4.012	731.267	1.0	1.0	29.3362	4.926	70.0	3.6	Certain	-0.52	2.48	3231.5	Yes		3.0017006802721102				ISIRate	Gain
35.0	2	122.185	0.022	736.215	-7.38	0.0	28.4137	3.0	70.0	1.82	Outcome2	6.7	-7.38	0.0	No	2.0	-14.081632653061199	2.021	124.206		GetAnswer	Gain
35.0	2	124.224	0.018	738.254	-7.38	0.0	28.4137	4.0	70.0	1.82	Outcome2	6.7	-7.38	0.0	No		-14.081632653061199				ShowChoice	Gain
35.0	2	128.236	0.012	742.266	-7.38	0.0	28.4137	1.0	70.0	1.82	Outcome2	6.7	-7.38	0.0	No		-14.081632653061199				ShowResult	Gain
35.0	2	129.256	0.02	743.286	-7.38	0.0	28.4137	2.098	70.0	1.82	Outcome2	6.7	-7.38	0.0	No		-14.081632653061199				ISITrial	Gain
36.0	2	131.379	0.025	745.409	1.82	0.0	28.6412	3.0	70.0	2.48	Outcome2	-0.81	1.82	3335.75	Yes	2.0	2.62566137566138	2.063	133.442		GetAnswer	Gain
36.0	2	133.469	0.027	747.499	1.82	0.0	28.6412	4.0	70.0	2.48	Outcome2	-0.81	1.82	3335.75	Yes		2.62566137566138				ShowChoice	Gain
36.0	2	137.481	0.012	751.511	1.82	0.0	28.6412	1.0	70.0	2.48	Outcome2	-0.81	1.82	3335.75	Yes		2.62566137566138				ShowResult	Gain
36.0	2	138.5	0.019	752.53	1.82	0.0	28.6412	5.156	70.0	2.48	Outcome2	-0.81	1.82	3335.75	Yes		2.62566137566138				ISITrial	Gain
36.0	2	147.043	0.025	761.073	1.82	0.0	28.6412	2.982	70.0	2.48	Outcome2	-0.81	1.82	3335.75	Yes		2.62566137566138			616.0	TrialHappiness	Gain
36.0	2	151.055	4.012	765.085	1.82	0.0	28.6412	5.343	70.0	2.48	Outcome2	-0.81	1.82	3335.75	Yes		2.62566137566138				ISIRate	Gain
37.0	2	156.421	0.023	770.451	2.78	1.0	28.9887	3.0	70.0	2.22	Outcome2	0.04	2.78	0.0	No	2.0	2.7407407407407405	1.178	157.599		GetAnswer	Loss
37.0	2	157.624	0.025	771.654	2.78	1.0	28.9887	4.0	70.0	2.22	Outcome2	0.04	2.78	0.0	No		2.7407407407407405				ShowChoice	Loss
37.0	2	161.636	0.012	775.666	2.78	1.0	28.9887	1.0	70.0	2.22	Outcome2	0.04	2.78	0.0	No		2.7407407407407405				ShowResult	Loss
37.0	2	162.656	0.02	776.686	2.78	1.0	28.9887	3.598	70.0	2.22	Outcome2	0.04	2.78	0.0	No		2.7407407407407405				ISITrial	Loss
38.0	2	166.283	0.029	780.313	0.0	0.0	28.9887	3.0	70.0	2.0	Certain	1.23	-1.56	0.0	No	4.0	2.79232804232804	2.307	168.59		GetAnswer	Gain
38.0	2	168.607	0.017	782.637	0.0	0.0	28.9887	4.0	70.0	2.0	Certain	1.23	-1.56	0.0	No		2.79232804232804				ShowChoice	Gain
38.0	2	172.619	0.012	786.649	0.0	0.0	28.9887	1.0	70.0	2.0	Certain	1.23	-1.56	0.0	No		2.79232804232804				ShowResult	Gain
38.0	2	173.639	0.02	787.669	0.0	0.0	28.9887	4.787	70.0	2.0	Certain	1.23	-1.56	0.0	No		2.79232804232804				ISITrial	Gain
39.0	2	178.453	0.027	792.483	-7.29	1.0	28.0775	3.0	70.0	2.8	Outcome2	9.5	-7.29	2864.25	Yes	2.0	-16.7936507936508	2.5	180.953		GetAnswer	Gain
39.0	2	180.977	0.024	795.007	-7.29	1.0	28.0775	4.0	70.0	2.8	Outcome2	9.5	-7.29	2864.25	Yes		-16.7936507936508				ShowChoice	Gain
39.0	2	184.989	0.012	799.019	-7.29	1.0	28.0775	1.0	70.0	2.8	Outcome2	9.5	-7.29	2864.25	Yes		-16.7936507936508				ShowResult	Gain
39.0	2	186.009	0.02	800.039	-7.29	1.0	28.0775	2.348	70.0	2.8	Outcome2	9.5	-7.29	2864.25	Yes		-16.7936507936508				ISITrial	Gain
39.0	2	191.275	0.028	805.305	-7.29	1.0	28.0775	3.944	70.0	2.8	Outcome2	9.5	-7.29	2864.25	Yes		-16.7936507936508			604.0	TrialHappiness	Gain
39.0	2	195.287	4.012	809.317	-7.29	1.0	28.0775	3.457	70.0	2.8	Outcome2	9.5	-7.29	2864.25	Yes		-16.7936507936508				ISIRate	Gain
40.0	2	198.764	0.02	812.794	-14.91	-6.0	26.2137	3.0	70.0	2.0	Outcome1	-14.91	2.3	0.0	No	2.0	-17.2086167800454	2.072	200.836		GetAnswer	Mixed
40.0	2	200.854	0.018	814.884	-14.91	-6.0	26.2137	4.0	70.0	2.0	Outcome1	-14.91	2.3	0.0	No		-17.2086167800454				ShowChoice	Mixed
40.0	2	204.866	0.012	818.896	-14.91	-6.0	26.2137	1.0	70.0	2.0	Outcome1	-14.91	2.3	0.0	No		-17.2086167800454				ShowResult	Mixed
40.0	2	205.885	0.019	819.915	-14.91	-6.0	26.2137	3.158	70.0	2.0	Outcome1	-14.91	2.3	0.0	No		-17.2086167800454				ISITrial	Mixed
41.0	2	209.061	0.018	823.091	-13.91	-5.0	24.4749	3.0	70.0	1.2	Outcome2	3.9	-13.91	4000.0	Yes	2.0	-17.8140589569161	2.0	211.061		GetAnswer	Mixed
41.0	2	211.084	0.022	825.114	-13.91	-5.0	24.4749	4.0	70.0	1.2	Outcome2	3.9	-13.91	4000.0	Yes		-17.8140589569161				ShowChoice	Mixed
41.0	2	215.096	0.012	829.126	-13.91	-5.0	24.4749	1.0	70.0	1.2	Outcome2	3.9	-13.91	4000.0	Yes		-17.8140589569161				ShowResult	Mixed
41.0	2	216.116	0.02	830.146	-13.91	-5.0	24.4749	4.506	70.0	1.2	Outcome2	3.9	-13.91	4000.0	Yes		-17.8140589569161				ISITrial	Mixed
41.0	2	224.675	0.029	838.705	-13.91	-5.0	24.4749	2.962	70.0	1.2	Outcome2	3.9	-13.91	4000.0	Yes		-17.8140589569161			484.0	TrialHappiness	Mixed
41.0	2	228.687	4.012	842.717	-13.91	-5.0	24.4749	8.0	70.0	1.2	Outcome2	3.9	-13.91	4000.0	Yes		-17.8140589569161				ISIRate	Mixed
42.0	2	236.711	0.024	850.741	2.82	1.0	24.8274	3.0	70.0	2.48	Outcome2	0.36	2.82	0.0	No	2.0	2.46012849584278	1.576	238.287		GetAnswer	Loss
42.0	2	238.299	0.012	852.329	2.82	1.0	24.8274	4.0	70.0	2.48	Outcome2	0.36	2.82	0.0	No		2.46012849584278				ShowChoice	Loss
42.0	2	242.311	0.012	856.341	2.82	1.0	24.8274	1.0	70.0	2.48	Outcome2	0.36	2.82	0.0	No		2.46012849584278				ShowResult	Loss
42.0	2	243.331	0.02	857.361	2.82	1.0	24.8274	6.248	70.0	2.48	Outcome2	0.36	2.82	0.0	No		2.46012849584278				ISITrial	Loss
43.0	2	249.599	0.02	863.629	-12.35	-4.0	23.2836	3.0	70.0	1.68	Outcome2	4.5	-12.35	2775.75	Yes	2.0	-16.8480725623583	1.871	251.47		GetAnswer	Gain
43.0	2	251.488	0.018	865.518	-12.35	-4.0	23.2836	4.0	70.0	1.68	Outcome2	4.5	-12.35	2775.75	Yes		-16.8480725623583				ShowChoice	Gain
43.0	2	255.5	0.012	869.53	-12.35	-4.0	23.2836	1.0	70.0	1.68	Outcome2	4.5	-12.35	2775.75	Yes		-16.8480725623583				ShowResult	Gain
43.0	2	256.52	0.02	870.55	-12.35	-4.0	23.2836	4.596	70.0	1.68	Outcome2	4.5	-12.35	2775.75	Yes		-16.8480725623583				ISITrial	Gain
43.0	2	263.926	0.016	877.956	-12.35	-4.0	23.2836	3.477	70.0	1.68	Outcome2	4.5	-12.35	2775.75	Yes		-16.8480725623583			448.0	TrialHappiness	Gain
43.0	2	267.938	4.012	881.968	-12.35	-4.0	23.2836	3.103	70.0	1.68	Outcome2	4.5	-12.35	2775.75	Yes		-16.8480725623583				ISIRate	Gain
44.0	2	271.064	0.023	885.094	-10.81	-2.0	21.9324	3.0	70.0	3.6	Outcome1	-10.81	5.9	0.0	No	2.0	-16.7052154195011	2.152	273.216		GetAnswer	Gain
44.0	2	273.237	0.021	887.267	-10.81	-2.0	21.9324	4.0	70.0	3.6	Outcome1	-10.81	5.9	0.0	No		-16.7052154195011				ShowChoice	Gain
44.0	2	277.249	0.012	891.279	-10.81	-2.0	21.9324	1.0	70.0	3.6	Outcome1	-10.81	5.9	0.0	No		-16.7052154195011				ShowResult	Gain
44.0	2	278.269	0.02	892.299	-10.81	-2.0	21.9324	2.42	70.0	3.6	Outcome1	-10.81	5.9	0.0	No		-16.7052154195011				ISITrial	Gain
45.0	2	280.709	0.02	894.739	2.0	2.0	22.1824	3.0	70.0	1.68	Certain	-6.63	10.5	0.0	No	4.0	-17.1337868480726	1.098	281.807		GetAnswer	Loss
45.0	2	281.829	0.022	895.859	2.0	2.0	22.1824	4.0	70.0	1.68	Certain	-6.63	10.5	0.0	No		-17.1337868480726				ShowChoice	Loss
45.0	2	285.841	0.012	899.871	2.0	2.0	22.1824	1.0	70.0	1.68	Certain	-6.63	10.5	0.0	No		-17.1337868480726				ShowResult	Loss
45.0	2	286.861	0.02	900.891	2.0	2.0	22.1824	3.144	70.0	1.68	Certain	-6.63	10.5	0.0	No		-17.1337868480726				ISITrial	Loss
46.0	2	290.02	0.015	904.05	1.08	0.0	22.3174	3.0	70.0	2.0	Outcome1	1.08	-1.38	3841.25	Yes	2.0	2.4635298563870003	2.223	292.243		GetAnswer	Mixed
46.0	2	292.261	0.018	906.291	1.08	0.0	22.3174	4.0	70.0	2.0	Outcome1	1.08	-1.38	3841.25	Yes		2.4635298563870003				ShowChoice	Mixed
46.0	2	296.273	0.012	910.303	1.08	0.0	22.3174	1.0	70.0	2.0	Outcome1	1.08	-1.38	3841.25	Yes		2.4635298563870003				ShowResult	Mixed
46.0	2	297.292	0.019	911.322	1.08	0.0	22.3174	2.246	70.0	2.0	Outcome1	1.08	-1.38	3841.25	Yes		2.4635298563870003				ISITrial	Mixed
46.0	2	303.411	0.021	917.441	1.08	0.0	22.3174	0.0	70.0	2.0	Outcome1	1.08	-1.38	3841.25	Yes		2.4635298563870003			512.0	TrialHappiness	Mixed
46.0	2	307.423	4.012	921.453	1.08	0.0	22.3174	7.365	70.0	2.0	Outcome1	1.08	-1.38	3841.25	Yes		2.4635298563870003				ISIRate	Mixed
47.0	2	314.811	0.023	928.841	-11.98	-2.0	20.8199	3.0	70.0	2.22	Outcome1	-11.98	7.1	0.0	No	2.0	-19.0793650793651	1.521	316.332		GetAnswer	Gain
47.0	2	316.349	0.017	930.379	-11.98	-2.0	20.8199	4.0	70.0	2.22	Outcome1	-11.98	7.1	0.0	No		-19.0793650793651				ShowChoice	Gain
47.0	2	320.361	0.012	934.391	-11.98	-2.0	20.8199	1.0	70.0	2.22	Outcome1	-11.98	7.1	0.0	No		-19.0793650793651				ShowResult	Gain
47.0	2	321.381	0.02	935.411	-11.98	-2.0	20.8199	2.0	70.0	2.22	Outcome1	-11.98	7.1	0.0	No		-19.0793650793651				ISITrial	Gain
48.0	2	323.404	0.023	937.434	-8.0	-8.0	19.8199	3.0	70.0	0.66	Certain	-18.28	1.3	2831.75	Yes	4.0	-19.5804988662132	1.749	325.153		GetAnswer	Mixed
48.0	2	325.176	0.023	939.206	-8.0	-8.0	19.8199	4.0	70.0	0.66	Certain	-18.28	1.3	2831.75	Yes		-19.5804988662132				ShowChoice	Mixed
48.0	2	329.188	0.012	943.218	-8.0	-8.0	19.8199	1.0	70.0	0.66	Certain	-18.28	1.3	2831.75	Yes		-19.5804988662132				ShowResult	Mixed
48.0	2	330.207	0.019	944.237	-8.0	-8.0	19.8199	3.692	70.0	0.66	Certain	-18.28	1.3	2831.75	Yes		-19.5804988662132				ISITrial	Mixed
48.0	2	336.777	0.026	950.807	-8.0	-8.0	19.8199	1.635	70.0	0.66	Certain	-18.28	1.3	2831.75	Yes		-19.5804988662132			372.0	TrialHappiness	Mixed
48.0	2	340.789	4.012	954.819	-8.0	-8.0	19.8199	3.327	70.0	0.66	Certain	-18.28	1.3	2831.75	Yes		-19.5804988662132				ISIRate	Mixed
49.0	2	344.132	0.016	958.162	-0.18	-1.0	19.7974	3.0	70.0	0.66	Outcome1	-0.18	-2.45	0.0	No	2.0	2.2739984882842	2.96	347.092		GetAnswer	Mixed
49.0	2	347.108	0.016	961.138	-0.18	-1.0	19.7974	4.0	70.0	0.66	Outcome1	-0.18	-2.45	0.0	No		2.2739984882842				ShowChoice	Mixed
49.0	2	351.12	0.012	965.15	-0.18	-1.0	19.7974	1.0	70.0	0.66	Outcome1	-0.18	-2.45	0.0	No		2.2739984882842				ShowResult	Mixed
49.0	2	352.14	0.02	966.17	-0.18	-1.0	19.7974	8.0	70.0	0.66	Outcome1	-0.18	-2.45	0.0	No		2.2739984882842				ISITrial	Mixed
50.0	2	360.164	0.024	974.194	-8.34	0.0	18.7549	3.0	70.0	3.16	Outcome2	9.7	-8.34	3547.25	Yes	2.0	-18.0430839002268	2.971	363.135		GetAnswer	Gain
50.0	2	363.156	0.021	977.186	-8.34	0.0	18.7549	4.0	70.0	3.16	Outcome2	9.7	-8.34	3547.25	Yes		-18.0430839002268				ShowChoice	Gain
50.0	2	367.168	0.012	981.198	-8.34	0.0	18.7549	1.0	70.0	3.16	Outcome2	9.7	-8.34	3547.25	Yes		-18.0430839002268				ShowResult	Gain
50.0	2	368.188	0.02	982.218	-8.34	0.0	18.7549	7.537	70.0	3.16	Outcome2	9.7	-8.34	3547.25	Yes		-18.0430839002268				ISITrial	Gain
50.0	2	379.321	0.03	993.351	-8.34	0.0	18.7549	2.911	70.0	3.16	Outcome2	9.7	-8.34	3547.25	Yes	4{-4}4{-4}	-18.0430839002268	2.911	382.232	404.0	TrialHappiness	Gain
50.0	2	383.333	4.012	997.363	-8.34	0.0	18.7549	6.189	70.0	3.16	Outcome2	9.7	-8.34	3547.25	Yes		-18.0430839002268				ISIRate	Gain
51.0	2	389.552	0.03	1003.582	0.0	0.0	18.7549	3.0	70.0	2.22	Certain	9.1	-9.83	0.0	No	4.0	-18.9297052154195	2.466	392.018		GetAnswer	Gain
51.0	2	392.043	0.025	1006.073	0.0	0.0	18.7549	4.0	70.0	2.22	Certain	9.1	-9.83	0.0	No		-18.9297052154195				ShowChoice	Gain
51.0	2	396.055	0.012	1010.085	0.0	0.0	18.7549	1.0	70.0	2.22	Certain	9.1	-9.83	0.0	No		-18.9297052154195				ShowResult	Gain
51.0	2	397.074	0.019	1011.104	0.0	0.0	18.7549	5.508	70.0	2.22	Certain	9.1	-9.83	0.0	No		-18.9297052154195				ISITrial	Gain
52.0	2	402.607	0.025	1016.637	-19.81	-10.0	16.2786	3.0	70.0	0.82	Outcome1	-19.81	-0.5	0.0	No		-19.3083900226757				GetAnswer	Mixed
52.0	2	405.633	0.026	1019.663	-19.81	-10.0	16.2786	4.0	70.0	0.82	Outcome1	-19.81	-0.5	0.0	No		-19.3083900226757				ShowChoice	Mixed
52.0	2	409.645	0.012	1023.675	-19.81	-10.0	16.2786	1.0	70.0	0.82	Outcome1	-19.81	-0.5	0.0	No		-19.3083900226757				ShowResult	Mixed
52.0	2	410.665	0.02	1024.695	-19.81	-10.0	16.2786	5.913	70.0	0.82	Outcome1	-19.81	-0.5	0.0	No		-19.3083900226757				ISITrial	Mixed
53.0	2	416.599	0.021	1030.629	-10.39	0.0	14.9798	3.0	70.0	2.48	Outcome2	9.3	-10.39	2996.75	Yes	2.0	-19.687074829932	1.964	418.563		GetAnswer	Gain
53.0	2	418.589	0.026	1032.619	-10.39	0.0	14.9798	4.0	70.0	2.48	Outcome2	9.3	-10.39	2996.75	Yes		-19.687074829932				ShowChoice	Gain
53.0	2	422.601	0.012	1036.631	-10.39	0.0	14.9798	1.0	70.0	2.48	Outcome2	9.3	-10.39	2996.75	Yes		-19.687074829932				ShowResult	Gain
53.0	2	423.62	0.019	1037.65	-10.39	0.0	14.9798	3.66	70.0	2.48	Outcome2	9.3	-10.39	2996.75	Yes		-19.687074829932				ISITrial	Gain
53.0	2	430.324	0.029	1044.354	-10.39	0.0	14.9798	0.758	70.0	2.48	Outcome2	9.3	-10.39	2996.75	Yes		-19.687074829932			336.0	TrialHappiness	Gain
53.0	2	434.336	4.012	1048.366	-10.39	0.0	14.9798	3.987	70.0	2.48	Outcome2	9.3	-10.39	2996.75	Yes		-19.687074829932				ISIRate	Gain
54.0	2	438.348	0.025	1052.378	-17.21	-8.0	12.8286	3.0	70.0	1.0	Outcome2	1.7	-17.21	0.0	No	2.0	-18.9092970521542	2.193	440.541		GetAnswer	Mixed
54.0	2	440.554	0.013	1054.584	-17.21	-8.0	12.8286	4.0	70.0	1.0	Outcome2	1.7	-17.21	0.0	No		-18.9092970521542				ShowChoice	Mixed
54.0	2	444.566	0.012	1058.596	-17.21	-8.0	12.8286	1.0	70.0	1.0	Outcome2	1.7	-17.21	0.0	No		-18.9092970521542				ShowResult	Mixed
54.0	2	445.586	0.02	1059.616	-17.21	-8.0	12.8286	8.0	70.0	1.0	Outcome2	1.7	-17.21	0.0	No		-18.9092970521542				ISITrial	Mixed
	2	453.61	0.024	1067.64				-0.001								{SPACE}		69.272	522.882		Rest	
	2	522.901	0.019	1136.931				4.0													BlockHappyPreview	
	2	526.913	0.012	1140.943				3.867												448.0	BlockStartHappiness	
	2	535.388	0.01	1149.418				-0.001								5.0		2.882	538.27		ScanWait	
	3	0.01	0.01	1152.31				10.0													GetReady	
55.0	3	10.024	0.014	1162.324	8.9	0.14	13.9411	3.0	955.0	2.0	Outcome2	0.29	8.9	2533.25	Yes	2.0	8.61268403171008	1.222	11.246		GetAnswer	Gain
55.0	3	11.261	0.015	1163.561	8.9	0.14	13.9411	4.0	955.0	2.0	Outcome2	0.29	8.9	2533.25	Yes		8.61268403171008				ShowChoice	Gain
55.0	3	15.273	0.012	1167.573	8.9	0.14	13.9411	1.0	955.0	2.0	Outcome2	0.29	8.9	2533.25	Yes		8.61268403171008				ShowResult	Gain
55.0	3	16.292	0.019	1168.592	8.9	0.14	13.9411	7.709	955.0	2.0	Outcome2	0.29	8.9	2533.25	Yes		8.61268403171008				ISITrial	Gain
55.0	3	26.573	0.025	1178.873	8.9	0.14	13.9411	0.0	955.0	2.0	Outcome2	0.29	8.9	2533.25	Yes		8.61268403171008			512.0	TrialHappiness	Gain
55.0	3	30.585	4.012	1182.885	8.9	0.14	13.9411	2.133	955.0	2.0	Outcome2	0.29	8.9	2533.25	Yes		8.61268403171008				ISIRate	Gain
56.0	3	32.742	0.024	1185.042	10.65	5.32	15.2723	3.0	955.0	1.68	Outcome1	10.65	12.5	0.0	No	2.0	-1.84560211400529	1.321	34.063		GetAnswer	Loss
56.0	3	34.079	0.016	1186.379	10.65	5.32	15.2723	4.0	955.0	1.68	Outcome1	10.65	12.5	0.0	No		-1.84560211400529				ShowChoice	Loss
56.0	3	38.091	0.012	1190.391	10.65	5.32	15.2723	1.0	955.0	1.68	Outcome1	10.65	12.5	0.0	No		-1.84560211400529				ShowResult	Loss
56.0	3	39.111	0.02	1191.411	10.65	5.32	15.2723	4.697	955.0	1.68	Outcome1	10.65	12.5	0.0	No		-1.84560211400529				ISITrial	Loss
57.0	3	43.825	0.017	1196.125	8.3	-0.15	16.3098	3.0	955.0	5.0	Outcome1	8.3	-0.3	0.0	No	2.0	8.60135900339751	1.77	45.595		GetAnswer	Gain
57.0	3	45.613	0.018	1197.913	8.3	-0.15	16.3098	4.0	955.0	5.0	Outcome1	8.3	-0.3	0.0	No		8.60135900339751				ShowChoice	Gain
57.0	3	49.625	0.012	1201.925	8.3	-0.15	16.3098	1.0	955.0	5.0	Outcome1	8.3	-0.3	0.0	No		8.60135900339751				ShowResult	Gain
57.0	3	50.645	0.02	1202.945	8.3	-0.15	16.3098	4.291	955.0	5.0	Outcome1	8.3	-0.3	0.0	No		8.60135900339751				ISITrial	Gain
58.0	3	54.958	0.022	1207.258	13.3	2.1	17.9723	3.0	955.0	2.48	Outcome1	13.3	4.2	3045.75	Yes	2.0	9.103057757644391	1.188	56.146		GetAnswer	Loss
58.0	3	56.162	0.016	1208.462	13.3	2.1	17.9723	4.0	955.0	2.48	Outcome1	13.3	4.2	3045.75	Yes		9.103057757644391				ShowChoice	Loss
58.0	3	60.174	0.012	1212.474	13.3	2.1	17.9723	1.0	955.0	2.48	Outcome1	13.3	4.2	3045.75	Yes		9.103057757644391				ShowResult	Loss
58.0	3	61.193	0.019	1213.493	13.3	2.1	17.9723	2.037	955.0	2.48	Outcome1	13.3	4.2	3045.75	Yes		9.103057757644391				ISITrial	Loss
58.0	3	66.325	0.029	1218.625	13.3	2.1	17.9723	2.197	955.0	2.48	Outcome1	13.3	4.2	3045.75	Yes		9.103057757644391			632.0	TrialHappiness	Loss
58.0	3	70.337	4.012	1222.637	13.3	2.1	17.9723	4.183	955.0	2.48	Outcome1	13.3	4.2	3045.75	Yes		9.103057757644391				ISIRate	Loss
59.0	3	74.55	0.03	1226.85	1.5	-2.0	18.1598	3.0	955.0	0.82	Outcome1	1.5	-6.07	0.0	No	2.0	7.566251415628541	2.088	76.638		GetAnswer	Mixed
59.0	3	76.656	0.018	1228.956	1.5	-2.0	18.1598	4.0	955.0	0.82	Outcome1	1.5	-6.07	0.0	No		7.566251415628541				ShowChoice	Mixed
59.0	3	80.668	0.012	1232.968	1.5	-2.0	18.1598	1.0	955.0	0.82	Outcome1	1.5	-6.07	0.0	No		7.566251415628541				ShowResult	Mixed
59.0	3	81.688	0.02	1233.988	1.5	-2.0	18.1598	5.064	955.0	0.82	Outcome1	1.5	-6.07	0.0	No		7.566251415628541				ISITrial	Mixed
60.0	3	86.77	0.018	1239.07	0.0	0.0	18.1598	3.0	955.0	0.2	Certain	-1.01	0.5	3562.5	Yes	4.0	-1.51453378633447	1.743	88.513		GetAnswer	Mixed
60.0	3	88.525	0.012	1240.825	0.0	0.0	18.1598	4.0	955.0	0.2	Certain	-1.01	0.5	3562.5	Yes		-1.51453378633447				ShowChoice	Mixed
60.0	3	92.537	0.012	1244.837	0.0	0.0	18.1598	1.0	955.0	0.2	Certain	-1.01	0.5	3562.5	Yes		-1.51453378633447				ShowResult	Mixed
60.0	3	93.557	0.02	1245.857	0.0	0.0	18.1598	8.0	955.0	0.2	Certain	-1.01	0.5	3562.5	Yes		-1.51453378633447				ISITrial	Mixed
60.0	3	105.158	0.015	1257.458	0.0	0.0	18.1598	0.0	955.0	0.2	Certain	-1.01	0.5	3562.5	Yes		-1.51453378633447			512.0	TrialHappiness	Mixed
60.0	3	109.17	4.012	1261.47	0.0	0.0	18.1598	6.25	955.0	0.2	Certain	-1.01	0.5	3562.5	Yes		-1.51453378633447				ISIRate	Mixed
61.0	3	115.439	0.019	1267.739	2.0	2.0	18.4098	3.0	955.0	0.66	Certain	3.3	1.27	0.0	No	4.0	-2.03199320498301	2.173	117.612		GetAnswer	Mixed
61.0	3	117.629	0.017	1269.929	2.0	2.0	18.4098	4.0	955.0	0.66	Certain	3.3	1.27	0.0	No		-2.03199320498301				ShowChoice	Mixed
61.0	3	121.641	0.012	1273.941	2.0	2.0	18.4098	1.0	955.0	0.66	Certain	3.3	1.27	0.0	No		-2.03199320498301				ShowResult	Mixed
61.0	3	122.661	0.02	1274.961	2.0	2.0	18.4098	4.586	955.0	0.66	Certain	3.3	1.27	0.0	No		-2.03199320498301				ISITrial	Mixed
62.0	3	127.275	0.028	1279.575	2.1	-3.0	18.6723	3.0	955.0	1.5	Outcome1	2.1	-8.74	3748.75	Yes	2.0	10.8380520951302	2.01	129.285		GetAnswer	Mixed
62.0	3	129.297	0.012	1281.597	2.1	-3.0	18.6723	4.0	955.0	1.5	Outcome1	2.1	-8.74	3748.75	Yes		10.8380520951302				ShowChoice	Mixed
62.0	3	133.309	0.012	1285.609	2.1	-3.0	18.6723	1.0	955.0	1.5	Outcome1	2.1	-8.74	3748.75	Yes		10.8380520951302				ShowResult	Mixed
62.0	3	134.329	0.02	1286.629	2.1	-3.0	18.6723	5.212	955.0	1.5	Outcome1	2.1	-8.74	3748.75	Yes		10.8380520951302				ISITrial	Mixed
62.0	3	143.339	0.029	1295.639	2.1	-3.0	18.6723	3.167	955.0	1.5	Outcome1	2.1	-8.74	3748.75	Yes		10.8380520951302			612.0	TrialHappiness	Mixed
62.0	3	147.351	4.012	1299.651	2.1	-3.0	18.6723	6.995	955.0	1.5	Outcome1	2.1	-8.74	3748.75	Yes		10.8380520951302				ISIRate	Mixed
63.0	3	154.372	0.026	1306.672	4.7	0.0	19.2598	3.0	955.0	1.82	Outcome2	-4.94	4.7	0.0	No	2.0	9.64099660249151	2.167	156.539		GetAnswer	Gain
63.0	3	156.562	0.023	1308.862	4.7	0.0	19.2598	4.0	955.0	1.82	Outcome2	-4.94	4.7	0.0	No		9.64099660249151				ShowChoice	Gain
63.0	3	160.574	0.012	1312.874	4.7	0.0	19.2598	1.0	955.0	1.82	Outcome2	-4.94	4.7	0.0	No		9.64099660249151				ShowResult	Gain
63.0	3	161.594	0.02	1313.894	4.7	0.0	19.2598	5.595	955.0	1.82	Outcome2	-4.94	4.7	0.0	No		9.64099660249151				ISITrial	Gain
64.0	3	167.211	0.022	1319.511	1.96	0.98	19.5048	3.0	955.0	1.0	Outcome1	1.96	3.7	0.0	No	2.0	-1.74216685541714	1.57	168.781		GetAnswer	Mixed
64.0	3	168.799	0.018	1321.099	1.96	0.98	19.5048	4.0	955.0	1.0	Outcome1	1.96	3.7	0.0	No		-1.74216685541714				ShowChoice	Mixed
64.0	3	172.811	0.012	1325.111	1.96	0.98	19.5048	1.0	955.0	1.0	Outcome1	1.96	3.7	0.0	No		-1.74216685541714				ShowResult	Mixed
64.0	3	173.831	0.02	1326.131	1.96	0.98	19.5048	5.47	955.0	1.0	Outcome1	1.96	3.7	0.0	No		-1.74216685541714				ISITrial	Mixed
65.0	3	179.33	0.029	1331.63	5.3	0.0	20.1673	3.0	955.0	2.48	Outcome1	5.3	-5.12	2996.75	Yes	2.0	10.4178935447339	1.482	180.812		GetAnswer	Gain
65.0	3	180.835	0.022	1333.135	5.3	0.0	20.1673	4.0	955.0	2.48	Outcome1	5.3	-5.12	2996.75	Yes		10.4178935447339				ShowChoice	Gain
65.0	3	184.847	0.012	1337.147	5.3	0.0	20.1673	1.0	955.0	2.48	Outcome1	5.3	-5.12	2996.75	Yes		10.4178935447339				ShowResult	Gain
65.0	3	185.867	0.02	1338.167	5.3	0.0	20.1673	3.344	955.0	2.48	Outcome1	5.3	-5.12	2996.75	Yes		10.4178935447339				ISITrial	Gain
65.0	3	192.252	0.028	1344.552	5.3	0.0	20.1673	3.668	955.0	2.48	Outcome1	5.3	-5.12	2996.75	Yes		10.4178935447339			736.0	TrialHappiness	Gain
65.0	3	196.264	4.012	1348.564	5.3	0.0	20.1673	3.987	955.0	2.48	Outcome1	5.3	-5.12	2996.75	Yes		10.4178935447339				ISIRate	Gain
66.0	3	200.276	0.025	1352.576	3.1	-1.0	20.5548	3.0	955.0	0.52	Outcome2	-5.6	3.1	0.0	No	2.0	8.69988674971687	2.018	202.294		GetAnswer	Mixed
66.0	3	202.316	0.022	1354.616	3.1	-1.0	20.5548	4.0	955.0	0.52	Outcome2	-5.6	3.1	0.0	No		8.69988674971687				ShowChoice	Mixed
66.0	3	206.328	0.012	1358.628	3.1	-1.0	20.5548	1.0	955.0	0.52	Outcome2	-5.6	3.1	0.0	No		8.69988674971687				ShowResult	Mixed
66.0	3	207.348	0.02	1359.648	3.1	-1.0	20.5548	3.959	955.0	0.52	Outcome2	-5.6	3.1	0.0	No		8.69988674971687				ISITrial	Mixed
67.0	3	211.326	0.019	1363.626	2.0	2.0	20.8048	3.0	955.0	5.0	Certain	6.3	-2.65	2918.5	Yes	4.0	8.947904869762171	2.307	213.633		GetAnswer	Gain
67.0	3	213.65	0.017	1365.95	2.0	2.0	20.8048	4.0	955.0	5.0	Certain	6.3	-2.65	2918.5	Yes		8.947904869762171				ShowChoice	Gain
67.0	3	217.662	0.012	1369.962	2.0	2.0	20.8048	1.0	955.0	5.0	Certain	6.3	-2.65	2918.5	Yes		8.947904869762171				ShowResult	Gain
67.0	3	218.681	0.019	1370.981	2.0	2.0	20.8048	4.199	955.0	5.0	Certain	6.3	-2.65	2918.5	Yes		8.947904869762171				ISITrial	Gain
67.0	3	225.836	0.024	1378.136	2.0	2.0	20.8048	2.682	955.0	5.0	Certain	6.3	-2.65	2918.5	Yes	2{-2}2{-2}2{-2}2{-2}2{-2}2{-2}	8.947904869762171	2.682	228.518	728.0	TrialHappiness	Gain
67.0	3	229.848	4.012	1382.148	2.0	2.0	20.8048	3.674	955.0	5.0	Certain	6.3	-2.65	2918.5	Yes		8.947904869762171				ISIRate	Gain
68.0	3	233.543	0.021	1385.843	1.0	1.0	20.9298	3.0	955.0	3.16	Certain	-3.63	5.7	0.0	No	4.0	9.33182332955832	1.675	235.218		GetAnswer	Gain
68.0	3	235.231	0.013	1387.531	1.0	1.0	20.9298	4.0	955.0	3.16	Certain	-3.63	5.7	0.0	No		9.33182332955832				ShowChoice	Gain
68.0	3	239.243	0.012	1391.543	1.0	1.0	20.9298	1.0	955.0	3.16	Certain	-3.63	5.7	0.0	No		9.33182332955832				ShowResult	Gain
68.0	3	240.263	0.02	1392.563	1.0	1.0	20.9298	2.185	955.0	3.16	Certain	-3.63	5.7	0.0	No		9.33182332955832				ISITrial	Gain
69.0	3	242.469	0.021	1394.769	2.7	-2.0	21.2673	3.0	955.0	0.3	Outcome2	-6.89	2.7	0.0	No	2.0	9.58890147225368	1.391	243.86		GetAnswer	Mixed
69.0	3	243.874	0.014	1396.174	2.7	-2.0	21.2673	4.0	955.0	0.3	Outcome2	-6.89	2.7	0.0	No		9.58890147225368				ShowChoice	Mixed
69.0	3	247.886	0.012	1400.186	2.7	-2.0	21.2673	1.0	955.0	0.3	Outcome2	-6.89	2.7	0.0	No		9.58890147225368				ShowResult	Mixed
69.0	3	248.905	0.019	1401.205	2.7	-2.0	21.2673	2.0	955.0	0.3	Outcome2	-6.89	2.7	0.0	No		9.58890147225368				ISITrial	Mixed
70.0	3	250.928	0.023	1403.228	7.9	-0.98	22.2548	3.0	955.0	3.6	Outcome2	-1.95	7.9	3651.25	Yes	2.0	9.845979614949039	1.264	252.192		GetAnswer	Gain
70.0	3	252.215	0.023	1404.515	7.9	-0.98	22.2548	4.0	955.0	3.6	Outcome2	-1.95	7.9	3651.25	Yes		9.845979614949039				ShowChoice	Gain
70.0	3	256.227	0.012	1408.527	7.9	-0.98	22.2548	1.0	955.0	3.6	Outcome2	-1.95	7.9	3651.25	Yes		9.845979614949039				ShowResult	Gain
70.0	3	257.247	0.02	1409.547	7.9	-0.98	22.2548	2.623	955.0	3.6	Outcome2	-1.95	7.9	3651.25	Yes		9.845979614949039				ISITrial	Gain
70.0	3	263.566	0.027	1415.866	7.9	-0.98	22.2548	2.394	955.0	3.6	Outcome2	-1.95	7.9	3651.25	Yes		9.845979614949039			764.0	TrialHappiness	Gain
70.0	3	267.578	4.012	1419.878	7.9	-0.98	22.2548	6.605	955.0	3.6	Outcome2	-1.95	7.9	3651.25	Yes		9.845979614949039				ISIRate	Gain
71.0	3	274.214	0.031	1426.514	1.1	-3.0	22.3923	3.0	955.0	0.52	Outcome2	-8.39	1.1	0.0	No	2.0	9.49150622876557	2.187	276.401		GetAnswer	Mixed
71.0	3	276.421	0.02	1428.721	1.1	-3.0	22.3923	4.0	955.0	0.52	Outcome2	-8.39	1.1	0.0	No		9.49150622876557				ShowChoice	Mixed
71.0	3	280.433	0.012	1432.733	1.1	-3.0	22.3923	1.0	955.0	0.52	Outcome2	-8.39	1.1	0.0	No		9.49150622876557				ShowResult	Mixed
71.0	3	281.453	0.02	1433.753	1.1	-3.0	22.3923	5.499	955.0	0.52	Outcome2	-8.39	1.1	0.0	No		9.49150622876557				ISITrial	Mixed
72.0	3	286.969	0.017	1439.269	7.5	2.0	23.3298	3.0	955.0	2.8	Outcome1	7.5	-2.21	3080.5	Yes	2.0	9.707814269535671	1.496	288.465		GetAnswer	Gain
72.0	3	288.49	0.025	1440.79	7.5	2.0	23.3298	4.0	955.0	2.8	Outcome1	7.5	-2.21	3080.5	Yes		9.707814269535671				ShowChoice	Gain
72.0	3	292.502	0.012	1444.802	7.5	2.0	23.3298	1.0	955.0	2.8	Outcome1	7.5	-2.21	3080.5	Yes		9.707814269535671				ShowResult	Gain
72.0	3	293.522	0.02	1445.822	7.5	2.0	23.3298	5.672	955.0	2.8	Outcome1	7.5	-2.21	3080.5	Yes		9.707814269535671				ISITrial	Gain
72.0	3	302.315	0.029	1454.615	7.5	2.0	23.3298	3.285	955.0	2.8	Outcome1	7.5	-2.21	3080.5	Yes		9.707814269535671			808.0	TrialHappiness	Gain
72.0	3	306.327	4.012	1458.627	7.5	2.0	23.3298	4.322	955.0	2.8	Outcome1	7.5	-2.21	3080.5	Yes		9.707814269535671				ISIRate	Gain
73.0	3	310.674	0.025	1462.974	6.9	2.0	24.1923	3.0	955.0	2.0	Outcome1	6.9	-2.28	0.0	No	2.0	9.176670441676109	1.337	312.011		GetAnswer	Gain
73.0	3	312.028	0.017	1464.328	6.9	2.0	24.1923	4.0	955.0	2.0	Outcome1	6.9	-2.28	0.0	No		9.176670441676109				ShowChoice	Gain
73.0	3	316.04	0.012	1468.34	6.9	2.0	24.1923	1.0	955.0	2.0	Outcome1	6.9	-2.28	0.0	No		9.176670441676109				ShowResult	Gain
73.0	3	317.059	0.019	1469.359	6.9	2.0	24.1923	4.616	955.0	2.0	Outcome1	6.9	-2.28	0.0	No		9.176670441676109				ISITrial	Gain
74.0	3	321.707	0.032	1474.007	-1.1	-6.0	24.0548	3.0	955.0	0.4	Outcome2	-10.44	-1.1	3056.25	Yes	2.0	9.343148357870891	2.285	323.992		GetAnswer	Mixed
74.0	3	324.013	0.021	1476.313	-1.1	-6.0	24.0548	4.0	955.0	0.4	Outcome2	-10.44	-1.1	3056.25	Yes		9.343148357870891				ShowChoice	Mixed
74.0	3	328.025	0.012	1480.325	-1.1	-6.0	24.0548	1.0	955.0	0.4	Outcome2	-10.44	-1.1	3056.25	Yes		9.343148357870891				ShowResult	Mixed
74.0	3	329.045	0.02	1481.345	-1.1	-6.0	24.0548	3.909	955.0	0.4	Outcome2	-10.44	-1.1	3056.25	Yes		9.343148357870891				ISITrial	Mixed
74.0	3	336.049	0.019	1488.349	-1.1	-6.0	24.0548	3.986	955.0	0.4	Outcome2	-10.44	-1.1	3056.25	Yes		9.343148357870891			772.0	TrialHappiness	Mixed
74.0	3	340.061	4.012	1492.361	-1.1	-6.0	24.0548	4.225	955.0	0.4	Outcome2	-10.44	-1.1	3056.25	Yes		9.343148357870891				ISIRate	Mixed
75.0	3	344.308	0.022	1496.608	5.1	0.0	24.6923	3.0	955.0	2.22	Outcome1	5.1	-5.02	0.0	No	2.0	10.1211778029445	1.467	345.775		GetAnswer	Gain
75.0	3	345.795	0.02	1498.095	5.1	0.0	24.6923	4.0	955.0	2.22	Outcome1	5.1	-5.02	0.0	No		10.1211778029445				ShowChoice	Gain
75.0	3	349.807	0.012	1502.107	5.1	0.0	24.6923	1.0	955.0	2.22	Outcome1	5.1	-5.02	0.0	No		10.1211778029445				ShowResult	Gain
75.0	3	350.827	0.02	1503.127	5.1	0.0	24.6923	4.979	955.0	2.22	Outcome1	5.1	-5.02	0.0	No		10.1211778029445				ISITrial	Gain
76.0	3	355.825	0.019	1508.125	3.5	-1.0	25.1298	3.0	955.0	0.82	Outcome1	3.5	-6.83	0.0	No	2.0	10.3284258210646	1.339	357.164		GetAnswer	Mixed
76.0	3	357.179	0.015	1509.479	3.5	-1.0	25.1298	4.0	955.0	0.82	Outcome1	3.5	-6.83	0.0	No		10.3284258210646				ShowChoice	Mixed
76.0	3	361.191	0.012	1513.491	3.5	-1.0	25.1298	1.0	955.0	0.82	Outcome1	3.5	-6.83	0.0	No		10.3284258210646				ShowResult	Mixed
76.0	3	362.211	0.02	1514.511	3.5	-1.0	25.1298	3.931	955.0	0.82	Outcome1	3.5	-6.83	0.0	No		10.3284258210646				ISITrial	Mixed
77.0	3	366.173	0.031	1518.473	13.5	1.48	26.8173	3.0	955.0	2.8	Outcome1	13.5	2.96	4000.0	Yes	2.0	10.5356738391846	1.103	367.276		GetAnswer	Loss
77.0	3	367.293	0.017	1519.593	13.5	1.48	26.8173	4.0	955.0	2.8	Outcome1	13.5	2.96	4000.0	Yes		10.5356738391846				ShowChoice	Loss
77.0	3	371.305	0.012	1523.605	13.5	1.48	26.8173	1.0	955.0	2.8	Outcome1	13.5	2.96	4000.0	Yes		10.5356738391846				ShowResult	Loss
77.0	3	372.325	0.02	1524.625	13.5	1.48	26.8173	7.022	955.0	2.8	Outcome1	13.5	2.96	4000.0	Yes		10.5356738391846				ISITrial	Loss
77.0	3	383.391	0.028	1535.691	13.5	1.48	26.8173	1.98	955.0	2.8	Outcome1	13.5	2.96	4000.0	Yes		10.5356738391846			792.0	TrialHappiness	Loss
77.0	3	387.403	4.012	1539.703	13.5	1.48	26.8173	8.0	955.0	2.8	Outcome1	13.5	2.96	4000.0	Yes		10.5356738391846				ISIRate	Loss
78.0	3	395.427	0.024	1547.727	-1.6	-1.0	26.6173	3.0	955.0	1.0	Outcome2	-0.3	-1.6	0.0	No	2.0	-1.29765949414874	2.495	397.922		GetAnswer	Mixed
78.0	3	397.935	0.013	1550.235	-1.6	-1.0	26.6173	4.0	955.0	1.0	Outcome2	-0.3	-1.6	0.0	No		-1.29765949414874				ShowChoice	Mixed
78.0	3	401.947	0.012	1554.247	-1.6	-1.0	26.6173	1.0	955.0	1.0	Outcome2	-0.3	-1.6	0.0	No		-1.29765949414874				ShowResult	Mixed
78.0	3	402.966	0.019	1555.266	-1.6	-1.0	26.6173	2.078	955.0	1.0	Outcome2	-0.3	-1.6	0.0	No		-1.29765949414874				ISITrial	Mixed
79.0	3	405.073	0.029	1557.373	4.1	-1.0	27.1298	3.0	955.0	1.5	Outcome2	-6.49	4.1	2729.5	Yes	2.0	10.5877689694224	1.467	406.54		GetAnswer	Mixed
79.0	3	406.561	0.021	1558.861	4.1	-1.0	27.1298	4.0	955.0	1.5	Outcome2	-6.49	4.1	2729.5	Yes		10.5877689694224				ShowChoice	Mixed
79.0	3	410.573	0.012	1562.873	4.1	-1.0	27.1298	1.0	955.0	1.5	Outcome2	-6.49	4.1	2729.5	Yes		10.5877689694224				ShowResult	Mixed
79.0	3	411.592	0.019	1563.892	4.1	-1.0	27.1298	3.829	955.0	1.5	Outcome2	-6.49	4.1	2729.5	Yes		10.5877689694224				ISITrial	Mixed
79.0	3	418.195	0.028	1570.495	4.1	-1.0	27.1298	3.083	955.0	1.5	Outcome2	-6.49	4.1	2729.5	Yes		10.5877689694224			768.0	TrialHappiness	Mixed
79.0	3	422.207	4.012	1574.507	4.1	-1.0	27.1298	2.918	955.0	1.5	Outcome2	-6.49	4.1	2729.5	Yes		10.5877689694224				ISIRate	Mixed
80.0	3	425.15	0.025	1577.45	0.0	0.0	27.1298	3.0	955.0	2.48	Certain	-5.88	5.3	0.0	No	4.0	11.1800679501699	2.764	427.914		GetAnswer	Gain
80.0	3	427.924	0.01	1580.224	0.0	0.0	27.1298	4.0	955.0	2.48	Certain	-5.88	5.3	0.0	No		11.1800679501699				ShowChoice	Gain
80.0	3	431.936	0.012	1584.236	0.0	0.0	27.1298	1.0	955.0	2.48	Certain	-5.88	5.3	0.0	No		11.1800679501699				ShowResult	Gain
80.0	3	432.956	0.02	1585.256	0.0	0.0	27.1298	3.336	955.0	2.48	Certain	-5.88	5.3	0.0	No		11.1800679501699				ISITrial	Gain
81.0	3	436.316	0.024	1588.616	0.9	-5.0	27.2423	3.0	955.0	0.4	Outcome1	0.9	-10.49	3923.75	Yes	2.0	11.391845979614901	2.804	439.12		GetAnswer	Mixed
81.0	3	439.141	0.021	1591.441	0.9	-5.0	27.2423	4.0	955.0	0.4	Outcome1	0.9	-10.49	3923.75	Yes		11.391845979614901				ShowChoice	Mixed
81.0	3	443.153	0.012	1595.453	0.9	-5.0	27.2423	1.0	955.0	0.4	Outcome1	0.9	-10.49	3923.75	Yes		11.391845979614901				ShowResult	Mixed
81.0	3	444.173	0.02	1596.473	0.9	-5.0	27.2423	3.919	955.0	0.4	Outcome1	0.9	-10.49	3923.75	Yes		11.391845979614901				ISITrial	Mixed
81.0	3	452.063	0.021	1604.363	0.9	-5.0	27.2423	1.947	955.0	0.4	Outcome1	0.9	-10.49	3923.75	Yes		11.391845979614901			736.0	TrialHappiness	Mixed
81.0	3	456.075	4.012	1608.375	0.9	-5.0	27.2423	7.695	955.0	0.4	Outcome1	0.9	-10.49	3923.75	Yes		11.391845979614901				ISIRate	Mixed
	3	463.799	0.029	1616.099				3.0													CurrentEarnings	
	3	466.824	0.025	1619.124				-0.001								{SPACE}		17.49	484.314		Goodbye	
