trial_number	block	onset	onset_delay	onset_unadjusted	amount_change	certain_amount	current_amount	duration	mood_target	multiplier	outcome	outcome1_amount	outcome2_amount	question_duration	rating	response	rpe	rt	rt_time	slider_response	trial_phase	trial_type
	0	-86.531	0.021	14.29				-0.001								{SPACE}		4.968	-81.563		Welcome	
	0	-81.549	0.014	19.272				5.0													LifeHappyPreview	
	0	-76.517	0.032	24.304				0.877												472.0	LifeHappiness	
	0	-48.768	0.028	52.053				4.0													BlockHappyPreview	
	0	-44.756	0.012	56.065				1.311												536.0	BlockStartHappiness	
	0	-1.426	0.027	99.395				-0.001								5.0					ScanWait	
	1	0.011	0.011	100.832				10.0													GetReady	
1.0	1	10.041	0.03	110.862	-1.8	-1.0	9.775	3.0	955.0	1.2	Outcome1	-1.8	-0.1	0.0	No	2.0	-1.70035862589656	1.909	11.95		GetAnswer	Mixed
1.0	1	11.981	0.031	112.802	-1.8	-1.0	9.775	4.0	955.0	1.2	Outcome1	-1.8	-0.1	0.0	No		-1.70035862589656				ShowChoice	Mixed
1.0	1	16.009	0.028	116.83	-1.8	-1.0	9.775	1.0	955.0	1.2	Outcome1	-1.8	-0.1	0.0	No		-1.70035862589656				ShowResult	Mixed
1.0	1	17.029	0.02	117.85	-1.8	-1.0	9.775	2.431	955.0	1.2	Outcome1	-1.8	-0.1	0.0	No		-1.70035862589656				ISITrial	Mixed
2.0	1	19.486	0.026	120.307	13.3	2.86	11.4375	3.0	955.0	2.48	Outcome2	5.71	13.3	0.0	No	2.0	7.592298980747451	1.189	20.675		GetAnswer	Loss
2.0	1	20.707	0.032	121.528	13.3	2.86	11.4375	4.0	955.0	2.48	Outcome2	5.71	13.3	0.0	No		7.592298980747451				ShowChoice	Loss
2.0	1	24.735	0.028	125.556	13.3	2.86	11.4375	1.0	955.0	2.48	Outcome2	5.71	13.3	0.0	No		7.592298980747451				ShowResult	Loss
2.0	1	25.755	0.02	126.576	13.3	2.86	11.4375	4.568	955.0	2.48	Outcome2	5.71	13.3	0.0	No		7.592298980747451				ISITrial	Loss
3.0	1	30.352	0.029	131.173	8.92	4.46	12.5525	3.0	955.0	1.82	Outcome2	10.7	8.92	2868.0	Yes	2.0	-1.77944507361268	1.366	31.718		GetAnswer	Loss
3.0	1	31.74	0.022	132.561	8.92	4.46	12.5525	4.0	955.0	1.82	Outcome2	10.7	8.92	2868.0	Yes		-1.77944507361268				ShowChoice	Loss
3.0	1	35.768	0.028	136.589	8.92	4.46	12.5525	1.0	955.0	1.82	Outcome2	10.7	8.92	2868.0	Yes		-1.77944507361268				ShowResult	Loss
3.0	1	36.788	0.02	137.609	8.92	4.46	12.5525	3.243	955.0	1.82	Outcome2	10.7	8.92	2868.0	Yes		-1.77944507361268				ISITrial	Loss
3.0	1	42.94	0.024	143.761	8.92	4.46	12.5525	0.924	955.0	1.82	Outcome2	10.7	8.92	2868.0	Yes		-1.77944507361268			688.0	TrialHappiness	Loss
3.0	1	46.969	4.029	147.79	8.92	4.46	12.5525	3.472	955.0	1.82	Outcome2	10.7	8.92	2868.0	Yes		-1.77944507361268				ISIRate	Loss
4.0	1	50.462	0.021	151.283	6.7	3.35	13.39	3.0	955.0	3.6	Outcome1	6.7	7.9	0.0	No	2.0	-1.20215175537939	1.005	51.467		GetAnswer	Gain
4.0	1	51.482	0.014	152.303	6.7	3.35	13.39	4.0	955.0	3.6	Outcome1	6.7	7.9	0.0	No		-1.20215175537939				ShowChoice	Gain
4.0	1	55.511	0.029	156.332	6.7	3.35	13.39	1.0	955.0	3.6	Outcome1	6.7	7.9	0.0	No		-1.20215175537939				ShowResult	Gain
4.0	1	56.53	0.019	157.351	6.7	3.35	13.39	2.011	955.0	3.6	Outcome1	6.7	7.9	0.0	No		-1.20215175537939				ISITrial	Gain
5.0	1	58.57	0.029	159.391	0.87	1.0	13.4988	3.0	955.0	1.5	Outcome2	2.1	0.87	2582.5	Yes	2.0	-1.22734994337486	1.583	60.153		GetAnswer	Mixed
5.0	1	60.175	0.022	160.996	0.87	1.0	13.4988	4.0	955.0	1.5	Outcome2	2.1	0.87	2582.5	Yes		-1.22734994337486				ShowChoice	Mixed
5.0	1	64.203	0.028	165.024	0.87	1.0	13.4988	1.0	955.0	1.5	Outcome2	2.1	0.87	2582.5	Yes		-1.22734994337486				ShowResult	Mixed
5.0	1	65.223	0.02	166.044	0.87	1.0	13.4988	5.129	955.0	1.5	Outcome2	2.1	0.87	2582.5	Yes		-1.22734994337486				ISITrial	Mixed
5.0	1	72.98	0.026	173.801	0.87	1.0	13.4988	2.646	955.0	1.5	Outcome2	2.1	0.87	2582.5	Yes		-1.22734994337486			640.0	TrialHappiness	Mixed
5.0	1	77.008	4.028	177.829	0.87	1.0	13.4988	2.33	955.0	1.5	Outcome2	2.1	0.87	2582.5	Yes		-1.22734994337486				ISIRate	Mixed
6.0	1	79.365	0.027	180.186	-1.3	-5.0	13.3363	3.0	955.0	0.3	Outcome2	-8.68	-1.3	0.0	No	2.0	7.37938844847112	1.491	80.856		GetAnswer	Mixed
6.0	1	80.87	0.014	181.691	-1.3	-5.0	13.3363	4.0	955.0	0.3	Outcome2	-8.68	-1.3	0.0	No		7.37938844847112				ShowChoice	Mixed
6.0	1	84.899	0.029	185.72	-1.3	-5.0	13.3363	1.0	955.0	0.3	Outcome2	-8.68	-1.3	0.0	No		7.37938844847112				ShowResult	Mixed
6.0	1	85.918	0.019	186.739	-1.3	-5.0	13.3363	6.232	955.0	0.3	Outcome2	-8.68	-1.3	0.0	No		7.37938844847112				ISITrial	Mixed
7.0	1	92.17	0.02	192.991	9.1	0.68	14.4738	3.0	955.0	2.22	Outcome1	9.1	1.36	0.0	No	2.0	7.736126840317099	1.364	93.534		GetAnswer	Gain
7.0	1	93.558	0.024	194.379	9.1	0.68	14.4738	4.0	955.0	2.22	Outcome1	9.1	1.36	0.0	No		7.736126840317099				ShowChoice	Gain
7.0	1	97.587	0.029	198.408	9.1	0.68	14.4738	1.0	955.0	2.22	Outcome1	9.1	1.36	0.0	No		7.736126840317099				ShowResult	Gain
7.0	1	98.606	0.019	199.427	9.1	0.68	14.4738	2.305	955.0	2.22	Outcome1	9.1	1.36	0.0	No		7.736126840317099				ISITrial	Gain
8.0	1	100.93	0.019	201.751	-2.0	-2.0	14.2238	3.0	955.0	0.66	Certain	1.3	-6.79	3112.5	Yes	4.0	8.09286523216308	1.577	102.507		GetAnswer	Mixed
8.0	1	102.535	0.028	203.356	-2.0	-2.0	14.2238	4.0	955.0	0.66	Certain	1.3	-6.79	3112.5	Yes		8.09286523216308				ShowChoice	Mixed
8.0	1	106.563	0.028	207.384	-2.0	-2.0	14.2238	1.0	955.0	0.66	Certain	1.3	-6.79	3112.5	Yes		8.09286523216308				ShowResult	Mixed
8.0	1	107.583	0.02	208.404	-2.0	-2.0	14.2238	3.506	955.0	0.66	Certain	1.3	-6.79	3112.5	Yes		8.09286523216308				ISITrial	Mixed
8.0	1	114.253	0.031	215.074	-2.0	-2.0	14.2238	1.159	955.0	0.66	Certain	1.3	-6.79	3112.5	Yes		8.09286523216308			832.0	TrialHappiness	Mixed
8.0	1	118.282	4.029	219.103	-2.0	-2.0	14.2238	4.45	955.0	0.66	Certain	1.3	-6.79	3112.5	Yes		8.09286523216308				ISIRate	Mixed
9.0	1	122.762	0.03	223.583	8.3	1.56	15.2613	3.0	955.0	5.0	Outcome2	3.11	8.3	0.0	No	2.0	5.18799546998868	1.168	123.93		GetAnswer	Gain
9.0	1	123.949	0.019	224.77	8.3	1.56	15.2613	4.0	955.0	5.0	Outcome2	3.11	8.3	0.0	No		5.18799546998868				ShowChoice	Gain
9.0	1	127.977	0.028	228.798	8.3	1.56	15.2613	1.0	955.0	5.0	Outcome2	3.11	8.3	0.0	No		5.18799546998868				ShowResult	Gain
9.0	1	128.997	0.02	229.818	8.3	1.56	15.2613	2.0	955.0	5.0	Outcome2	3.11	8.3	0.0	No		5.18799546998868				ISITrial	Gain
10.0	1	131.02	0.023	231.841	0.0	0.0	15.2613	3.0	955.0	0.4	Certain	2.9	-2.43	4000.0	Yes	4.0	5.3272933182333	1.397	132.417		GetAnswer	Mixed
10.0	1	132.441	0.024	233.262	0.0	0.0	15.2613	4.0	955.0	0.4	Certain	2.9	-2.43	4000.0	Yes		5.3272933182333				ShowChoice	Mixed
10.0	1	136.469	0.028	237.29	0.0	0.0	15.2613	1.0	955.0	0.4	Certain	2.9	-2.43	4000.0	Yes		5.3272933182333				ShowResult	Mixed
10.0	1	137.489	0.02	238.31	0.0	0.0	15.2613	2.0	955.0	0.4	Certain	2.9	-2.43	4000.0	Yes		5.3272933182333				ISITrial	Mixed
10.0	1	143.541	0.029	244.362	0.0	0.0	15.2613	0.724	955.0	0.4	Certain	2.9	-2.43	4000.0	Yes		5.3272933182333			592.0	TrialHappiness	Mixed
10.0	1	147.569	4.028	248.39	0.0	0.0	15.2613	8.0	955.0	0.4	Certain	2.9	-2.43	4000.0	Yes		5.3272933182333				ISIRate	Mixed
11.0	1	155.593	0.024	256.414	0.9	-4.0	15.3738	3.0	955.0	0.4	Outcome2	-8.64	0.9	0.0	No	2.0	9.5436013590034	1.545	157.138		GetAnswer	Mixed
11.0	1	157.165	0.027	257.986	0.9	-4.0	15.3738	4.0	955.0	0.4	Outcome2	-8.64	0.9	0.0	No		9.5436013590034				ShowChoice	Mixed
11.0	1	161.193	0.028	262.014	0.9	-4.0	15.3738	1.0	955.0	0.4	Outcome2	-8.64	0.9	0.0	No		9.5436013590034				ShowResult	Mixed
11.0	1	162.213	0.02	263.034	0.9	-4.0	15.3738	3.324	955.0	0.4	Outcome2	-8.64	0.9	0.0	No		9.5436013590034				ISITrial	Mixed
12.0	1	165.556	0.019	266.377	3.1	-2.0	15.7613	3.0	955.0	0.52	Outcome2	-6.85	3.1	2618.75	Yes	2.0	9.95469988674972	1.32	166.876		GetAnswer	Mixed
12.0	1	166.894	0.018	267.715	3.1	-2.0	15.7613	4.0	955.0	0.52	Outcome2	-6.85	3.1	2618.75	Yes		9.95469988674972				ShowChoice	Mixed
12.0	1	170.922	0.028	271.743	3.1	-2.0	15.7613	1.0	955.0	0.52	Outcome2	-6.85	3.1	2618.75	Yes		9.95469988674972				ShowResult	Mixed
12.0	1	171.942	0.02	272.763	3.1	-2.0	15.7613	6.642	955.0	0.52	Outcome2	-6.85	3.1	2618.75	Yes		9.95469988674972				ISITrial	Mixed
12.0	1	181.253	0.022	282.074	3.1	-2.0	15.7613	1.092	955.0	0.52	Outcome2	-6.85	3.1	2618.75	Yes		9.95469988674972			840.0	TrialHappiness	Mixed
12.0	1	185.282	4.029	286.103	3.1	-2.0	15.7613	2.475	955.0	0.52	Outcome2	-6.85	3.1	2618.75	Yes		9.95469988674972				ISIRate	Mixed
13.0	1	187.79	0.033	288.611	6.08	3.04	16.5213	3.0	955.0	2.0	Outcome2	6.9	6.08	0.0	No	2.0	-0.816628916572292	1.09	188.88		GetAnswer	Gain
13.0	1	188.91	0.03	289.731	6.08	3.04	16.5213	4.0	955.0	2.0	Outcome2	6.9	6.08	0.0	No		-0.816628916572292				ShowChoice	Gain
13.0	1	192.938	0.028	293.759	6.08	3.04	16.5213	1.0	955.0	2.0	Outcome2	6.9	6.08	0.0	No		-0.816628916572292				ShowResult	Gain
13.0	1	193.958	0.02	294.779	6.08	3.04	16.5213	3.48	955.0	2.0	Outcome2	6.9	6.08	0.0	No		-0.816628916572292				ISITrial	Gain
14.0	1	197.468	0.03	298.289	8.5	1.11	17.5838	3.0	955.0	1.68	Outcome1	8.5	2.22	0.0	No	2.0	6.2831257078142695	1.041	198.509		GetAnswer	Gain
14.0	1	198.538	0.029	299.359	8.5	1.11	17.5838	4.0	955.0	1.68	Outcome1	8.5	2.22	0.0	No		6.2831257078142695				ShowChoice	Gain
14.0	1	202.567	0.029	303.388	8.5	1.11	17.5838	1.0	955.0	1.68	Outcome1	8.5	2.22	0.0	No		6.2831257078142695				ShowResult	Gain
14.0	1	203.587	0.02	304.408	8.5	1.11	17.5838	5.019	955.0	1.68	Outcome1	8.5	2.22	0.0	No		6.2831257078142695				ISITrial	Gain
15.0	1	208.635	0.029	309.456	10.06	5.03	18.8413	3.0	955.0	2.0	Outcome1	10.06	10.9	3348.5	Yes	2.0	-0.838335220838052	0.869	209.504		GetAnswer	Loss
15.0	1	209.521	0.017	310.342	10.06	5.03	18.8413	4.0	955.0	2.0	Outcome1	10.06	10.9	3348.5	Yes		-0.838335220838052				ShowChoice	Loss
15.0	1	213.533	0.012	314.354	10.06	5.03	18.8413	1.0	955.0	2.0	Outcome1	10.06	10.9	3348.5	Yes		-0.838335220838052				ShowResult	Loss
15.0	1	214.553	0.02	315.374	10.06	5.03	18.8413	7.614	955.0	2.0	Outcome1	10.06	10.9	3348.5	Yes		-0.838335220838052				ISITrial	Loss
15.0	1	225.569	0.029	326.39	10.06	5.03	18.8413	2.314	955.0	2.0	Outcome1	10.06	10.9	3348.5	Yes		-0.838335220838052			776.0	TrialHappiness	Loss
15.0	1	229.598	4.029	330.419	10.06	5.03	18.8413	5.394	955.0	2.0	Outcome1	10.06	10.9	3348.5	Yes		-0.838335220838052				ISIRate	Loss
16.0	1	235.014	0.022	335.835	3.99	2.0	19.3401	3.0	955.0	2.22	Outcome2	5.1	3.99	0.0	No	2.0	-1.10890902227256	1.015	236.029		GetAnswer	Gain
16.0	1	236.051	0.022	336.872	3.99	2.0	19.3401	4.0	955.0	2.22	Outcome2	5.1	3.99	0.0	No		-1.10890902227256				ShowChoice	Gain
16.0	1	240.079	0.028	340.9	3.99	2.0	19.3401	1.0	955.0	2.22	Outcome2	5.1	3.99	0.0	No		-1.10890902227256				ShowResult	Gain
16.0	1	241.099	0.02	341.92	3.99	2.0	19.3401	3.008	955.0	2.22	Outcome2	5.1	3.99	0.0	No		-1.10890902227256				ISITrial	Gain
17.0	1	244.141	0.034	344.962	5.7	2.0	20.0526	3.0	955.0	3.16	Outcome2	-2.13	5.7	3041.5	Yes	2.0	7.833522083805209	1.287	245.428		GetAnswer	Gain
17.0	1	245.445	0.017	346.266	5.7	2.0	20.0526	4.0	955.0	3.16	Outcome2	-2.13	5.7	3041.5	Yes		7.833522083805209				ShowChoice	Gain
17.0	1	249.474	0.029	350.295	5.7	2.0	20.0526	1.0	955.0	3.16	Outcome2	-2.13	5.7	3041.5	Yes		7.833522083805209				ShowResult	Gain
17.0	1	250.494	0.02	351.315	5.7	2.0	20.0526	3.566	955.0	3.16	Outcome2	-2.13	5.7	3041.5	Yes		7.833522083805209				ISITrial	Gain
17.0	1	257.147	0.017	357.968	5.7	2.0	20.0526	1.142	955.0	3.16	Outcome2	-2.13	5.7	3041.5	Yes		7.833522083805209			864.0	TrialHappiness	Gain
17.0	1	261.159	4.012	361.98	5.7	2.0	20.0526	4.166	955.0	3.16	Outcome2	-2.13	5.7	3041.5	Yes		7.833522083805209				ISIRate	Gain
18.0	1	265.355	0.03	366.176	-1.49	-1.0	19.8664	3.0	955.0	0.66	Outcome1	-1.49	-0.7	0.0	No	2.0	-0.7855794639486601	1.246	266.601		GetAnswer	Mixed
18.0	1	266.625	0.023	367.446	-1.49	-1.0	19.8664	4.0	955.0	0.66	Outcome1	-1.49	-0.7	0.0	No		-0.7855794639486601				ShowChoice	Mixed
18.0	1	270.637	0.012	371.458	-1.49	-1.0	19.8664	1.0	955.0	0.66	Outcome1	-1.49	-0.7	0.0	No		-0.7855794639486601				ShowResult	Mixed
18.0	1	271.657	0.02	372.478	-1.49	-1.0	19.8664	6.787	955.0	0.66	Outcome1	-1.49	-0.7	0.0	No		-0.7855794639486601				ISITrial	Mixed
19.0	1	278.461	0.017	379.282	13.1	3.23	21.5039	3.0	955.0	2.22	Outcome2	6.46	13.1	0.0	No	2.0	6.644394110985281	1.061	279.522		GetAnswer	Loss
19.0	1	279.547	0.025	380.368	13.1	3.23	21.5039	4.0	955.0	2.22	Outcome2	6.46	13.1	0.0	No		6.644394110985281				ShowChoice	Loss
19.0	1	283.559	0.012	384.38	13.1	3.23	21.5039	1.0	955.0	2.22	Outcome2	6.46	13.1	0.0	No		6.644394110985281				ShowResult	Loss
19.0	1	284.579	0.02	385.4	13.1	3.23	21.5039	2.0	955.0	2.22	Outcome2	6.46	13.1	0.0	No		6.644394110985281				ISITrial	Loss
20.0	1	286.602	0.023	387.423	8.1	0.68	22.5164	3.0	955.0	4.2	Outcome2	1.35	8.1	2921.25	Yes	2.0	6.74745186862967	1.088	287.69		GetAnswer	Gain
20.0	1	287.705	0.015	388.526	8.1	0.68	22.5164	4.0	955.0	4.2	Outcome2	1.35	8.1	2921.25	Yes		6.74745186862967				ShowChoice	Gain
20.0	1	291.717	0.012	392.538	8.1	0.68	22.5164	1.0	955.0	4.2	Outcome2	1.35	8.1	2921.25	Yes		6.74745186862967				ShowResult	Gain
20.0	1	292.737	0.02	393.558	8.1	0.68	22.5164	8.0	955.0	4.2	Outcome2	1.35	8.1	2921.25	Yes		6.74745186862967				ISITrial	Gain
20.0	1	303.703	0.021	404.524	8.1	0.68	22.5164	2.334	955.0	4.2	Outcome2	1.35	8.1	2921.25	Yes		6.74745186862967			856.0	TrialHappiness	Gain
20.0	1	307.715	4.012	408.536	8.1	0.68	22.5164	3.685	955.0	4.2	Outcome2	1.35	8.1	2921.25	Yes		6.74745186862967				ISIRate	Gain
21.0	1	311.426	0.026	412.247	13.06	6.53	24.1489	3.0	955.0	3.6	Outcome2	13.9	13.06	0.0	No	2.0	-0.843808984522461	0.932	312.358		GetAnswer	Loss
21.0	1	312.379	0.021	413.2	13.06	6.53	24.1489	4.0	955.0	3.6	Outcome2	13.9	13.06	0.0	No		-0.843808984522461				ShowChoice	Loss
21.0	1	316.391	0.012	417.212	13.06	6.53	24.1489	1.0	955.0	3.6	Outcome2	13.9	13.06	0.0	No		-0.843808984522461				ShowResult	Loss
21.0	1	317.41	0.019	418.231	13.06	6.53	24.1489	3.555	955.0	3.6	Outcome2	13.9	13.06	0.0	No		-0.843808984522461				ISITrial	Loss
22.0	1	320.988	0.023	421.809	9.3	1.1	25.3114	3.0	955.0	2.48	Outcome2	2.2	9.3	3219.5	Yes	2.0	7.098527746319371	0.917	321.905		GetAnswer	Gain
22.0	1	321.924	0.019	422.745	9.3	1.1	25.3114	4.0	955.0	2.48	Outcome2	2.2	9.3	3219.5	Yes		7.098527746319371				ShowChoice	Gain
22.0	1	325.936	0.012	426.757	9.3	1.1	25.3114	1.0	955.0	2.48	Outcome2	2.2	9.3	3219.5	Yes		7.098527746319371				ShowResult	Gain
22.0	1	326.956	0.02	427.777	9.3	1.1	25.3114	6.793	955.0	2.48	Outcome2	2.2	9.3	3219.5	Yes		7.098527746319371				ISITrial	Gain
22.0	1	337.002	0.023	437.823	9.3	1.1	25.3114	1.176	955.0	2.48	Outcome2	2.2	9.3	3219.5	Yes		7.098527746319371			824.0	TrialHappiness	Gain
22.0	1	341.014	4.012	441.835	9.3	1.1	25.3114	4.878	955.0	2.48	Outcome2	2.2	9.3	3219.5	Yes		7.098527746319371				ISIRate	Gain
23.0	1	345.912	0.02	446.733	9.5	0.88	26.4989	3.0	955.0	2.8	Outcome1	9.5	1.75	0.0	No	2.0	7.754246885617219	0.866	346.778		GetAnswer	Gain
23.0	1	346.798	0.02	447.619	9.5	0.88	26.4989	4.0	955.0	2.8	Outcome1	9.5	1.75	0.0	No		7.754246885617219				ShowChoice	Gain
23.0	1	350.81	0.012	451.631	9.5	0.88	26.4989	1.0	955.0	2.8	Outcome1	9.5	1.75	0.0	No		7.754246885617219				ShowResult	Gain
23.0	1	351.83	0.02	452.651	9.5	0.88	26.4989	8.0	955.0	2.8	Outcome1	9.5	1.75	0.0	No		7.754246885617219				ISITrial	Gain
24.0	1	359.854	0.024	460.675	2.5	-1.0	26.8114	3.0	955.0	0.2	Outcome1	2.5	-5.4	3255.0	Yes	2.0	7.90260475651189	1.275	361.129		GetAnswer	Mixed
24.0	1	361.141	0.012	461.962	2.5	-1.0	26.8114	4.0	955.0	0.2	Outcome1	2.5	-5.4	3255.0	Yes		7.90260475651189				ShowChoice	Mixed
24.0	1	365.153	0.012	465.974	2.5	-1.0	26.8114	1.0	955.0	0.2	Outcome1	2.5	-5.4	3255.0	Yes		7.90260475651189				ShowResult	Mixed
24.0	1	366.173	0.02	466.994	2.5	-1.0	26.8114	2.0	955.0	0.2	Outcome1	2.5	-5.4	3255.0	Yes		7.90260475651189				ISITrial	Mixed
24.0	1	371.472	0.021	472.293	2.5	-1.0	26.8114	1.076	955.0	0.2	Outcome1	2.5	-5.4	3255.0	Yes	2{-2}	7.90260475651189	1.076	372.548	840.0	TrialHappiness	Mixed
24.0	1	375.484	4.012	476.305	2.5	-1.0	26.8114	5.02	955.0	0.2	Outcome1	2.5	-5.4	3255.0	Yes		7.90260475651189				ISIRate	Mixed
25.0	1	380.533	0.029	481.354	10.5	1.36	28.1239	3.0	955.0	1.68	Outcome1	10.5	2.72	0.0	No	2.0	7.77916194790487	0.947	381.48		GetAnswer	Loss
25.0	1	381.502	0.022	482.323	10.5	1.36	28.1239	4.0	955.0	1.68	Outcome1	10.5	2.72	0.0	No		7.77916194790487				ShowChoice	Loss
25.0	1	385.514	0.012	486.335	10.5	1.36	28.1239	1.0	955.0	1.68	Outcome1	10.5	2.72	0.0	No		7.77916194790487				ShowResult	Loss
25.0	1	386.534	0.02	487.355	10.5	1.36	28.1239	3.749	955.0	1.68	Outcome1	10.5	2.72	0.0	No		7.77916194790487				ISITrial	Loss
26.0	1	390.312	0.029	491.133	0.94	1.0	28.2414	3.0	955.0	1.2	Outcome2	1.9	0.94	0.0	No	2.0	-0.963004907512269	0.958	391.27		GetAnswer	Mixed
26.0	1	391.281	0.011	492.102	0.94	1.0	28.2414	4.0	955.0	1.2	Outcome2	1.9	0.94	0.0	No		-0.963004907512269				ShowChoice	Mixed
26.0	1	395.293	0.012	496.114	0.94	1.0	28.2414	1.0	955.0	1.2	Outcome2	1.9	0.94	0.0	No		-0.963004907512269				ShowResult	Mixed
26.0	1	396.313	0.02	497.134	0.94	1.0	28.2414	7.834	955.0	1.2	Outcome2	1.9	0.94	0.0	No		-0.963004907512269				ISITrial	Mixed
27.0	1	404.17	0.023	504.991	2.0	2.0	28.4914	3.0	955.0	1.68	Certain	-1.54	6.5	2549.75	Yes	4.0	8.039637599094	1.294	405.464		GetAnswer	Gain
27.0	1	405.49	0.026	506.311	2.0	2.0	28.4914	4.0	955.0	1.68	Certain	-1.54	6.5	2549.75	Yes		8.039637599094				ShowChoice	Gain
27.0	1	409.502	0.012	510.323	2.0	2.0	28.4914	1.0	955.0	1.68	Certain	-1.54	6.5	2549.75	Yes		8.039637599094				ShowResult	Gain
27.0	1	410.522	0.02	511.343	2.0	2.0	28.4914	4.225	955.0	1.68	Certain	-1.54	6.5	2549.75	Yes		8.039637599094				ISITrial	Gain
27.0	1	417.343	0.025	518.164	2.0	2.0	28.4914	1.66	955.0	1.68	Certain	-1.54	6.5	2549.75	Yes		8.039637599094			672.0	TrialHappiness	Gain
27.0	1	421.355	4.012	522.176	2.0	2.0	28.4914	2.199	955.0	1.68	Certain	-1.54	6.5	2549.75	Yes		8.039637599094				ISIRate	Gain
	1	423.578	0.024	524.399				-0.001								{SPACE}		53.502	477.08		Rest	
	1	477.105	0.025	577.926				4.0													BlockHappyPreview	
	1	481.117	0.012	581.938				1.142												752.0	BlockStartHappiness	
	1	490.077	0.022	590.898				-0.001								5.0		1.277	491.354		ScanWait	
	2	0.027	0.027	592.202				10.0													GetReady	
28.0	2	10.057	0.03	602.232	0.0	0.0	28.4914	3.0	70.0	2.0	Certain	1.08	-1.69	0.0	No	4.0	2.77078609221466	1.229	11.286		GetAnswer	Mixed
28.0	2	11.31	0.024	603.485	0.0	0.0	28.4914	4.0	70.0	2.0	Certain	1.08	-1.69	0.0	No		2.77078609221466				ShowChoice	Mixed
28.0	2	15.322	0.012	607.497	0.0	0.0	28.4914	1.0	70.0	2.0	Certain	1.08	-1.69	0.0	No		2.77078609221466				ShowResult	Mixed
28.0	2	16.342	0.02	608.517	0.0	0.0	28.4914	3.575	70.0	2.0	Certain	1.08	-1.69	0.0	No		2.77078609221466				ISITrial	Mixed
29.0	2	19.936	0.019	612.111	1.13	0.56	28.6327	3.0	70.0	2.8	Outcome2	13.5	1.13	3529.0	Yes	2.0	-12.371882086167801	0.986	20.922		GetAnswer	Loss
29.0	2	20.939	0.017	613.114	1.13	0.56	28.6327	4.0	70.0	2.8	Outcome2	13.5	1.13	3529.0	Yes		-12.371882086167801				ShowChoice	Loss
29.0	2	24.951	0.012	617.126	1.13	0.56	28.6327	1.0	70.0	2.8	Outcome2	13.5	1.13	3529.0	Yes		-12.371882086167801				ShowResult	Loss
29.0	2	25.971	0.02	618.146	1.13	0.56	28.6327	3.955	70.0	2.8	Outcome2	13.5	1.13	3529.0	Yes		-12.371882086167801				ISITrial	Loss
29.0	2	33.493	0.015	625.668	1.13	0.56	28.6327	0.792	70.0	2.8	Outcome2	13.5	1.13	3529.0	Yes		-12.371882086167801			656.0	TrialHappiness	Loss
29.0	2	37.505	4.012	629.68	1.13	0.56	28.6327	6.116	70.0	2.8	Outcome2	13.5	1.13	3529.0	Yes		-12.371882086167801				ISIRate	Loss
30.0	2	43.64	0.019	635.815	1.23	0.0	28.7865	3.0	70.0	2.0	Outcome2	-1.28	1.23	0.0	No	2.0	2.5096371882086204	1.164	44.804		GetAnswer	Gain
30.0	2	44.827	0.023	637.002	1.23	0.0	28.7865	4.0	70.0	2.0	Outcome2	-1.28	1.23	0.0	No		2.5096371882086204				ShowChoice	Gain
30.0	2	48.839	0.012	641.014	1.23	0.0	28.7865	1.0	70.0	2.0	Outcome2	-1.28	1.23	0.0	No		2.5096371882086204				ShowResult	Gain
30.0	2	49.859	0.02	642.034	1.23	0.0	28.7865	4.453	70.0	2.0	Outcome2	-1.28	1.23	0.0	No		2.5096371882086204				ISITrial	Gain
31.0	2	54.339	0.027	646.514	-0.48	-0.24	28.7265	3.0	70.0	3.16	Outcome1	-0.48	11.7	2503.25	Yes	2.0	-12.1768707482993	1.302	55.641		GetAnswer	Loss
31.0	2	55.66	0.019	647.835	-0.48	-0.24	28.7265	4.0	70.0	3.16	Outcome1	-0.48	11.7	2503.25	Yes		-12.1768707482993				ShowChoice	Loss
31.0	2	59.672	0.012	651.847	-0.48	-0.24	28.7265	1.0	70.0	3.16	Outcome1	-0.48	11.7	2503.25	Yes		-12.1768707482993				ShowResult	Loss
31.0	2	60.691	0.019	652.866	-0.48	-0.24	28.7265	4.786	70.0	3.16	Outcome1	-0.48	11.7	2503.25	Yes		-12.1768707482993				ISITrial	Loss
31.0	2	68.013	0.021	660.188	-0.48	-0.24	28.7265	2.138	70.0	3.16	Outcome1	-0.48	11.7	2503.25	Yes	2{-2}2{-2}	-12.1768707482993	2.138	70.151	604.0	TrialHappiness	Loss
31.0	2	72.025	4.012	664.2	-0.48	-0.24	28.7265	2.013	70.0	3.16	Outcome1	-0.48	11.7	2503.25	Yes		-12.1768707482993				ISIRate	Loss
32.0	2	74.065	0.027	666.24	-8.26	-2.0	27.694000000000003	3.0	70.0	1.0	Outcome2	3.7	-8.26	0.0	No	2.0	-11.9569160997732	1.282	75.347		GetAnswer	Mixed
32.0	2	75.369	0.022	667.544	-8.26	-2.0	27.694000000000003	4.0	70.0	1.0	Outcome2	3.7	-8.26	0.0	No		-11.9569160997732				ShowChoice	Mixed
32.0	2	79.381	0.012	671.556	-8.26	-2.0	27.694000000000003	1.0	70.0	1.0	Outcome2	3.7	-8.26	0.0	No		-11.9569160997732				ShowResult	Mixed
32.0	2	80.4	0.019	672.575	-8.26	-2.0	27.694000000000003	2.0	70.0	1.0	Outcome2	3.7	-8.26	0.0	No		-11.9569160997732				ISITrial	Mixed
33.0	2	82.423	0.023	674.598	0.02	-1.0	27.6965	3.0	70.0	1.5	Outcome1	0.02	-2.44	0.0	No	2.0	2.45956160241875	1.266	83.689		GetAnswer	Mixed
33.0	2	83.71	0.021	675.885	0.02	-1.0	27.6965	4.0	70.0	1.5	Outcome1	0.02	-2.44	0.0	No		2.45956160241875				ShowChoice	Mixed
33.0	2	87.722	0.012	679.897	0.02	-1.0	27.6965	1.0	70.0	1.5	Outcome1	0.02	-2.44	0.0	No		2.45956160241875				ShowResult	Mixed
33.0	2	88.742	0.02	680.917	0.02	-1.0	27.6965	5.099	70.0	1.5	Outcome1	0.02	-2.44	0.0	No		2.45956160241875				ISITrial	Mixed
34.0	2	93.857	0.016	686.032	-1.0	-1.0	27.5715	3.0	70.0	0.4	Certain	-2.79	-0.28	3231.5	Yes	4.0	2.51001511715797	1.633	95.49		GetAnswer	Mixed
34.0	2	95.512	0.022	687.687	-1.0	-1.0	27.5715	4.0	70.0	0.4	Certain	-2.79	-0.28	3231.5	Yes		2.51001511715797				ShowChoice	Mixed
34.0	2	99.524	0.012	691.699	-1.0	-1.0	27.5715	1.0	70.0	0.4	Certain	-2.79	-0.28	3231.5	Yes		2.51001511715797				ShowResult	Mixed
34.0	2	100.544	0.02	692.719	-1.0	-1.0	27.5715	4.784	70.0	0.4	Certain	-2.79	-0.28	3231.5	Yes		2.51001511715797				ISITrial	Mixed
34.0	2	108.601	0.028	700.776	-1.0	-1.0	27.5715	0.591	70.0	0.4	Certain	-2.79	-0.28	3231.5	Yes		2.51001511715797			584.0	TrialHappiness	Mixed
34.0	2	112.613	4.012	704.788	-1.0	-1.0	27.5715	4.926	70.0	0.4	Certain	-2.79	-0.28	3231.5	Yes		2.51001511715797				ISIRate	Mixed
35.0	2	117.561	0.022	709.736	-9.33	-2.0	26.4053	3.0	70.0	1.5	Outcome2	4.1	-9.33	0.0	No	2.0	-13.4331065759637	1.211	118.772		GetAnswer	Mixed
35.0	2	118.798	0.026	710.973	-9.33	-2.0	26.4053	4.0	70.0	1.5	Outcome2	4.1	-9.33	0.0	No		-13.4331065759637				ShowChoice	Mixed
35.0	2	122.81	0.012	714.985	-9.33	-2.0	26.4053	1.0	70.0	1.5	Outcome2	4.1	-9.33	0.0	No		-13.4331065759637				ShowResult	Mixed
35.0	2	123.83	0.02	716.005	-9.33	-2.0	26.4053	2.098	70.0	1.5	Outcome2	4.1	-9.33	0.0	No		-13.4331065759637				ISITrial	Mixed
36.0	2	125.953	0.025	718.128	-1.92	-0.96	26.1653	3.0	70.0	4.2	Outcome2	12.1	-1.92	3335.75	Yes	2.0	-14.015873015873	0.914	126.867		GetAnswer	Loss
36.0	2	126.889	0.022	719.064	-1.92	-0.96	26.1653	4.0	70.0	4.2	Outcome2	12.1	-1.92	3335.75	Yes		-14.015873015873				ShowChoice	Loss
36.0	2	130.901	0.012	723.076	-1.92	-0.96	26.1653	1.0	70.0	4.2	Outcome2	12.1	-1.92	3335.75	Yes		-14.015873015873				ShowResult	Loss
36.0	2	131.921	0.02	724.096	-1.92	-0.96	26.1653	5.156	70.0	4.2	Outcome2	12.1	-1.92	3335.75	Yes		-14.015873015873				ISITrial	Loss
36.0	2	140.463	0.024	732.638	-1.92	-0.96	26.1653	0.674	70.0	4.2	Outcome2	12.1	-1.92	3335.75	Yes		-14.015873015873			440.0	TrialHappiness	Loss
36.0	2	144.475	4.012	736.65	-1.92	-0.96	26.1653	5.343	70.0	4.2	Outcome2	12.1	-1.92	3335.75	Yes		-14.015873015873				ISIRate	Loss
37.0	2	149.841	0.023	742.016	0.15	0.08	26.1841	3.0	70.0	5.0	Outcome1	0.15	12.3	0.0	No	2.0	-12.1496598639456	1.117	150.958		GetAnswer	Loss
37.0	2	150.978	0.02	743.153	0.15	0.08	26.1841	4.0	70.0	5.0	Outcome1	0.15	12.3	0.0	No		-12.1496598639456				ShowChoice	Loss
37.0	2	154.99	0.012	747.165	0.15	0.08	26.1841	1.0	70.0	5.0	Outcome1	0.15	12.3	0.0	No		-12.1496598639456				ShowResult	Loss
37.0	2	156.01	0.02	748.185	0.15	0.08	26.1841	3.598	70.0	5.0	Outcome1	0.15	12.3	0.0	No		-12.1496598639456				ISITrial	Loss
38.0	2	159.637	0.029	751.812	-0.07	-0.04	26.1753	3.0	70.0	1.68	Outcome1	-0.07	12.5	0.0	No	2.0	-12.569160997732402	1.533	161.17		GetAnswer	Loss
38.0	2	161.192	0.022	753.367	-0.07	-0.04	26.1753	4.0	70.0	1.68	Outcome1	-0.07	12.5	0.0	No		-12.569160997732402				ShowChoice	Loss
38.0	2	165.204	0.012	757.379	-0.07	-0.04	26.1753	1.0	70.0	1.68	Outcome1	-0.07	12.5	0.0	No		-12.569160997732402				ShowResult	Loss
38.0	2	166.224	0.02	758.399	-0.07	-0.04	26.1753	4.787	70.0	1.68	Outcome1	-0.07	12.5	0.0	No		-12.569160997732402				ISITrial	Loss
39.0	2	171.038	0.027	763.213	1.88	1.0	26.4103	3.0	70.0	2.8	Outcome1	1.88	-0.18	2864.25	Yes	2.0	2.06122448979592	1.191	172.229		GetAnswer	Gain
39.0	2	172.242	0.013	764.417	1.88	1.0	26.4103	4.0	70.0	2.8	Outcome1	1.88	-0.18	2864.25	Yes		2.06122448979592				ShowChoice	Gain
39.0	2	176.253	0.011	768.428	1.88	1.0	26.4103	1.0	70.0	2.8	Outcome1	1.88	-0.18	2864.25	Yes		2.06122448979592				ShowResult	Gain
39.0	2	177.273	0.02	769.448	1.88	1.0	26.4103	2.348	70.0	2.8	Outcome1	1.88	-0.18	2864.25	Yes		2.06122448979592				ISITrial	Gain
39.0	2	182.539	0.028	774.714	1.88	1.0	26.4103	0.743	70.0	2.8	Outcome1	1.88	-0.18	2864.25	Yes		2.06122448979592			560.0	TrialHappiness	Gain
39.0	2	186.551	4.012	778.726	1.88	1.0	26.4103	3.457	70.0	2.8	Outcome1	1.88	-0.18	2864.25	Yes		2.06122448979592				ISIRate	Gain
40.0	2	190.028	0.02	782.203	-14.95	-7.0	24.5415	3.0	70.0	0.2	Outcome2	0.5	-14.95	0.0	No	2.0	-15.448979591836698	0.802	190.83		GetAnswer	Mixed
40.0	2	190.847	0.017	783.022	-14.95	-7.0	24.5415	4.0	70.0	0.2	Outcome2	0.5	-14.95	0.0	No		-15.448979591836698				ShowChoice	Mixed
40.0	2	194.859	0.012	787.034	-14.95	-7.0	24.5415	1.0	70.0	0.2	Outcome2	0.5	-14.95	0.0	No		-15.448979591836698				ShowResult	Mixed
40.0	2	195.879	0.02	788.054	-14.95	-7.0	24.5415	3.158	70.0	0.2	Outcome2	0.5	-14.95	0.0	No		-15.448979591836698				ISITrial	Mixed
41.0	2	199.055	0.018	791.23	-11.3	-3.0	23.129	3.0	70.0	1.82	Outcome1	-11.3	4.7	4000.0	Yes	2.0	-16.0045351473923	0.786	199.841		GetAnswer	Gain
41.0	2	199.857	0.016	792.032	-11.3	-3.0	23.129	4.0	70.0	1.82	Outcome1	-11.3	4.7	4000.0	Yes		-16.0045351473923				ShowChoice	Gain
41.0	2	203.869	0.012	796.044	-11.3	-3.0	23.129	1.0	70.0	1.82	Outcome1	-11.3	4.7	4000.0	Yes		-16.0045351473923				ShowResult	Gain
41.0	2	204.889	0.02	797.064	-11.3	-3.0	23.129	4.506	70.0	1.82	Outcome1	-11.3	4.7	4000.0	Yes		-16.0045351473923				ISITrial	Gain
41.0	2	213.448	0.029	805.623	-11.3	-3.0	23.129	0.925	70.0	1.82	Outcome1	-11.3	4.7	4000.0	Yes		-16.0045351473923			256.0	TrialHappiness	Gain
41.0	2	217.46	4.012	809.635	-11.3	-3.0	23.129	8.0	70.0	1.82	Outcome1	-11.3	4.7	4000.0	Yes		-16.0045351473923				ISIRate	Gain
42.0	2	225.484	0.024	817.659	-6.89	-1.0	22.2678	3.0	70.0	1.68	Outcome1	-6.89	4.5	0.0	No	2.0	-11.390022675736999	1.069	226.553		GetAnswer	Gain
42.0	2	226.571	0.018	818.746	-6.89	-1.0	22.2678	4.0	70.0	1.68	Outcome1	-6.89	4.5	0.0	No		-11.390022675736999				ShowChoice	Gain
42.0	2	230.583	0.012	822.758	-6.89	-1.0	22.2678	1.0	70.0	1.68	Outcome1	-6.89	4.5	0.0	No		-11.390022675736999				ShowResult	Gain
42.0	2	231.602	0.019	823.777	-6.89	-1.0	22.2678	6.248	70.0	1.68	Outcome1	-6.89	4.5	0.0	No		-11.390022675736999				ISITrial	Gain
43.0	2	237.871	0.021	830.046	-1.7	-0.85	22.0553	3.0	70.0	3.6	Outcome2	9.9	-1.7	2775.75	Yes	2.0	-11.600907029478499	0.873	238.744		GetAnswer	Gain
43.0	2	238.757	0.013	830.932	-1.7	-0.85	22.0553	4.0	70.0	3.6	Outcome2	9.9	-1.7	2775.75	Yes		-11.600907029478499				ShowChoice	Gain
43.0	2	242.769	0.012	834.944	-1.7	-0.85	22.0553	1.0	70.0	3.6	Outcome2	9.9	-1.7	2775.75	Yes		-11.600907029478499				ShowResult	Gain
43.0	2	243.789	0.02	835.964	-1.7	-0.85	22.0553	4.596	70.0	3.6	Outcome2	9.9	-1.7	2775.75	Yes		-11.600907029478499				ISITrial	Gain
43.0	2	251.211	0.032	843.386	-1.7	-0.85	22.0553	2.061	70.0	3.6	Outcome2	9.9	-1.7	2775.75	Yes		-11.600907029478499			168.0	TrialHappiness	Gain
43.0	2	255.223	4.012	847.398	-1.7	-0.85	22.0553	3.103	70.0	3.6	Outcome2	9.9	-1.7	2775.75	Yes		-11.600907029478499				ISIRate	Gain
44.0	2	258.349	0.023	850.524	-0.22	-1.0	22.0278	3.0	70.0	0.52	Outcome2	-1.34	-0.22	0.0	No	2.0	1.11885865457294	0.88	259.229		GetAnswer	Mixed
44.0	2	259.252	0.023	851.427	-0.22	-1.0	22.0278	4.0	70.0	0.52	Outcome2	-1.34	-0.22	0.0	No		1.11885865457294				ShowChoice	Mixed
44.0	2	263.28	0.028	855.455	-0.22	-1.0	22.0278	1.0	70.0	0.52	Outcome2	-1.34	-0.22	0.0	No		1.11885865457294				ShowResult	Mixed
44.0	2	264.3	0.02	856.475	-0.22	-1.0	22.0278	2.42	70.0	0.52	Outcome2	-1.34	-0.22	0.0	No		1.11885865457294				ISITrial	Mixed
45.0	2	266.741	0.021	858.916	0.0	0.0	22.0278	3.0	70.0	2.0	Certain	-0.56	0.57	0.0	No	4.0	1.1281179138322	1.093	267.834		GetAnswer	Mixed
45.0	2	267.861	0.027	860.036	0.0	0.0	22.0278	4.0	70.0	2.0	Certain	-0.56	0.57	0.0	No		1.1281179138322				ShowChoice	Mixed
45.0	2	271.873	0.012	864.048	0.0	0.0	22.0278	1.0	70.0	2.0	Certain	-0.56	0.57	0.0	No		1.1281179138322				ShowResult	Mixed
45.0	2	272.892	0.019	865.067	0.0	0.0	22.0278	3.144	70.0	2.0	Certain	-0.56	0.57	0.0	No		1.1281179138322				ISITrial	Mixed
46.0	2	276.052	0.016	868.227	-7.84	-2.0	21.0478	3.0	70.0	0.3	Outcome1	-7.84	2.7	3841.25	Yes	2.0	-10.5374149659864	1.154	277.206		GetAnswer	Mixed
46.0	2	277.222	0.016	869.397	-7.84	-2.0	21.0478	4.0	70.0	0.3	Outcome1	-7.84	2.7	3841.25	Yes		-10.5374149659864				ShowChoice	Mixed
46.0	2	281.234	0.012	873.409	-7.84	-2.0	21.0478	1.0	70.0	0.3	Outcome1	-7.84	2.7	3841.25	Yes		-10.5374149659864				ShowResult	Mixed
46.0	2	282.254	0.02	874.429	-7.84	-2.0	21.0478	2.246	70.0	0.3	Outcome1	-7.84	2.7	3841.25	Yes		-10.5374149659864				ISITrial	Mixed
46.0	2	288.389	0.021	880.564	-7.84	-2.0	21.0478	0.875	70.0	0.3	Outcome1	-7.84	2.7	3841.25	Yes		-10.5374149659864			312.0	TrialHappiness	Mixed
46.0	2	292.401	4.012	884.576	-7.84	-2.0	21.0478	7.365	70.0	0.3	Outcome1	-7.84	2.7	3841.25	Yes		-10.5374149659864				ISIRate	Mixed
47.0	2	299.79	0.024	891.965	-9.2	-2.0	19.8978	3.0	70.0	1.2	Outcome1	-9.2	3.9	0.0	No	2.0	-13.0975056689342	0.763	300.553		GetAnswer	Mixed
47.0	2	300.575	0.022	892.75	-9.2	-2.0	19.8978	4.0	70.0	1.2	Outcome1	-9.2	3.9	0.0	No		-13.0975056689342				ShowChoice	Mixed
47.0	2	304.587	0.012	896.762	-9.2	-2.0	19.8978	1.0	70.0	1.2	Outcome1	-9.2	3.9	0.0	No		-13.0975056689342				ShowResult	Mixed
47.0	2	305.607	0.02	897.782	-9.2	-2.0	19.8978	2.0	70.0	1.2	Outcome1	-9.2	3.9	0.0	No		-13.0975056689342				ISITrial	Mixed
48.0	2	307.63	0.023	899.805	-11.87	-5.0	18.414	3.0	70.0	0.82	Outcome2	1.5	-11.87	2831.75	Yes	2.0	-13.371882086167801	0.81	308.44		GetAnswer	Mixed
48.0	2	308.465	0.025	900.64	-11.87	-5.0	18.414	4.0	70.0	0.82	Outcome2	1.5	-11.87	2831.75	Yes		-13.371882086167801				ShowChoice	Mixed
48.0	2	312.477	0.012	904.652	-11.87	-5.0	18.414	1.0	70.0	0.82	Outcome2	1.5	-11.87	2831.75	Yes		-13.371882086167801				ShowResult	Mixed
48.0	2	313.497	0.02	905.672	-11.87	-5.0	18.414	3.692	70.0	0.82	Outcome2	1.5	-11.87	2831.75	Yes		-13.371882086167801				ISITrial	Mixed
48.0	2	320.067	0.027	912.242	-11.87	-5.0	18.414	1.494	70.0	0.82	Outcome2	1.5	-11.87	2831.75	Yes		-13.371882086167801			72.0	TrialHappiness	Mixed
48.0	2	324.079	4.012	916.254	-11.87	-5.0	18.414	3.327	70.0	0.82	Outcome2	1.5	-11.87	2831.75	Yes		-13.371882086167801				ISIRate	Mixed
49.0	2	327.422	0.016	919.597	1.38	1.0	18.5865	3.0	70.0	2.8	Outcome1	1.38	0.58	0.0	No	2.0	0.8023431594860161	1.126	328.548		GetAnswer	Gain
49.0	2	328.559	0.011	920.734	1.38	1.0	18.5865	4.0	70.0	2.8	Outcome1	1.38	0.58	0.0	No		0.8023431594860161				ShowChoice	Gain
49.0	2	332.571	0.012	924.746	1.38	1.0	18.5865	1.0	70.0	2.8	Outcome1	1.38	0.58	0.0	No		0.8023431594860161				ShowResult	Gain
49.0	2	333.591	0.02	925.766	1.38	1.0	18.5865	8.0	70.0	2.8	Outcome1	1.38	0.58	0.0	No		0.8023431594860161				ISITrial	Gain
50.0	2	341.615	0.024	933.79	0.88	0.0	18.6965	3.0	70.0	0.82	Outcome1	0.88	0.08	3547.25	Yes	2.0	0.802532123960695	1.187	342.802		GetAnswer	Mixed
50.0	2	342.818	0.016	934.993	0.88	0.0	18.6965	4.0	70.0	0.82	Outcome1	0.88	0.08	3547.25	Yes		0.802532123960695				ShowChoice	Mixed
50.0	2	346.83	0.012	939.005	0.88	0.0	18.6965	1.0	70.0	0.82	Outcome1	0.88	0.08	3547.25	Yes		0.802532123960695				ShowResult	Mixed
50.0	2	347.85	0.02	940.025	0.88	0.0	18.6965	7.537	70.0	0.82	Outcome1	0.88	0.08	3547.25	Yes		0.802532123960695				ISITrial	Mixed
50.0	2	358.983	0.03	951.158	0.88	0.0	18.6965	1.376	70.0	0.82	Outcome1	0.88	0.08	3547.25	Yes		0.802532123960695			408.0	TrialHappiness	Mixed
50.0	2	362.995	4.012	955.17	0.88	0.0	18.6965	6.189	70.0	0.82	Outcome1	0.88	0.08	3547.25	Yes		0.802532123960695				ISIRate	Mixed
51.0	2	369.214	0.03	961.389	-15.58	-8.0	16.749000000000002	3.0	70.0	1.0	Outcome1	-15.58	-0.3	0.0	No	2.0	-15.2834467120181	1.799	371.013		GetAnswer	Mixed
51.0	2	371.036	0.023	963.211	-15.58	-8.0	16.749000000000002	4.0	70.0	1.0	Outcome1	-15.58	-0.3	0.0	No		-15.2834467120181				ShowChoice	Mixed
51.0	2	375.048	0.012	967.223	-15.58	-8.0	16.749000000000002	1.0	70.0	1.0	Outcome1	-15.58	-0.3	0.0	No		-15.2834467120181				ShowResult	Mixed
51.0	2	376.068	0.02	968.243	-15.58	-8.0	16.749000000000002	5.508	70.0	1.0	Outcome1	-15.58	-0.3	0.0	No		-15.2834467120181				ISITrial	Mixed
52.0	2	381.601	0.025	973.776	1.68	0.0	16.959	3.0	70.0	1.82	Outcome2	-0.52	1.68	0.0	No	2.0	2.19973544973545	1.043	382.644		GetAnswer	Gain
52.0	2	382.671	0.027	974.846	1.68	0.0	16.959	4.0	70.0	1.82	Outcome2	-0.52	1.68	0.0	No		2.19973544973545				ShowChoice	Gain
52.0	2	386.683	0.012	978.858	1.68	0.0	16.959	1.0	70.0	1.82	Outcome2	-0.52	1.68	0.0	No		2.19973544973545				ShowResult	Gain
52.0	2	387.702	0.019	979.877	1.68	0.0	16.959	5.913	70.0	1.82	Outcome2	-0.52	1.68	0.0	No		2.19973544973545				ISITrial	Gain
53.0	2	393.637	0.022	985.812	2.42	1.0	17.2615	3.0	70.0	3.16	Outcome2	0.19	2.42	2996.75	Yes	2.0	2.2316704459561603	1.332	394.969		GetAnswer	Gain
53.0	2	394.991	0.022	987.166	2.42	1.0	17.2615	4.0	70.0	3.16	Outcome2	0.19	2.42	2996.75	Yes		2.2316704459561603				ShowChoice	Gain
53.0	2	399.003	0.012	991.178	2.42	1.0	17.2615	1.0	70.0	3.16	Outcome2	0.19	2.42	2996.75	Yes		2.2316704459561603				ShowResult	Gain
53.0	2	400.023	0.02	992.198	2.42	1.0	17.2615	3.66	70.0	3.16	Outcome2	0.19	2.42	2996.75	Yes		2.2316704459561603				ISITrial	Gain
53.0	2	406.726	0.029	998.901	2.42	1.0	17.2615	0.743	70.0	3.16	Outcome2	0.19	2.42	2996.75	Yes		2.2316704459561603			472.0	TrialHappiness	Gain
53.0	2	410.755	4.029	1002.93	2.42	1.0	17.2615	3.987	70.0	3.16	Outcome2	0.19	2.42	2996.75	Yes		2.2316704459561603				ISIRate	Gain
54.0	2	414.767	0.025	1006.942	1.92	0.0	17.5015	3.0	70.0	3.16	Outcome2	-0.6	1.92	0.0	No	2.0	2.52362055933484	1.213	415.98		GetAnswer	Gain
54.0	2	416.004	0.024	1008.179	1.92	0.0	17.5015	4.0	70.0	3.16	Outcome2	-0.6	1.92	0.0	No		2.52362055933484				ShowChoice	Gain
54.0	2	420.016	0.012	1012.191	1.92	0.0	17.5015	1.0	70.0	3.16	Outcome2	-0.6	1.92	0.0	No		2.52362055933484				ShowResult	Gain
54.0	2	421.035	0.019	1013.21	1.92	0.0	17.5015	8.0	70.0	3.16	Outcome2	-0.6	1.92	0.0	No		2.52362055933484				ISITrial	Gain
	2	429.059	0.024	1021.234				-0.001								{SPACE}		17.92	446.979		Rest	
	2	446.996	0.017	1039.171				4.0													BlockHappyPreview	
	2	451.008	0.012	1043.183				2.062												440.0	BlockStartHappiness	
	2	469.012	0.018	1061.187				-0.001								5.0		1.908	470.92		ScanWait	
	3	0.015	0.015	1063.11				10.0													GetReady	
55.0	3	10.028	0.013	1073.123	11.5	1.38	18.939	3.0	955.0	2.8	Outcome2	2.75	11.5	2533.25	Yes	2.0	8.74858437146093	1.175	11.203		GetAnswer	Loss
55.0	3	11.215	0.012	1074.31	11.5	1.38	18.939	4.0	955.0	2.8	Outcome2	2.75	11.5	2533.25	Yes		8.74858437146093				ShowChoice	Loss
55.0	3	15.227	0.012	1078.322	11.5	1.38	18.939	1.0	955.0	2.8	Outcome2	2.75	11.5	2533.25	Yes		8.74858437146093				ShowResult	Loss
55.0	3	16.246	0.019	1079.341	11.5	1.38	18.939	7.709	955.0	2.8	Outcome2	2.75	11.5	2533.25	Yes		8.74858437146093				ISITrial	Loss
55.0	3	26.527	0.024	1089.622	11.5	1.38	18.939	0.0	955.0	2.8	Outcome2	2.75	11.5	2533.25	Yes		8.74858437146093			512.0	TrialHappiness	Loss
55.0	3	30.539	4.012	1093.634	11.5	1.38	18.939	2.133	955.0	2.8	Outcome2	2.75	11.5	2533.25	Yes		8.74858437146093				ISIRate	Loss
56.0	3	32.696	0.024	1095.791	7.3	-0.4	19.8515	3.0	955.0	2.48	Outcome2	-0.81	7.3	0.0	No	2.0	8.10872027180068	1.075	33.771		GetAnswer	Gain
56.0	3	33.799	0.027	1096.894	7.3	-0.4	19.8515	4.0	955.0	2.48	Outcome2	-0.81	7.3	0.0	No		8.10872027180068				ShowChoice	Gain
56.0	3	37.811	0.012	1100.906	7.3	-0.4	19.8515	1.0	955.0	2.48	Outcome2	-0.81	7.3	0.0	No		8.10872027180068				ShowResult	Gain
56.0	3	38.831	0.02	1101.926	7.3	-0.4	19.8515	4.697	955.0	2.48	Outcome2	-0.81	7.3	0.0	No		8.10872027180068				ISITrial	Gain
57.0	3	43.545	0.017	1106.64	5.9	1.0	20.589000000000002	3.0	955.0	3.6	Outcome1	5.9	-2.71	0.0	No	2.0	8.61041902604756	1.545	45.09		GetAnswer	Gain
57.0	3	45.116	0.026	1108.211	5.9	1.0	20.589000000000002	4.0	955.0	3.6	Outcome1	5.9	-2.71	0.0	No		8.61041902604756				ShowChoice	Gain
57.0	3	49.128	0.012	1112.223	5.9	1.0	20.589000000000002	1.0	955.0	3.6	Outcome1	5.9	-2.71	0.0	No		8.61041902604756				ShowResult	Gain
57.0	3	50.148	0.02	1113.243	5.9	1.0	20.589000000000002	4.291	955.0	3.6	Outcome1	5.9	-2.71	0.0	No		8.61041902604756				ISITrial	Gain
58.0	3	54.461	0.022	1117.556	9.17	4.58	21.7352	3.0	955.0	2.22	Outcome1	9.17	11.1	3045.75	Yes	2.0	-1.92997357493394	1.191	55.652		GetAnswer	Loss
58.0	3	55.664	0.012	1118.759	9.17	4.58	21.7352	4.0	955.0	2.22	Outcome1	9.17	11.1	3045.75	Yes		-1.92997357493394				ShowChoice	Loss
58.0	3	59.676	0.012	1122.771	9.17	4.58	21.7352	1.0	955.0	2.22	Outcome1	9.17	11.1	3045.75	Yes		-1.92997357493394				ShowResult	Loss
58.0	3	60.696	0.02	1123.791	9.17	4.58	21.7352	2.037	955.0	2.22	Outcome1	9.17	11.1	3045.75	Yes		-1.92997357493394				ISITrial	Loss
58.0	3	65.828	0.03	1128.923	9.17	4.58	21.7352	1.094	955.0	2.22	Outcome1	9.17	11.1	3045.75	Yes		-1.92997357493394			536.0	TrialHappiness	Loss
58.0	3	69.84	4.012	1132.935	9.17	4.58	21.7352	4.183	955.0	2.22	Outcome1	9.17	11.1	3045.75	Yes		-1.92997357493394				ISIRate	Loss
59.0	3	74.053	0.03	1137.148	8.23	4.12	22.764	3.0	955.0	4.2	Outcome1	8.23	10.1	0.0	No	2.0	-1.8743865609663999	1.017	75.07		GetAnswer	Gain
59.0	3	75.089	0.019	1138.184	8.23	4.12	22.764	4.0	955.0	4.2	Outcome1	8.23	10.1	0.0	No		-1.8743865609663999				ShowChoice	Gain
59.0	3	79.101	0.012	1142.196	8.23	4.12	22.764	1.0	955.0	4.2	Outcome1	8.23	10.1	0.0	No		-1.8743865609663999				ShowResult	Gain
59.0	3	80.121	0.02	1143.216	8.23	4.12	22.764	5.064	955.0	4.2	Outcome1	8.23	10.1	0.0	No		-1.8743865609663999				ISITrial	Gain
60.0	3	85.203	0.018	1148.298	11.3	0.81	24.1765	3.0	955.0	2.48	Outcome2	1.62	11.3	3562.5	Yes	2.0	9.6806342015855	1.157	86.36		GetAnswer	Loss
60.0	3	86.373	0.013	1149.468	11.3	0.81	24.1765	4.0	955.0	2.48	Outcome2	1.62	11.3	3562.5	Yes		9.6806342015855				ShowChoice	Loss
60.0	3	90.385	0.012	1153.48	11.3	0.81	24.1765	1.0	955.0	2.48	Outcome2	1.62	11.3	3562.5	Yes		9.6806342015855				ShowResult	Loss
60.0	3	91.404	0.019	1154.499	11.3	0.81	24.1765	8.0	955.0	2.48	Outcome2	1.62	11.3	3562.5	Yes		9.6806342015855				ISITrial	Loss
60.0	3	103.006	0.016	1166.101	11.3	0.81	24.1765	1.294	955.0	2.48	Outcome2	1.62	11.3	3562.5	Yes		9.6806342015855			656.0	TrialHappiness	Loss
60.0	3	107.018	4.012	1170.113	11.3	0.81	24.1765	6.25	955.0	2.48	Outcome2	1.62	11.3	3562.5	Yes		9.6806342015855				ISIRate	Loss
61.0	3	113.287	0.019	1176.382	-1.5	-5.0	23.989	3.0	955.0	0.2	Outcome1	-1.5	-9.62	0.0	No	2.0	8.116647791619481	1.429	114.716		GetAnswer	Mixed
61.0	3	114.741	0.025	1177.836	-1.5	-5.0	23.989	4.0	955.0	0.2	Outcome1	-1.5	-9.62	0.0	No		8.116647791619481				ShowChoice	Mixed
61.0	3	118.753	0.012	1181.848	-1.5	-5.0	23.989	1.0	955.0	0.2	Outcome1	-1.5	-9.62	0.0	No		8.116647791619481				ShowResult	Mixed
61.0	3	119.773	0.02	1182.868	-1.5	-5.0	23.989	4.586	955.0	0.2	Outcome1	-1.5	-9.62	0.0	No		8.116647791619481				ISITrial	Mixed
62.0	3	124.386	0.027	1187.481	-0.5	-4.0	23.9265	3.0	955.0	0.82	Outcome2	-8.96	-0.5	3748.75	Yes	2.0	8.45526613816535	1.345	125.731		GetAnswer	Mixed
62.0	3	125.757	0.026	1188.852	-0.5	-4.0	23.9265	4.0	955.0	0.82	Outcome2	-8.96	-0.5	3748.75	Yes		8.45526613816535				ShowChoice	Mixed
62.0	3	129.769	0.012	1192.864	-0.5	-4.0	23.9265	1.0	955.0	0.82	Outcome2	-8.96	-0.5	3748.75	Yes		8.45526613816535				ShowResult	Mixed
62.0	3	130.789	0.02	1193.884	-0.5	-4.0	23.9265	5.212	955.0	0.82	Outcome2	-8.96	-0.5	3748.75	Yes		8.45526613816535				ISITrial	Mixed
62.0	3	139.799	0.029	1202.894	-0.5	-4.0	23.9265	0.742	955.0	0.82	Outcome2	-8.96	-0.5	3748.75	Yes		8.45526613816535			640.0	TrialHappiness	Mixed
62.0	3	143.811	4.012	1206.906	-0.5	-4.0	23.9265	6.995	955.0	0.82	Outcome2	-8.96	-0.5	3748.75	Yes		8.45526613816535				ISIRate	Mixed
63.0	3	150.832	0.026	1213.927	7.1	2.0	24.814	3.0	955.0	2.22	Outcome1	7.1	-1.97	0.0	No	2.0	9.06568516421291	1.098	151.93		GetAnswer	Gain
63.0	3	151.952	0.022	1215.047	7.1	2.0	24.814	4.0	955.0	2.22	Outcome1	7.1	-1.97	0.0	No		9.06568516421291				ShowChoice	Gain
63.0	3	155.964	0.012	1219.059	7.1	2.0	24.814	1.0	955.0	2.22	Outcome1	7.1	-1.97	0.0	No		9.06568516421291				ShowResult	Gain
63.0	3	156.984	0.02	1220.079	7.1	2.0	24.814	5.595	955.0	2.22	Outcome1	7.1	-1.97	0.0	No		9.06568516421291				ISITrial	Gain
64.0	3	162.601	0.022	1225.696	6.3	1.0	25.6015	3.0	955.0	5.0	Outcome2	-3.12	6.3	0.0	No	2.0	9.422423556058892	1.368	163.969		GetAnswer	Gain
64.0	3	163.988	0.018	1227.083	6.3	1.0	25.6015	4.0	955.0	5.0	Outcome2	-3.12	6.3	0.0	No		9.422423556058892				ShowChoice	Gain
64.0	3	168.0	0.012	1231.095	6.3	1.0	25.6015	1.0	955.0	5.0	Outcome2	-3.12	6.3	0.0	No		9.422423556058892				ShowResult	Gain
64.0	3	169.02	0.02	1232.115	6.3	1.0	25.6015	5.47	955.0	5.0	Outcome2	-3.12	6.3	0.0	No		9.422423556058892				ISITrial	Gain
65.0	3	174.52	0.03	1237.615	5.3	0.0	26.264	3.0	955.0	2.48	Outcome1	5.3	-4.48	2996.75	Yes	2.0	9.77916194790487	1.218	175.738		GetAnswer	Gain
65.0	3	175.757	0.019	1238.852	5.3	0.0	26.264	4.0	955.0	2.48	Outcome1	5.3	-4.48	2996.75	Yes		9.77916194790487				ShowChoice	Gain
65.0	3	179.769	0.012	1242.864	5.3	0.0	26.264	1.0	955.0	2.48	Outcome1	5.3	-4.48	2996.75	Yes		9.77916194790487				ShowResult	Gain
65.0	3	180.788	0.019	1243.883	5.3	0.0	26.264	3.344	955.0	2.48	Outcome1	5.3	-4.48	2996.75	Yes		9.77916194790487				ISITrial	Gain
65.0	3	187.174	0.029	1250.269	5.3	0.0	26.264	2.866	955.0	2.48	Outcome1	5.3	-4.48	2996.75	Yes		9.77916194790487			704.0	TrialHappiness	Gain
65.0	3	191.186	4.012	1254.281	5.3	0.0	26.264	3.987	955.0	2.48	Outcome1	5.3	-4.48	2996.75	Yes		9.77916194790487				ISIRate	Gain
66.0	3	195.198	0.025	1258.293	1.88	2.0	26.499000000000002	3.0	955.0	0.66	Outcome2	3.3	1.88	0.0	No	2.0	-1.41732729331823	1.166	196.364		GetAnswer	Mixed
66.0	3	196.385	0.021	1259.48	1.88	2.0	26.499000000000002	4.0	955.0	0.66	Outcome2	3.3	1.88	0.0	No		-1.41732729331823				ShowChoice	Mixed
66.0	3	200.397	0.012	1263.492	1.88	2.0	26.499000000000002	1.0	955.0	0.66	Outcome2	3.3	1.88	0.0	No		-1.41732729331823				ShowResult	Mixed
66.0	3	201.417	0.02	1264.512	1.88	2.0	26.499000000000002	3.959	955.0	0.66	Outcome2	3.3	1.88	0.0	No		-1.41732729331823				ISITrial	Mixed
67.0	3	205.395	0.019	1268.49	0.26	1.0	26.5315	3.0	955.0	1.0	Outcome2	1.7	0.26	2918.5	Yes	2.0	-1.44101547753869	1.318	206.713		GetAnswer	Mixed
67.0	3	206.733	0.02	1269.828	0.26	1.0	26.5315	4.0	955.0	1.0	Outcome2	1.7	0.26	2918.5	Yes		-1.44101547753869				ShowChoice	Mixed
67.0	3	210.745	0.012	1273.84	0.26	1.0	26.5315	1.0	955.0	1.0	Outcome2	1.7	0.26	2918.5	Yes		-1.44101547753869				ShowResult	Mixed
67.0	3	211.764	0.019	1274.859	0.26	1.0	26.5315	4.199	955.0	1.0	Outcome2	1.7	0.26	2918.5	Yes		-1.44101547753869				ISITrial	Mixed
67.0	3	218.919	0.024	1282.014	0.26	1.0	26.5315	0.943	955.0	1.0	Outcome2	1.7	0.26	2918.5	Yes		-1.44101547753869			672.0	TrialHappiness	Mixed
67.0	3	222.931	4.012	1286.026	0.26	1.0	26.5315	3.674	955.0	1.0	Outcome2	1.7	0.26	2918.5	Yes		-1.44101547753869				ISIRate	Mixed
68.0	3	226.625	0.02	1289.72	12.9	1.37	28.144000000000002	3.0	955.0	2.0	Outcome2	2.74	12.9	0.0	No	2.0	10.1608154020385	1.146	227.771		GetAnswer	Loss
68.0	3	227.796	0.025	1290.891	12.9	1.37	28.144000000000002	4.0	955.0	2.0	Outcome2	2.74	12.9	0.0	No		10.1608154020385				ShowChoice	Loss
68.0	3	231.808	0.012	1294.903	12.9	1.37	28.144000000000002	1.0	955.0	2.0	Outcome2	2.74	12.9	0.0	No		10.1608154020385				ShowResult	Loss
68.0	3	232.827	0.019	1295.922	12.9	1.37	28.144000000000002	2.185	955.0	2.0	Outcome2	2.74	12.9	0.0	No		10.1608154020385				ISITrial	Loss
69.0	3	235.034	0.022	1298.129	-0.52	0.0	28.079	3.0	955.0	0.52	Outcome2	1.1	-0.52	0.0	No	2.0	-1.62127217818045	1.701	236.735		GetAnswer	Mixed
69.0	3	236.756	0.021	1299.851	-0.52	0.0	28.079	4.0	955.0	0.52	Outcome2	1.1	-0.52	0.0	No		-1.62127217818045				ShowChoice	Mixed
69.0	3	240.768	0.012	1303.863	-0.52	0.0	28.079	1.0	955.0	0.52	Outcome2	1.1	-0.52	0.0	No		-1.62127217818045				ShowResult	Mixed
69.0	3	241.787	0.019	1304.882	-0.52	0.0	28.079	2.0	955.0	0.52	Outcome2	1.1	-0.52	0.0	No		-1.62127217818045				ISITrial	Mixed
70.0	3	243.81	0.023	1306.905	10.25	5.12	29.3602	3.0	955.0	3.6	Outcome1	10.25	11.9	3651.25	Yes	2.0	-1.64798036995093	1.022	244.832		GetAnswer	Loss
70.0	3	244.847	0.015	1307.942	10.25	5.12	29.3602	4.0	955.0	3.6	Outcome1	10.25	11.9	3651.25	Yes		-1.64798036995093				ShowChoice	Loss
70.0	3	248.859	0.012	1311.954	10.25	5.12	29.3602	1.0	955.0	3.6	Outcome1	10.25	11.9	3651.25	Yes		-1.64798036995093				ShowResult	Loss
70.0	3	249.878	0.019	1312.973	10.25	5.12	29.3602	2.623	955.0	3.6	Outcome1	10.25	11.9	3651.25	Yes		-1.64798036995093				ISITrial	Loss
70.0	3	256.197	0.026	1319.292	10.25	5.12	29.3602	1.378	955.0	3.6	Outcome1	10.25	11.9	3651.25	Yes		-1.64798036995093			584.0	TrialHappiness	Loss
70.0	3	260.209	4.012	1323.304	10.25	5.12	29.3602	6.605	955.0	3.6	Outcome1	10.25	11.9	3651.25	Yes		-1.64798036995093				ISIRate	Loss
71.0	3	266.846	0.032	1329.941	10.3	-1.16	30.6477	3.0	955.0	5.0	Outcome1	10.3	-2.32	0.0	No	2.0	12.6172140430351	0.885	267.731		GetAnswer	Gain
71.0	3	267.748	0.017	1330.843	10.3	-1.16	30.6477	4.0	955.0	5.0	Outcome1	10.3	-2.32	0.0	No		12.6172140430351				ShowChoice	Gain
71.0	3	271.76	0.012	1334.855	10.3	-1.16	30.6477	1.0	955.0	5.0	Outcome1	10.3	-2.32	0.0	No		12.6172140430351				ShowResult	Gain
71.0	3	272.78	0.02	1335.875	10.3	-1.16	30.6477	5.499	955.0	5.0	Outcome1	10.3	-2.32	0.0	No		12.6172140430351				ISITrial	Gain
72.0	3	278.297	0.018	1341.392	0.7	-6.0	30.7352	3.0	955.0	0.3	Outcome2	-12.34	0.7	3080.5	Yes	2.0	13.037372593431499	1.014	279.311		GetAnswer	Mixed
72.0	3	279.333	0.022	1342.428	0.7	-6.0	30.7352	4.0	955.0	0.3	Outcome2	-12.34	0.7	3080.5	Yes		13.037372593431499				ShowChoice	Mixed
72.0	3	283.345	0.012	1346.44	0.7	-6.0	30.7352	1.0	955.0	0.3	Outcome2	-12.34	0.7	3080.5	Yes		13.037372593431499				ShowResult	Mixed
72.0	3	284.365	0.02	1347.46	0.7	-6.0	30.7352	5.672	955.0	0.3	Outcome2	-12.34	0.7	3080.5	Yes		13.037372593431499				ISITrial	Mixed
72.0	3	293.158	0.03	1356.253	0.7	-6.0	30.7352	0.774	955.0	0.3	Outcome2	-12.34	0.7	3080.5	Yes		13.037372593431499			632.0	TrialHappiness	Mixed
72.0	3	297.17	4.012	1360.265	0.7	-6.0	30.7352	4.322	955.0	0.3	Outcome2	-12.34	0.7	3080.5	Yes		13.037372593431499				ISIRate	Mixed
73.0	3	301.516	0.024	1364.611	2.0	2.0	30.9852	3.0	955.0	1.82	Certain	-3.94	8.7	0.0	No	4.0	12.6421291053228	1.162	302.678		GetAnswer	Gain
73.0	3	302.703	0.025	1365.798	2.0	2.0	30.9852	4.0	955.0	1.82	Certain	-3.94	8.7	0.0	No		12.6421291053228				ShowChoice	Gain
73.0	3	306.715	0.012	1369.81	2.0	2.0	30.9852	1.0	955.0	1.82	Certain	-3.94	8.7	0.0	No		12.6421291053228				ShowResult	Gain
73.0	3	307.735	0.02	1370.83	2.0	2.0	30.9852	4.616	955.0	1.82	Certain	-3.94	8.7	0.0	No		12.6421291053228				ISITrial	Gain
74.0	3	312.382	0.031	1375.477	2.0	2.0	31.2352	3.0	955.0	2.0	Certain	8.9	-4.11	3056.25	Yes	4.0	13.007927519818802	1.297	313.679		GetAnswer	Gain
74.0	3	313.702	0.023	1376.797	2.0	2.0	31.2352	4.0	955.0	2.0	Certain	8.9	-4.11	3056.25	Yes		13.007927519818802				ShowChoice	Gain
74.0	3	317.714	0.012	1380.809	2.0	2.0	31.2352	1.0	955.0	2.0	Certain	8.9	-4.11	3056.25	Yes		13.007927519818802				ShowResult	Gain
74.0	3	318.734	0.02	1381.829	2.0	2.0	31.2352	3.909	955.0	2.0	Certain	8.9	-4.11	3056.25	Yes		13.007927519818802				ISITrial	Gain
74.0	3	325.738	0.019	1388.833	2.0	2.0	31.2352	1.111	955.0	2.0	Certain	8.9	-4.11	3056.25	Yes	2{-2}2{-2}	13.007927519818802	1.111	326.849	544.0	TrialHappiness	Gain
74.0	3	329.75	4.012	1392.845	2.0	2.0	31.2352	4.225	955.0	2.0	Certain	8.9	-4.11	3056.25	Yes		13.007927519818802				ISIRate	Gain
75.0	3	333.996	0.021	1397.091	12.7	-1.08	32.8227	3.0	955.0	1.82	Outcome1	12.7	-2.17	0.0	No	2.0	14.8686296715742	1.387	335.383		GetAnswer	Loss
75.0	3	335.401	0.018	1398.496	12.7	-1.08	32.8227	4.0	955.0	1.82	Outcome1	12.7	-2.17	0.0	No		14.8686296715742				ShowChoice	Loss
75.0	3	339.413	0.012	1402.508	12.7	-1.08	32.8227	1.0	955.0	1.82	Outcome1	12.7	-2.17	0.0	No		14.8686296715742				ShowResult	Loss
75.0	3	340.432	0.019	1403.527	12.7	-1.08	32.8227	4.979	955.0	1.82	Outcome1	12.7	-2.17	0.0	No		14.8686296715742				ISITrial	Loss
76.0	3	345.431	0.02	1408.526	6.1	-1.0	33.5852	3.0	955.0	4.2	Outcome2	-9.23	6.1	0.0	No	2.0	15.334088335220802	1.433	346.864		GetAnswer	Gain
76.0	3	346.885	0.021	1409.98	6.1	-1.0	33.5852	4.0	955.0	4.2	Outcome2	-9.23	6.1	0.0	No		15.334088335220802				ShowChoice	Gain
76.0	3	350.897	0.012	1413.992	6.1	-1.0	33.5852	1.0	955.0	4.2	Outcome2	-9.23	6.1	0.0	No		15.334088335220802				ShowResult	Gain
76.0	3	351.917	0.02	1415.012	6.1	-1.0	33.5852	3.931	955.0	4.2	Outcome2	-9.23	6.1	0.0	No		15.334088335220802				ISITrial	Gain
77.0	3	355.879	0.031	1418.974	13.7	-1.05	35.2977	3.0	955.0	3.16	Outcome1	13.7	-2.1	4000.0	Yes	2.0	15.7995469988675	1.079	356.958		GetAnswer	Loss
77.0	3	356.982	0.024	1420.077	13.7	-1.05	35.2977	4.0	955.0	3.16	Outcome1	13.7	-2.1	4000.0	Yes		15.7995469988675				ShowChoice	Loss
77.0	3	360.994	0.012	1424.089	13.7	-1.05	35.2977	1.0	955.0	3.16	Outcome1	13.7	-2.1	4000.0	Yes		15.7995469988675				ShowResult	Loss
77.0	3	362.014	0.02	1425.109	13.7	-1.05	35.2977	7.022	955.0	3.16	Outcome1	13.7	-2.1	4000.0	Yes		15.7995469988675				ISITrial	Loss
77.0	3	373.08	0.029	1436.175	13.7	-1.05	35.2977	0.925	955.0	3.16	Outcome1	13.7	-2.1	4000.0	Yes		15.7995469988675			632.0	TrialHappiness	Loss
77.0	3	377.092	4.012	1440.187	13.7	-1.05	35.2977	8.0	955.0	3.16	Outcome1	13.7	-2.1	4000.0	Yes		15.7995469988675				ISIRate	Loss
78.0	3	385.116	0.024	1448.211	0.3	-7.0	35.3352	3.0	955.0	2.0	Outcome2	-14.47	0.3	0.0	No	2.0	14.770101925254801	0.875	385.991		GetAnswer	Mixed
78.0	3	386.019	0.028	1449.114	0.3	-7.0	35.3352	4.0	955.0	2.0	Outcome2	-14.47	0.3	0.0	No		14.770101925254801				ShowChoice	Mixed
78.0	3	390.031	0.012	1453.126	0.3	-7.0	35.3352	1.0	955.0	2.0	Outcome2	-14.47	0.3	0.0	No		14.770101925254801				ShowResult	Mixed
78.0	3	391.05	0.019	1454.145	0.3	-7.0	35.3352	2.078	955.0	2.0	Outcome2	-14.47	0.3	0.0	No		14.770101925254801				ISITrial	Mixed
79.0	3	393.157	0.029	1456.252	12.1	-1.52	36.8477	3.0	955.0	4.2	Outcome1	12.1	-3.04	2729.5	Yes	2.0	15.1359003397508	1.012	394.169		GetAnswer	Loss
79.0	3	394.193	0.024	1457.288	12.1	-1.52	36.8477	4.0	955.0	4.2	Outcome1	12.1	-3.04	2729.5	Yes		15.1359003397508				ShowChoice	Loss
79.0	3	398.205	0.012	1461.3	12.1	-1.52	36.8477	1.0	955.0	4.2	Outcome1	12.1	-3.04	2729.5	Yes		15.1359003397508				ShowResult	Loss
79.0	3	399.225	0.02	1462.32	12.1	-1.52	36.8477	3.829	955.0	4.2	Outcome1	12.1	-3.04	2729.5	Yes		15.1359003397508				ISITrial	Loss
79.0	3	405.828	0.028	1468.923	12.1	-1.52	36.8477	1.946	955.0	4.2	Outcome1	12.1	-3.04	2729.5	Yes		15.1359003397508			632.0	TrialHappiness	Loss
79.0	3	409.84	4.012	1472.935	12.1	-1.52	36.8477	2.918	955.0	4.2	Outcome1	12.1	-3.04	2729.5	Yes		15.1359003397508				ISIRate	Loss
80.0	3	412.782	0.024	1475.877	11.75	5.88	38.3165	3.0	955.0	3.6	Outcome2	13.9	11.75	0.0	No	2.0	-2.14533786334466	1.058	413.84		GetAnswer	Loss
80.0	3	413.852	0.012	1476.947	11.75	5.88	38.3165	4.0	955.0	3.6	Outcome2	13.9	11.75	0.0	No		-2.14533786334466				ShowChoice	Loss
80.0	3	417.864	0.012	1480.959	11.75	5.88	38.3165	1.0	955.0	3.6	Outcome2	13.9	11.75	0.0	No		-2.14533786334466				ShowResult	Loss
80.0	3	418.884	0.02	1481.979	11.75	5.88	38.3165	3.336	955.0	3.6	Outcome2	13.9	11.75	0.0	No		-2.14533786334466				ISITrial	Loss
81.0	3	422.244	0.024	1485.339	8.1	0.0	39.329	3.0	955.0	4.2	Outcome1	8.1	-7.77	3923.75	Yes	2.0	15.8674971687429	1.296	423.54		GetAnswer	Gain
81.0	3	423.564	0.024	1486.659	8.1	0.0	39.329	4.0	955.0	4.2	Outcome1	8.1	-7.77	3923.75	Yes		15.8674971687429				ShowChoice	Gain
81.0	3	427.576	0.012	1490.671	8.1	0.0	39.329	1.0	955.0	4.2	Outcome1	8.1	-7.77	3923.75	Yes		15.8674971687429				ShowResult	Gain
81.0	3	428.596	0.02	1491.691	8.1	0.0	39.329	3.919	955.0	4.2	Outcome1	8.1	-7.77	3923.75	Yes		15.8674971687429				ISITrial	Gain
81.0	3	436.486	0.021	1499.581	8.1	0.0	39.329	3.838	955.0	4.2	Outcome1	8.1	-7.77	3923.75	Yes		15.8674971687429			764.0	TrialHappiness	Gain
81.0	3	440.498	4.012	1503.593	8.1	0.0	39.329	7.695	955.0	4.2	Outcome1	8.1	-7.77	3923.75	Yes		15.8674971687429				ISIRate	Gain
	3	448.221	0.028	1511.316				3.0													CurrentEarnings	
	3	451.247	0.026	1514.342				-0.001								{SPACE}		9.729	460.976		Goodbye	
