trial_number	block	onset	onset_delay	onset_unadjusted	amount_change	certain_amount	current_amount	duration	mood_target	multiplier	outcome	outcome1_amount	outcome2_amount	question_duration	rating	response	rpe	rt	rt_time	slider_response	trial_phase	trial_type
	0	-38.804	0.088	18.551				-0.001								{SPACE}		1.492	-37.312		Welcome	
	0	-37.283	0.029	20.072				5.0													LifeHappyPreview	
	0	-32.251	0.032	25.104				3.467												880.0	LifeHappiness	
	0	-14.147	0.014	43.208				4.0													BlockHappyPreview	
	0	-10.135	0.012	47.22				1.091								2{-2}		1.091	-9.044	840.0	BlockStartHappiness	
	0	-3.499	0.022	53.856				-0.001								5.0					ScanWait	
	1	0.012	0.012	57.367				10.0													GetReady	
1.0	1	10.042	0.03	67.397	0.9	0.0	10.1125	3.0	955.0	0.4	Outcome1	0.9	-1.05	0.0	No	2.0	1.95356738391846	1.568	11.61		GetAnswer	Mixed
1.0	1	11.63	0.02	68.985	0.9	0.0	10.1125	4.0	955.0	0.4	Outcome1	0.9	-1.05	0.0	No		1.95356738391846				ShowChoice	Mixed
1.0	1	15.642	0.012	72.997	0.9	0.0	10.1125	1.0	955.0	0.4	Outcome1	0.9	-1.05	0.0	No		1.95356738391846				ShowResult	Mixed
1.0	1	16.661	0.019	74.016	0.9	0.0	10.1125	2.431	955.0	0.4	Outcome1	0.9	-1.05	0.0	No		1.95356738391846				ISITrial	Mixed
2.0	1	19.119	0.027	76.474	2.0	2.0	10.3625	3.0	955.0	0.52	Certain	3.1	1.02	0.0	No	4.0	2.0838052095130197	0.888	20.007		GetAnswer	Mixed
2.0	1	20.022	0.015	77.377	2.0	2.0	10.3625	4.0	955.0	0.52	Certain	3.1	1.02	0.0	No		2.0838052095130197				ShowChoice	Mixed
2.0	1	24.05	0.028	81.405	2.0	2.0	10.3625	1.0	955.0	0.52	Certain	3.1	1.02	0.0	No		2.0838052095130197				ShowResult	Mixed
2.0	1	25.07	0.02	82.425	2.0	2.0	10.3625	4.568	955.0	0.52	Certain	3.1	1.02	0.0	No		2.0838052095130197				ISITrial	Mixed
3.0	1	29.667	0.029	87.022	13.01	6.5	11.9887	3.0	955.0	2.8	Outcome1	13.01	13.5	2868.0	Yes	2.0	-0.488391845979615	0.989	30.656		GetAnswer	Loss
3.0	1	30.67	0.014	88.025	13.01	6.5	11.9887	4.0	955.0	2.8	Outcome1	13.01	13.5	2868.0	Yes		-0.488391845979615				ShowChoice	Loss
3.0	1	34.682	0.012	92.037	13.01	6.5	11.9887	1.0	955.0	2.8	Outcome1	13.01	13.5	2868.0	Yes		-0.488391845979615				ShowResult	Loss
3.0	1	35.702	0.02	93.057	13.01	6.5	11.9887	3.243	955.0	2.8	Outcome1	13.01	13.5	2868.0	Yes		-0.488391845979615				ISITrial	Loss
3.0	1	41.853	0.024	99.208	13.01	6.5	11.9887	2.53	955.0	2.8	Outcome1	13.01	13.5	2868.0	Yes		-0.488391845979615			904.0	TrialHappiness	Loss
3.0	1	45.865	4.012	103.22	13.01	6.5	11.9887	3.472	955.0	2.8	Outcome1	13.01	13.5	2868.0	Yes		-0.488391845979615				ISIRate	Loss
4.0	1	49.359	0.022	106.714	4.7	1.72	12.5762	3.0	955.0	1.82	Outcome1	4.7	3.44	0.0	No	2.0	1.2570781426953601	1.152	50.511		GetAnswer	Gain
4.0	1	50.529	0.018	107.884	4.7	1.72	12.5762	4.0	955.0	1.82	Outcome1	4.7	3.44	0.0	No		1.2570781426953601				ShowChoice	Gain
4.0	1	54.541	0.012	111.896	4.7	1.72	12.5762	1.0	955.0	1.82	Outcome1	4.7	3.44	0.0	No		1.2570781426953601				ShowResult	Gain
4.0	1	55.561	0.02	112.916	4.7	1.72	12.5762	2.011	955.0	1.82	Outcome1	4.7	3.44	0.0	No		1.2570781426953601				ISITrial	Gain
5.0	1	57.6	0.028	114.955	10.9	4.8	13.9387	3.0	955.0	2.0	Outcome2	9.59	10.9	2582.5	Yes	2.0	1.31483578708947	0.915	58.515		GetAnswer	Loss
5.0	1	58.537	0.022	115.892	10.9	4.8	13.9387	4.0	955.0	2.0	Outcome2	9.59	10.9	2582.5	Yes		1.31483578708947				ShowChoice	Loss
5.0	1	62.549	0.012	119.904	10.9	4.8	13.9387	1.0	955.0	2.0	Outcome2	9.59	10.9	2582.5	Yes		1.31483578708947				ShowResult	Loss
5.0	1	63.568	0.019	120.923	10.9	4.8	13.9387	5.129	955.0	2.0	Outcome2	9.59	10.9	2582.5	Yes		1.31483578708947				ISITrial	Loss
5.0	1	71.325	0.026	128.68	10.9	4.8	13.9387	3.734	955.0	2.0	Outcome2	9.59	10.9	2582.5	Yes		1.31483578708947			904.0	TrialHappiness	Loss
5.0	1	75.337	4.012	132.692	10.9	4.8	13.9387	2.33	955.0	2.0	Outcome2	9.59	10.9	2582.5	Yes		1.31483578708947				ISIRate	Loss
6.0	1	77.694	0.027	135.049	9.7	4.16	15.1512	3.0	955.0	3.16	Outcome1	9.7	8.33	0.0	No	2.0	1.3725934314835802	0.892	78.586		GetAnswer	Gain
6.0	1	78.613	0.027	135.968	9.7	4.16	15.1512	4.0	955.0	3.16	Outcome1	9.7	8.33	0.0	No		1.3725934314835802				ShowChoice	Gain
6.0	1	82.625	0.012	139.98	9.7	4.16	15.1512	1.0	955.0	3.16	Outcome1	9.7	8.33	0.0	No		1.3725934314835802				ShowResult	Gain
6.0	1	83.645	0.02	141.0	9.7	4.16	15.1512	6.232	955.0	3.16	Outcome1	9.7	8.33	0.0	No		1.3725934314835802				ISITrial	Gain
7.0	1	89.897	0.02	147.252	4.65	2.33	15.7324	3.0	955.0	2.0	Outcome1	4.65	4.9	0.0	No	2.0	-0.2539637599094	0.836	90.733		GetAnswer	Gain
7.0	1	90.749	0.016	148.104	4.65	2.33	15.7324	4.0	955.0	2.0	Outcome1	4.65	4.9	0.0	No		-0.2539637599094				ShowChoice	Gain
7.0	1	94.761	0.012	152.116	4.65	2.33	15.7324	1.0	955.0	2.0	Outcome1	4.65	4.9	0.0	No		-0.2539637599094				ShowResult	Gain
7.0	1	95.781	0.02	153.136	4.65	2.33	15.7324	2.305	955.0	2.0	Outcome1	4.65	4.9	0.0	No		-0.2539637599094				ISITrial	Gain
8.0	1	98.105	0.019	155.46	1.7	1.0	15.9449	3.0	955.0	1.0	Outcome1	1.7	0.21	3112.5	Yes	2.0	1.4881087202718002	0.872	98.977		GetAnswer	Mixed
8.0	1	98.991	0.014	156.346	1.7	1.0	15.9449	4.0	955.0	1.0	Outcome1	1.7	0.21	3112.5	Yes		1.4881087202718002				ShowChoice	Mixed
8.0	1	103.003	0.012	160.358	1.7	1.0	15.9449	1.0	955.0	1.0	Outcome1	1.7	0.21	3112.5	Yes		1.4881087202718002				ShowResult	Mixed
8.0	1	104.022	0.019	161.377	1.7	1.0	15.9449	3.506	955.0	1.0	Outcome1	1.7	0.21	3112.5	Yes		1.4881087202718002				ISITrial	Mixed
8.0	1	110.676	0.014	168.031	1.7	1.0	15.9449	1.377	955.0	1.0	Outcome1	1.7	0.21	3112.5	Yes		1.4881087202718002			936.0	TrialHappiness	Mixed
8.0	1	114.688	4.012	172.043	1.7	1.0	15.9449	4.45	955.0	1.0	Outcome1	1.7	0.21	3112.5	Yes		1.4881087202718002				ISIRate	Mixed
9.0	1	119.168	0.03	176.523	-0.83	-1.0	15.8411	3.0	955.0	0.66	Outcome1	-0.83	-0.7	0.0	No	2.0	-0.133729709324273	1.554	120.722		GetAnswer	Mixed
9.0	1	120.739	0.017	178.094	-0.83	-1.0	15.8411	4.0	955.0	0.66	Outcome1	-0.83	-0.7	0.0	No		-0.133729709324273				ShowChoice	Mixed
9.0	1	124.751	0.012	182.106	-0.83	-1.0	15.8411	1.0	955.0	0.66	Outcome1	-0.83	-0.7	0.0	No		-0.133729709324273				ShowResult	Mixed
9.0	1	125.771	0.02	183.126	-0.83	-1.0	15.8411	2.0	955.0	0.66	Outcome1	-0.83	-0.7	0.0	No		-0.133729709324273				ISITrial	Mixed
10.0	1	127.793	0.022	185.148	10.36	5.18	17.1361	3.0	955.0	1.68	Outcome2	10.5	10.36	4000.0	Yes	2.0	-0.13552283880709698	1.071	128.864		GetAnswer	Loss
10.0	1	128.88	0.016	186.235	10.36	5.18	17.1361	4.0	955.0	1.68	Outcome2	10.5	10.36	4000.0	Yes		-0.13552283880709698				ShowChoice	Loss
10.0	1	132.892	0.012	190.247	10.36	5.18	17.1361	1.0	955.0	1.68	Outcome2	10.5	10.36	4000.0	Yes		-0.13552283880709698				ShowResult	Loss
10.0	1	133.912	0.02	191.267	10.36	5.18	17.1361	2.0	955.0	1.68	Outcome2	10.5	10.36	4000.0	Yes		-0.13552283880709698				ISITrial	Loss
10.0	1	139.963	0.029	197.318	10.36	5.18	17.1361	2.564	955.0	1.68	Outcome2	10.5	10.36	4000.0	Yes		-0.13552283880709698			936.0	TrialHappiness	Loss
10.0	1	143.975	4.012	201.33	10.36	5.18	17.1361	8.0	955.0	1.68	Outcome2	10.5	10.36	4000.0	Yes		-0.13552283880709698				ISIRate	Loss
11.0	1	151.999	0.024	209.354	0.36	0.0	17.1811	3.0	955.0	0.2	Outcome1	0.36	0.5	0.0	No	2.0	-0.137315968289921	1.122	153.121		GetAnswer	Mixed
11.0	1	153.136	0.015	210.491	0.36	0.0	17.1811	4.0	955.0	0.2	Outcome1	0.36	0.5	0.0	No		-0.137315968289921				ShowChoice	Mixed
11.0	1	157.148	0.012	214.503	0.36	0.0	17.1811	1.0	955.0	0.2	Outcome1	0.36	0.5	0.0	No		-0.137315968289921				ShowResult	Mixed
11.0	1	158.167	0.019	215.522	0.36	0.0	17.1811	3.324	955.0	0.2	Outcome1	0.36	0.5	0.0	No		-0.137315968289921				ISITrial	Mixed
12.0	1	161.511	0.02	218.866	-1.3	-2.0	17.0186	3.0	955.0	0.3	Outcome2	-2.37	-1.3	2618.75	Yes	2.0	1.06681766704417	1.364	162.875		GetAnswer	Mixed
12.0	1	162.898	0.023	220.253	-1.3	-2.0	17.0186	4.0	955.0	0.3	Outcome2	-2.37	-1.3	2618.75	Yes		1.06681766704417				ShowChoice	Mixed
12.0	1	166.91	0.012	224.265	-1.3	-2.0	17.0186	1.0	955.0	0.3	Outcome2	-2.37	-1.3	2618.75	Yes		1.06681766704417				ShowResult	Mixed
12.0	1	167.93	0.02	225.285	-1.3	-2.0	17.0186	6.642	955.0	0.3	Outcome2	-2.37	-1.3	2618.75	Yes		1.06681766704417				ISITrial	Mixed
12.0	1	177.241	0.022	234.596	-1.3	-2.0	17.0186	1.393	955.0	0.3	Outcome2	-2.37	-1.3	2618.75	Yes		1.06681766704417			928.0	TrialHappiness	Mixed
12.0	1	181.253	4.012	238.608	-1.3	-2.0	17.0186	2.475	955.0	0.3	Outcome2	-2.37	-1.3	2618.75	Yes		1.06681766704417				ISIRate	Mixed
13.0	1	183.744	0.016	241.099	6.34	6.34	17.8111	3.0	955.0	3.6	Certain	12.68	13.9	0.0	No	4.0	1.2242355605889	0.858	184.602		GetAnswer	Loss
13.0	1	184.613	0.011	241.968	6.34	6.34	17.8111	4.0	955.0	3.6	Certain	12.68	13.9	0.0	No		1.2242355605889				ShowChoice	Loss
13.0	1	188.625	0.012	245.98	6.34	6.34	17.8111	1.0	955.0	3.6	Certain	12.68	13.9	0.0	No		1.2242355605889				ShowResult	Loss
13.0	1	189.645	0.02	247.0	6.34	6.34	17.8111	3.48	955.0	3.6	Certain	12.68	13.9	0.0	No		1.2242355605889				ISITrial	Loss
14.0	1	193.155	0.03	250.51	6.5	2.62	18.6236	3.0	955.0	1.68	Outcome2	5.25	6.5	0.0	No	2.0	1.2548131370328401	1.031	194.186		GetAnswer	Gain
14.0	1	194.208	0.022	251.563	6.5	2.62	18.6236	4.0	955.0	1.68	Outcome2	5.25	6.5	0.0	No		1.2548131370328401				ShowChoice	Gain
14.0	1	198.22	0.012	255.575	6.5	2.62	18.6236	1.0	955.0	1.68	Outcome2	5.25	6.5	0.0	No		1.2548131370328401				ShowResult	Gain
14.0	1	199.24	0.02	256.595	6.5	2.62	18.6236	5.019	955.0	1.68	Outcome2	5.25	6.5	0.0	No		1.2548131370328401				ISITrial	Gain
15.0	1	204.288	0.029	261.643	2.3	1.0	18.9111	3.0	955.0	2.0	Outcome2	1.01	2.3	3348.5	Yes	2.0	1.2853907134767801	1.053	205.341		GetAnswer	Mixed
15.0	1	205.358	0.017	262.713	2.3	1.0	18.9111	4.0	955.0	2.0	Outcome2	1.01	2.3	3348.5	Yes		1.2853907134767801				ShowChoice	Mixed
15.0	1	209.37	0.012	266.725	2.3	1.0	18.9111	1.0	955.0	2.0	Outcome2	1.01	2.3	3348.5	Yes		1.2853907134767801				ShowResult	Mixed
15.0	1	210.39	0.02	267.745	2.3	1.0	18.9111	7.614	955.0	2.0	Outcome2	1.01	2.3	3348.5	Yes		1.2853907134767801				ISITrial	Mixed
15.0	1	221.406	0.028	278.761	2.3	1.0	18.9111	2.046	955.0	2.0	Outcome2	1.01	2.3	3348.5	Yes		1.2853907134767801			952.0	TrialHappiness	Mixed
15.0	1	225.418	4.012	282.773	2.3	1.0	18.9111	5.394	955.0	2.0	Outcome2	1.01	2.3	3348.5	Yes		1.2853907134767801				ISIRate	Mixed
16.0	1	230.834	0.022	288.189	2.7	2.0	19.2486	3.0	955.0	0.3	Outcome1	2.7	1.79	0.0	No	2.0	0.908267270668177	1.453	232.287		GetAnswer	Mixed
16.0	1	232.306	0.019	289.661	2.7	2.0	19.2486	4.0	955.0	0.3	Outcome1	2.7	1.79	0.0	No		0.908267270668177				ShowChoice	Mixed
16.0	1	236.317	0.011	293.672	2.7	2.0	19.2486	1.0	955.0	0.3	Outcome1	2.7	1.79	0.0	No		0.908267270668177				ShowResult	Mixed
16.0	1	237.337	0.02	294.692	2.7	2.0	19.2486	3.008	955.0	0.3	Outcome1	2.7	1.79	0.0	No		0.908267270668177				ISITrial	Mixed
17.0	1	240.363	0.018	297.718	12.7	5.9	20.8361	3.0	955.0	1.82	Outcome2	11.79	12.7	3041.5	Yes	2.0	0.911664779161948	1.117	241.48		GetAnswer	Loss
17.0	1	241.5	0.02	298.855	12.7	5.9	20.8361	4.0	955.0	1.82	Outcome2	11.79	12.7	3041.5	Yes		0.911664779161948				ShowChoice	Loss
17.0	1	245.512	0.012	302.867	12.7	5.9	20.8361	1.0	955.0	1.82	Outcome2	11.79	12.7	3041.5	Yes		0.911664779161948				ShowResult	Loss
17.0	1	246.531	0.019	303.886	12.7	5.9	20.8361	3.566	955.0	1.82	Outcome2	11.79	12.7	3041.5	Yes		0.911664779161948				ISITrial	Loss
17.0	1	253.168	0.017	310.523	12.7	5.9	20.8361	1.895	955.0	1.82	Outcome2	11.79	12.7	3041.5	Yes		0.911664779161948			944.0	TrialHappiness	Loss
17.0	1	257.18	4.012	314.535	12.7	5.9	20.8361	4.166	955.0	1.82	Outcome2	11.79	12.7	3041.5	Yes		0.911664779161948				ISIRate	Loss
18.0	1	261.376	0.03	318.731	6.1	2.52	21.5986	3.0	955.0	4.2	Outcome1	6.1	5.05	0.0	No	2.0	1.05096262740657	0.947	262.323		GetAnswer	Gain
18.0	1	262.345	0.022	319.7	6.1	2.52	21.5986	4.0	955.0	4.2	Outcome1	6.1	5.05	0.0	No		1.05096262740657				ShowChoice	Gain
18.0	1	266.357	0.012	323.712	6.1	2.52	21.5986	1.0	955.0	4.2	Outcome1	6.1	5.05	0.0	No		1.05096262740657				ShowResult	Gain
18.0	1	267.377	0.02	324.732	6.1	2.52	21.5986	6.787	955.0	4.2	Outcome1	6.1	5.05	0.0	No		1.05096262740657				ISITrial	Gain
19.0	1	274.181	0.017	331.536	3.38	1.69	22.0211	3.0	955.0	0.82	Outcome2	3.5	3.38	0.0	No	2.0	-0.11768591921479801	0.844	275.025		GetAnswer	Mixed
19.0	1	275.05	0.025	332.405	3.38	1.69	22.0211	4.0	955.0	0.82	Outcome2	3.5	3.38	0.0	No		-0.11768591921479801				ShowChoice	Mixed
19.0	1	279.062	0.012	336.417	3.38	1.69	22.0211	1.0	955.0	0.82	Outcome2	3.5	3.38	0.0	No		-0.11768591921479801				ShowResult	Mixed
19.0	1	280.082	0.02	337.437	3.38	1.69	22.0211	2.0	955.0	0.82	Outcome2	3.5	3.38	0.0	No		-0.11768591921479801				ISITrial	Mixed
20.0	1	282.104	0.022	339.459	9.9	4.41	23.2586	3.0	955.0	3.6	Outcome1	9.9	8.82	2921.25	Yes	2.0	1.07587768969422	1.028	283.132		GetAnswer	Gain
20.0	1	283.157	0.025	340.512	9.9	4.41	23.2586	4.0	955.0	3.6	Outcome1	9.9	8.82	2921.25	Yes		1.07587768969422				ShowChoice	Gain
20.0	1	287.169	0.012	344.524	9.9	4.41	23.2586	1.0	955.0	3.6	Outcome1	9.9	8.82	2921.25	Yes		1.07587768969422				ShowResult	Gain
20.0	1	288.189	0.02	345.544	9.9	4.41	23.2586	8.0	955.0	3.6	Outcome1	9.9	8.82	2921.25	Yes		1.07587768969422				ISITrial	Gain
20.0	1	299.155	0.021	356.51	9.9	4.41	23.2586	2.526	955.0	3.6	Outcome1	9.9	8.82	2921.25	Yes		1.07587768969422			932.0	TrialHappiness	Gain
20.0	1	303.167	4.012	360.522	9.9	4.41	23.2586	3.685	955.0	3.6	Outcome1	9.9	8.82	2921.25	Yes		1.07587768969422				ISIRate	Gain
21.0	1	306.878	0.026	364.233	5.3	2.0	23.9211	3.0	955.0	2.48	Outcome2	4.01	5.3	0.0	No	2.0	1.29218573046433	1.188	308.066		GetAnswer	Gain
21.0	1	308.082	0.016	365.437	5.3	2.0	23.9211	4.0	955.0	2.48	Outcome2	4.01	5.3	0.0	No		1.29218573046433				ShowChoice	Gain
21.0	1	312.094	0.012	369.449	5.3	2.0	23.9211	1.0	955.0	2.48	Outcome2	4.01	5.3	0.0	No		1.29218573046433				ShowResult	Gain
21.0	1	313.13	0.036	370.485	5.3	2.0	23.9211	3.555	955.0	2.48	Outcome2	4.01	5.3	0.0	No		1.29218573046433				ISITrial	Gain
22.0	1	316.708	0.023	374.063	12.5	5.59	25.4836	3.0	955.0	1.68	Outcome1	12.5	11.18	3219.5	Yes	2.0	1.3182332955832399	0.884	317.592		GetAnswer	Loss
22.0	1	317.61	0.018	374.965	12.5	5.59	25.4836	4.0	955.0	1.68	Outcome1	12.5	11.18	3219.5	Yes		1.3182332955832399				ShowChoice	Loss
22.0	1	321.622	0.012	378.977	12.5	5.59	25.4836	1.0	955.0	1.68	Outcome1	12.5	11.18	3219.5	Yes		1.3182332955832399				ShowResult	Loss
22.0	1	322.642	0.02	379.997	12.5	5.59	25.4836	6.793	955.0	1.68	Outcome1	12.5	11.18	3219.5	Yes		1.3182332955832399				ISITrial	Loss
22.0	1	332.689	0.023	390.044	12.5	5.59	25.4836	2.279	955.0	1.68	Outcome1	12.5	11.18	3219.5	Yes		1.3182332955832399			912.0	TrialHappiness	Loss
22.0	1	336.701	4.012	394.056	12.5	5.59	25.4836	4.878	955.0	1.68	Outcome1	12.5	11.18	3219.5	Yes		1.3182332955832399				ISIRate	Loss
23.0	1	341.599	0.02	398.954	12.3	5.31	27.0211	3.0	955.0	5.0	Outcome1	12.3	10.62	0.0	No	2.0	1.68403171007928	0.847	342.446		GetAnswer	Loss
23.0	1	342.468	0.022	399.823	12.3	5.31	27.0211	4.0	955.0	5.0	Outcome1	12.3	10.62	0.0	No		1.68403171007928				ShowChoice	Loss
23.0	1	346.48	0.012	403.835	12.3	5.31	27.0211	1.0	955.0	5.0	Outcome1	12.3	10.62	0.0	No		1.68403171007928				ShowResult	Loss
23.0	1	347.5	0.02	404.855	12.3	5.31	27.0211	8.0	955.0	5.0	Outcome1	12.3	10.62	0.0	No		1.68403171007928				ISITrial	Loss
24.0	1	355.524	0.024	412.879	9.3	3.78	28.1836	3.0	955.0	2.48	Outcome2	7.57	9.3	3255.0	Yes	2.0	1.7327293318233303	1.058	356.582		GetAnswer	Gain
24.0	1	356.593	0.011	413.948	9.3	3.78	28.1836	4.0	955.0	2.48	Outcome2	7.57	9.3	3255.0	Yes		1.7327293318233303				ShowChoice	Gain
24.0	1	360.605	0.012	417.96	9.3	3.78	28.1836	1.0	955.0	2.48	Outcome2	7.57	9.3	3255.0	Yes		1.7327293318233303				ShowResult	Gain
24.0	1	361.625	0.02	418.98	9.3	3.78	28.1836	2.0	955.0	2.48	Outcome2	7.57	9.3	3255.0	Yes		1.7327293318233303				ISITrial	Gain
24.0	1	366.924	0.021	424.279	9.3	3.78	28.1836	1.811	955.0	2.48	Outcome2	7.57	9.3	3255.0	Yes	2{-2}	1.7327293318233303	1.811	368.735	912.0	TrialHappiness	Gain
24.0	1	370.936	4.012	428.291	9.3	3.78	28.1836	5.02	955.0	2.48	Outcome2	7.57	9.3	3255.0	Yes		1.7327293318233303				ISIRate	Gain
25.0	1	375.985	0.029	433.34	8.04	4.02	29.1886	3.0	955.0	5.0	Outcome2	8.3	8.04	0.0	No	2.0	-0.26208003020007603	1.025	377.01		GetAnswer	Gain
25.0	1	377.021	0.011	434.376	8.04	4.02	29.1886	4.0	955.0	5.0	Outcome2	8.3	8.04	0.0	No		-0.26208003020007603				ShowChoice	Gain
25.0	1	381.033	0.012	438.388	8.04	4.02	29.1886	1.0	955.0	5.0	Outcome2	8.3	8.04	0.0	No		-0.26208003020007603				ShowResult	Gain
25.0	1	382.053	0.02	439.408	8.04	4.02	29.1886	3.749	955.0	5.0	Outcome2	8.3	8.04	0.0	No		-0.26208003020007603				ISITrial	Gain
26.0	1	385.831	0.029	443.186	6.7	2.44	30.0261	3.0	955.0	1.82	Outcome1	6.7	4.87	0.0	No	2.0	1.83012457531144	1.32	387.151		GetAnswer	Gain
26.0	1	387.168	0.017	444.523	6.7	2.44	30.0261	4.0	955.0	1.82	Outcome1	6.7	4.87	0.0	No		1.83012457531144				ShowChoice	Gain
26.0	1	391.18	0.012	448.535	6.7	2.44	30.0261	1.0	955.0	1.82	Outcome1	6.7	4.87	0.0	No		1.83012457531144				ShowResult	Gain
26.0	1	392.2	0.02	449.555	6.7	2.44	30.0261	7.834	955.0	1.82	Outcome1	6.7	4.87	0.0	No		1.83012457531144				ISITrial	Gain
27.0	1	400.056	0.022	457.411	-1.5	-2.0	29.8386	3.0	955.0	0.2	Outcome1	-1.5	-3.38	2549.75	Yes	2.0	1.87882219705549	1.957	402.013		GetAnswer	Mixed
27.0	1	402.029	0.016	459.384	-1.5	-2.0	29.8386	4.0	955.0	0.2	Outcome1	-1.5	-3.38	2549.75	Yes		1.87882219705549				ShowChoice	Mixed
27.0	1	406.041	0.012	463.396	-1.5	-2.0	29.8386	1.0	955.0	0.2	Outcome1	-1.5	-3.38	2549.75	Yes		1.87882219705549				ShowResult	Mixed
27.0	1	407.061	0.02	464.416	-1.5	-2.0	29.8386	4.225	955.0	0.2	Outcome1	-1.5	-3.38	2549.75	Yes		1.87882219705549				ISITrial	Mixed
27.0	1	413.881	0.024	471.236	-1.5	-2.0	29.8386	1.829	955.0	0.2	Outcome1	-1.5	-3.38	2549.75	Yes	2{-2}2{-2}	1.87882219705549	1.829	415.71	912.0	TrialHappiness	Mixed
27.0	1	417.893	4.012	475.248	-1.5	-2.0	29.8386	2.199	955.0	0.2	Outcome1	-1.5	-3.38	2549.75	Yes		1.87882219705549				ISIRate	Mixed
	1	420.116	0.024	477.471				-0.001								{SPACE}		29.791	449.907		Rest	
	1	449.922	0.015	507.277				4.0													BlockHappyPreview	
	1	453.934	0.012	511.289				2.131												912.0	BlockStartHappiness	
	1	460.069	0.019	517.424				-0.001								5.0		4.042	464.111		ScanWait	
	2	0.02	0.02	521.486				10.0													GetReady	
28.0	2	10.033	0.013	531.499	-5.0	-5.0	29.2136	3.0	70.0	0.82	Certain	-12.82	1.5	0.0	No	4.0	-14.3197278911565	2.241	12.274		GetAnswer	Mixed
28.0	2	12.29	0.016	533.756	-5.0	-5.0	29.2136	4.0	70.0	0.82	Certain	-12.82	1.5	0.0	No		-14.3197278911565				ShowChoice	Mixed
28.0	2	16.302	0.012	537.768	-5.0	-5.0	29.2136	1.0	70.0	0.82	Certain	-12.82	1.5	0.0	No		-14.3197278911565				ShowResult	Mixed
28.0	2	17.322	0.02	538.788	-5.0	-5.0	29.2136	3.575	70.0	0.82	Certain	-12.82	1.5	0.0	No		-14.3197278911565				ISITrial	Mixed
29.0	2	20.916	0.019	542.382	2.58	1.0	29.5361	3.0	70.0	5.0	Outcome1	2.58	-0.92	3529.0	Yes	2.0	3.5003779289493595	1.544	22.46		GetAnswer	Gain
29.0	2	22.471	0.011	543.937	2.58	1.0	29.5361	4.0	70.0	5.0	Outcome1	2.58	-0.92	3529.0	Yes		3.5003779289493595				ShowChoice	Gain
29.0	2	26.483	0.012	547.949	2.58	1.0	29.5361	1.0	70.0	5.0	Outcome1	2.58	-0.92	3529.0	Yes		3.5003779289493595				ShowResult	Gain
29.0	2	27.502	0.019	548.968	2.58	1.0	29.5361	3.955	70.0	5.0	Outcome1	2.58	-0.92	3529.0	Yes		3.5003779289493595				ISITrial	Gain
29.0	2	35.025	0.015	556.491	2.58	1.0	29.5361	1.225	70.0	5.0	Outcome1	2.58	-0.92	3529.0	Yes		3.5003779289493595			872.0	TrialHappiness	Gain
29.0	2	39.037	4.012	560.503	2.58	1.0	29.5361	6.116	70.0	5.0	Outcome1	2.58	-0.92	3529.0	Yes		3.5003779289493595				ISIRate	Gain
30.0	2	45.172	0.019	566.638	-4.05	-2.02	29.0299	3.0	70.0	2.8	Outcome2	11.5	-4.05	0.0	No	2.0	-15.548752834467098	1.707	46.879		GetAnswer	Loss
30.0	2	46.894	0.015	568.36	-4.05	-2.02	29.0299	4.0	70.0	2.8	Outcome2	11.5	-4.05	0.0	No		-15.548752834467098				ShowChoice	Loss
30.0	2	50.905	0.011	572.371	-4.05	-2.02	29.0299	1.0	70.0	2.8	Outcome2	11.5	-4.05	0.0	No		-15.548752834467098				ShowResult	Loss
30.0	2	51.925	0.02	573.391	-4.05	-2.02	29.0299	4.453	70.0	2.8	Outcome2	11.5	-4.05	0.0	No		-15.548752834467098				ISITrial	Loss
31.0	2	56.405	0.027	577.871	-8.76	0.0	27.9349	3.0	70.0	3.16	Outcome1	-8.76	7.7	2503.25	Yes	2.0	-16.4580498866213	1.52	57.925		GetAnswer	Gain
31.0	2	57.943	0.018	579.409	-8.76	0.0	27.9349	4.0	70.0	3.16	Outcome1	-8.76	7.7	2503.25	Yes		-16.4580498866213				ShowChoice	Gain
31.0	2	61.955	0.012	583.421	-8.76	0.0	27.9349	1.0	70.0	3.16	Outcome1	-8.76	7.7	2503.25	Yes		-16.4580498866213				ShowResult	Gain
31.0	2	62.975	0.02	584.441	-8.76	0.0	27.9349	4.786	70.0	3.16	Outcome1	-8.76	7.7	2503.25	Yes		-16.4580498866213				ISITrial	Gain
31.0	2	70.297	0.021	591.763	-8.76	0.0	27.9349	1.309	70.0	3.16	Outcome1	-8.76	7.7	2503.25	Yes	2{-2}	-16.4580498866213	1.309	71.606	912.0	TrialHappiness	Gain
31.0	2	74.309	4.012	595.775	-8.76	0.0	27.9349	2.013	70.0	3.16	Outcome1	-8.76	7.7	2503.25	Yes		-16.4580498866213				ISIRate	Gain
32.0	2	76.348	0.026	597.814	-5.15	-2.58	27.2911	3.0	70.0	2.0	Outcome2	12.9	-5.15	0.0	No	2.0	-18.047619047618998	1.793	78.141		GetAnswer	Loss
32.0	2	78.154	0.013	599.62	-5.15	-2.58	27.2911	4.0	70.0	2.0	Outcome2	12.9	-5.15	0.0	No		-18.047619047618998				ShowChoice	Loss
32.0	2	82.166	0.012	603.632	-5.15	-2.58	27.2911	1.0	70.0	2.0	Outcome2	12.9	-5.15	0.0	No		-18.047619047618998				ShowResult	Loss
32.0	2	83.185	0.019	604.651	-5.15	-2.58	27.2911	2.0	70.0	2.0	Outcome2	12.9	-5.15	0.0	No		-18.047619047618998				ISITrial	Loss
33.0	2	85.208	0.023	606.674	-0.22	-2.0	27.2636	3.0	70.0	0.52	Outcome1	-0.22	-4.03	0.0	No	2.0	3.8110355253212402	1.604	86.812		GetAnswer	Mixed
33.0	2	86.829	0.017	608.295	-0.22	-2.0	27.2636	4.0	70.0	0.52	Outcome1	-0.22	-4.03	0.0	No		3.8110355253212402				ShowChoice	Mixed
33.0	2	90.841	0.012	612.307	-0.22	-2.0	27.2636	1.0	70.0	0.52	Outcome1	-0.22	-4.03	0.0	No		3.8110355253212402				ShowResult	Mixed
33.0	2	91.861	0.02	613.327	-0.22	-2.0	27.2636	5.099	70.0	0.52	Outcome1	-0.22	-4.03	0.0	No		3.8110355253212402				ISITrial	Mixed
34.0	2	96.976	0.016	618.442	-14.86	-5.0	25.4061	3.0	70.0	2.22	Outcome1	-14.86	5.1	3231.5	Yes	2.0	-19.9569160997732	1.313	98.289		GetAnswer	Gain
34.0	2	98.314	0.025	619.78	-14.86	-5.0	25.4061	4.0	70.0	2.22	Outcome1	-14.86	5.1	3231.5	Yes		-19.9569160997732				ShowChoice	Gain
34.0	2	102.326	0.012	623.792	-14.86	-5.0	25.4061	1.0	70.0	2.22	Outcome1	-14.86	5.1	3231.5	Yes		-19.9569160997732				ShowResult	Gain
34.0	2	103.345	0.019	624.811	-14.86	-5.0	25.4061	4.784	70.0	2.22	Outcome1	-14.86	5.1	3231.5	Yes		-19.9569160997732				ISITrial	Gain
34.0	2	111.403	0.028	632.869	-14.86	-5.0	25.4061	1.61	70.0	2.22	Outcome1	-14.86	5.1	3231.5	Yes		-19.9569160997732			896.0	TrialHappiness	Gain
34.0	2	115.415	4.012	636.881	-14.86	-5.0	25.4061	4.926	70.0	2.22	Outcome1	-14.86	5.1	3231.5	Yes		-19.9569160997732				ISIRate	Gain
35.0	2	120.363	0.022	641.829	0.48	-1.0	25.4661	3.0	70.0	1.2	Outcome2	-3.43	0.48	0.0	No	2.0	3.90513983371126	1.297	121.66		GetAnswer	Mixed
35.0	2	121.684	0.024	643.15	0.48	-1.0	25.4661	4.0	70.0	1.2	Outcome2	-3.43	0.48	0.0	No		3.90513983371126				ShowChoice	Mixed
35.0	2	125.696	0.012	647.162	0.48	-1.0	25.4661	1.0	70.0	1.2	Outcome2	-3.43	0.48	0.0	No		3.90513983371126				ShowResult	Mixed
35.0	2	126.715	0.019	648.181	0.48	-1.0	25.4661	2.098	70.0	1.2	Outcome2	-3.43	0.48	0.0	No		3.90513983371126				ISITrial	Mixed
36.0	2	128.838	0.025	650.304	-3.0	-3.0	25.0911	3.0	70.0	2.48	Certain	-14.28	7.3	3335.75	Yes	4.0	-21.575963718820898	2.263	131.101		GetAnswer	Gain
36.0	2	131.112	0.011	652.578	-3.0	-3.0	25.0911	4.0	70.0	2.48	Certain	-14.28	7.3	3335.75	Yes		-21.575963718820898				ShowChoice	Gain
36.0	2	135.124	0.012	656.59	-3.0	-3.0	25.0911	1.0	70.0	2.48	Certain	-14.28	7.3	3335.75	Yes		-21.575963718820898				ShowResult	Gain
36.0	2	136.143	0.019	657.609	-3.0	-3.0	25.0911	5.156	70.0	2.48	Certain	-14.28	7.3	3335.75	Yes		-21.575963718820898				ISITrial	Gain
36.0	2	144.669	0.024	666.135	-3.0	-3.0	25.0911	3.55	70.0	2.48	Certain	-14.28	7.3	3335.75	Yes		-21.575963718820898			864.0	TrialHappiness	Gain
36.0	2	148.681	4.012	670.147	-3.0	-3.0	25.0911	5.343	70.0	2.48	Certain	-14.28	7.3	3335.75	Yes		-21.575963718820898				ISIRate	Gain
37.0	2	154.047	0.023	675.513	2.92	1.0	25.4561	3.0	70.0	3.16	Outcome2	-1.01	2.92	0.0	No	2.0	3.9312169312169303	2.149	156.196		GetAnswer	Loss
37.0	2	156.22	0.024	677.686	2.92	1.0	25.4561	4.0	70.0	3.16	Outcome2	-1.01	2.92	0.0	No		3.9312169312169303				ShowChoice	Loss
37.0	2	160.232	0.012	681.698	2.92	1.0	25.4561	1.0	70.0	3.16	Outcome2	-1.01	2.92	0.0	No		3.9312169312169303				ShowResult	Loss
37.0	2	161.252	0.02	682.718	2.92	1.0	25.4561	3.598	70.0	3.16	Outcome2	-1.01	2.92	0.0	No		3.9312169312169303				ISITrial	Loss
38.0	2	164.879	0.029	686.345	-18.97	-7.0	23.0848	3.0	70.0	1.2	Outcome1	-18.97	3.9	0.0	No	2.0	-22.868480725623602	2.526	167.405		GetAnswer	Mixed
38.0	2	167.42	0.015	688.886	-18.97	-7.0	23.0848	4.0	70.0	1.2	Outcome1	-18.97	3.9	0.0	No		-22.868480725623602				ShowChoice	Mixed
38.0	2	171.432	0.012	692.898	-18.97	-7.0	23.0848	1.0	70.0	1.2	Outcome1	-18.97	3.9	0.0	No		-22.868480725623602				ShowResult	Mixed
38.0	2	172.452	0.02	693.918	-18.97	-7.0	23.0848	4.787	70.0	1.2	Outcome1	-18.97	3.9	0.0	No		-22.868480725623602				ISITrial	Mixed
39.0	2	177.266	0.027	698.732	-15.87	-4.0	21.101	3.0	70.0	3.6	Outcome2	7.9	-15.87	2864.25	Yes	2.0	-23.768707482993197	1.443	178.709		GetAnswer	Gain
39.0	2	178.737	0.028	700.203	-15.87	-4.0	21.101	4.0	70.0	3.6	Outcome2	7.9	-15.87	2864.25	Yes		-23.768707482993197				ShowChoice	Gain
39.0	2	182.749	0.012	704.215	-15.87	-4.0	21.101	1.0	70.0	3.6	Outcome2	7.9	-15.87	2864.25	Yes		-23.768707482993197				ShowResult	Gain
39.0	2	183.769	0.02	705.235	-15.87	-4.0	21.101	2.348	70.0	3.6	Outcome2	7.9	-15.87	2864.25	Yes		-23.768707482993197				ISITrial	Gain
39.0	2	189.035	0.028	710.501	-15.87	-4.0	21.101	1.375	70.0	3.6	Outcome2	7.9	-15.87	2864.25	Yes		-23.768707482993197			912.0	TrialHappiness	Gain
39.0	2	193.047	4.012	714.513	-15.87	-4.0	21.101	3.457	70.0	3.6	Outcome2	7.9	-15.87	2864.25	Yes		-23.768707482993197				ISIRate	Gain
40.0	2	196.524	0.02	717.99	-19.19	-6.0	18.7022	3.0	70.0	5.0	Outcome1	-19.19	6.3	0.0	No	2.0	-25.485260770975103	1.606	198.13		GetAnswer	Gain
40.0	2	198.145	0.015	719.611	-19.19	-6.0	18.7022	4.0	70.0	5.0	Outcome1	-19.19	6.3	0.0	No		-25.485260770975103				ShowChoice	Gain
40.0	2	202.157	0.012	723.623	-19.19	-6.0	18.7022	1.0	70.0	5.0	Outcome1	-19.19	6.3	0.0	No		-25.485260770975103				ShowResult	Gain
40.0	2	203.177	0.02	724.643	-19.19	-6.0	18.7022	3.158	70.0	5.0	Outcome1	-19.19	6.3	0.0	No		-25.485260770975103				ISITrial	Gain
41.0	2	206.353	0.018	727.819	-13.0	-13.0	17.0772	3.0	70.0	1.5	Certain	0.1	-26.34	4000.0	Yes	4.0	-26.439909297052196	2.091	208.444		GetAnswer	Mixed
41.0	2	208.459	0.015	729.925	-13.0	-13.0	17.0772	4.0	70.0	1.5	Certain	0.1	-26.34	4000.0	Yes		-26.439909297052196				ShowChoice	Mixed
41.0	2	212.471	0.012	733.937	-13.0	-13.0	17.0772	1.0	70.0	1.5	Certain	0.1	-26.34	4000.0	Yes		-26.439909297052196				ShowResult	Mixed
41.0	2	213.491	0.02	734.957	-13.0	-13.0	17.0772	4.506	70.0	1.5	Certain	0.1	-26.34	4000.0	Yes		-26.439909297052196				ISITrial	Mixed
41.0	2	222.05	0.029	743.516	-13.0	-13.0	17.0772	2.029	70.0	1.5	Certain	0.1	-26.34	4000.0	Yes		-26.439909297052196			888.0	TrialHappiness	Mixed
41.0	2	226.062	4.012	747.528	-13.0	-13.0	17.0772	8.0	70.0	1.5	Certain	0.1	-26.34	4000.0	Yes		-26.439909297052196				ISIRate	Mixed
42.0	2	234.086	0.024	755.552	0.92	-1.0	17.1922	3.0	70.0	1.0	Outcome1	0.92	-3.49	0.0	No	2.0	4.41288737717309	1.237	235.323		GetAnswer	Mixed
42.0	2	235.34	0.017	756.806	0.92	-1.0	17.1922	4.0	70.0	1.0	Outcome1	0.92	-3.49	0.0	No		4.41288737717309				ShowChoice	Mixed
42.0	2	239.352	0.012	760.818	0.92	-1.0	17.1922	1.0	70.0	1.0	Outcome1	0.92	-3.49	0.0	No		4.41288737717309				ShowResult	Mixed
42.0	2	240.371	0.019	761.837	0.92	-1.0	17.1922	6.248	70.0	1.0	Outcome1	0.92	-3.49	0.0	No		4.41288737717309				ISITrial	Mixed
43.0	2	246.64	0.021	768.106	-2.0	-2.0	16.9422	3.0	70.0	0.3	Certain	-4.31	0.18	2775.75	Yes	4.0	4.4901738473167	1.558	248.198		GetAnswer	Mixed
43.0	2	248.211	0.013	769.677	-2.0	-2.0	16.9422	4.0	70.0	0.3	Certain	-4.31	0.18	2775.75	Yes		4.4901738473167				ShowChoice	Mixed
43.0	2	252.223	0.012	773.689	-2.0	-2.0	16.9422	1.0	70.0	0.3	Certain	-4.31	0.18	2775.75	Yes		4.4901738473167				ShowResult	Mixed
43.0	2	253.243	0.02	774.709	-2.0	-2.0	16.9422	4.596	70.0	0.3	Certain	-4.31	0.18	2775.75	Yes		4.4901738473167				ISITrial	Mixed
43.0	2	260.649	0.016	782.115	-2.0	-2.0	16.9422	1.927	70.0	0.3	Certain	-4.31	0.18	2775.75	Yes		4.4901738473167			848.0	TrialHappiness	Mixed
43.0	2	264.661	4.012	786.127	-2.0	-2.0	16.9422	3.103	70.0	0.3	Certain	-4.31	0.18	2775.75	Yes		4.4901738473167				ISIRate	Mixed
44.0	2	267.787	0.023	789.253	-21.06	-7.0	14.3097	3.0	70.0	2.22	Outcome2	7.1	-21.06	0.0	No	2.0	-28.1609977324263	1.096	268.883		GetAnswer	Gain
44.0	2	268.907	0.024	790.373	-21.06	-7.0	14.3097	4.0	70.0	2.22	Outcome2	7.1	-21.06	0.0	No		-28.1609977324263				ShowChoice	Gain
44.0	2	272.919	0.012	794.385	-21.06	-7.0	14.3097	1.0	70.0	2.22	Outcome2	7.1	-21.06	0.0	No		-28.1609977324263				ShowResult	Gain
44.0	2	273.938	0.019	795.404	-21.06	-7.0	14.3097	2.42	70.0	2.22	Outcome2	7.1	-21.06	0.0	No		-28.1609977324263				ISITrial	Gain
45.0	2	276.379	0.021	797.845	1.42	-1.0	14.4872	3.0	70.0	3.16	Outcome1	1.42	-3.06	0.0	No	2.0	4.47845804988662	1.241	277.62		GetAnswer	Gain
45.0	2	277.633	0.013	799.099	1.42	-1.0	14.4872	4.0	70.0	3.16	Outcome1	1.42	-3.06	0.0	No		4.47845804988662				ShowChoice	Gain
45.0	2	281.645	0.012	803.111	1.42	-1.0	14.4872	1.0	70.0	3.16	Outcome1	1.42	-3.06	0.0	No		4.47845804988662				ShowResult	Gain
45.0	2	282.664	0.019	804.13	1.42	-1.0	14.4872	3.144	70.0	3.16	Outcome1	1.42	-3.06	0.0	No		4.47845804988662				ISITrial	Gain
46.0	2	285.824	0.016	807.29	-2.0	-2.0	14.2372	3.0	70.0	0.52	Certain	0.28	-4.27	3841.25	Yes	4.0	4.55196523053666	1.546	287.37		GetAnswer	Mixed
46.0	2	287.395	0.025	808.861	-2.0	-2.0	14.2372	4.0	70.0	0.52	Certain	0.28	-4.27	3841.25	Yes		4.55196523053666				ShowChoice	Mixed
46.0	2	291.407	0.012	812.873	-2.0	-2.0	14.2372	1.0	70.0	0.52	Certain	0.28	-4.27	3841.25	Yes		4.55196523053666				ShowResult	Mixed
46.0	2	292.427	0.02	813.893	-2.0	-2.0	14.2372	2.246	70.0	0.52	Certain	0.28	-4.27	3841.25	Yes		4.55196523053666				ISITrial	Mixed
46.0	2	298.562	0.021	820.028	-2.0	-2.0	14.2372	1.928	70.0	0.52	Certain	0.28	-4.27	3841.25	Yes		4.55196523053666			872.0	TrialHappiness	Mixed
46.0	2	302.574	4.012	824.04	-2.0	-2.0	14.2372	7.365	70.0	0.52	Certain	0.28	-4.27	3841.25	Yes		4.55196523053666				ISIRate	Mixed
47.0	2	309.962	0.023	831.428	-1.0	-1.0	14.1122	3.0	70.0	0.4	Certain	0.72	-4.0	0.0	No	4.0	4.7229780801209404	1.719	311.681		GetAnswer	Mixed
47.0	2	311.701	0.02	833.167	-1.0	-1.0	14.1122	4.0	70.0	0.4	Certain	0.72	-4.0	0.0	No		4.7229780801209404				ShowChoice	Mixed
47.0	2	315.713	0.012	837.179	-1.0	-1.0	14.1122	1.0	70.0	0.4	Certain	0.72	-4.0	0.0	No		4.7229780801209404				ShowResult	Mixed
47.0	2	316.733	0.02	838.199	-1.0	-1.0	14.1122	2.0	70.0	0.4	Certain	0.72	-4.0	0.0	No		4.7229780801209404				ISITrial	Mixed
48.0	2	318.755	0.022	840.221	-24.62	-8.0	11.0347	3.0	70.0	2.8	Outcome1	-24.62	7.5	2831.75	Yes	2.0	-32.124716553288	1.592	320.347		GetAnswer	Gain
48.0	2	320.36	0.013	841.826	-24.62	-8.0	11.0347	4.0	70.0	2.8	Outcome1	-24.62	7.5	2831.75	Yes		-32.124716553288				ShowChoice	Gain
48.0	2	324.372	0.012	845.838	-24.62	-8.0	11.0347	1.0	70.0	2.8	Outcome1	-24.62	7.5	2831.75	Yes		-32.124716553288				ShowResult	Gain
48.0	2	325.392	0.02	846.858	-24.62	-8.0	11.0347	3.692	70.0	2.8	Outcome1	-24.62	7.5	2831.75	Yes		-32.124716553288				ISITrial	Gain
48.0	2	331.962	0.027	853.428	-24.62	-8.0	11.0347	2.847	70.0	2.8	Outcome1	-24.62	7.5	2831.75	Yes		-32.124716553288			904.0	TrialHappiness	Gain
48.0	2	335.974	4.012	857.44	-24.62	-8.0	11.0347	3.327	70.0	2.8	Outcome1	-24.62	7.5	2831.75	Yes		-32.124716553288				ISIRate	Gain
49.0	2	339.317	0.016	860.783	-5.0	-5.0	10.4097	3.0	70.0	3.6	Certain	-21.68	11.9	0.0	No	4.0	-33.578231292516996	1.827	341.144		GetAnswer	Loss
49.0	2	341.156	0.012	862.622	-5.0	-5.0	10.4097	4.0	70.0	3.6	Certain	-21.68	11.9	0.0	No		-33.578231292516996				ShowChoice	Loss
49.0	2	345.168	0.012	866.634	-5.0	-5.0	10.4097	1.0	70.0	3.6	Certain	-21.68	11.9	0.0	No		-33.578231292516996				ShowResult	Loss
49.0	2	346.187	0.019	867.653	-5.0	-5.0	10.4097	8.0	70.0	3.6	Certain	-21.68	11.9	0.0	No		-33.578231292516996				ISITrial	Loss
50.0	2	354.211	0.024	875.677	-34.62	-17.0	6.0822	3.0	70.0	1.2	Outcome2	-0.1	-34.62	3547.25	Yes	2.0	-34.5238095238095	2.054	356.265		GetAnswer	Mixed
50.0	2	356.284	0.019	877.75	-34.62	-17.0	6.0822	4.0	70.0	1.2	Outcome2	-0.1	-34.62	3547.25	Yes		-34.5238095238095				ShowChoice	Mixed
50.0	2	360.296	0.012	881.762	-34.62	-17.0	6.0822	1.0	70.0	1.2	Outcome2	-0.1	-34.62	3547.25	Yes		-34.5238095238095				ShowResult	Mixed
50.0	2	361.316	0.02	882.782	-34.62	-17.0	6.0822	7.537	70.0	1.2	Outcome2	-0.1	-34.62	3547.25	Yes		-34.5238095238095				ISITrial	Mixed
50.0	2	372.432	0.013	893.898	-34.62	-17.0	6.0822	1.71	70.0	1.2	Outcome2	-0.1	-34.62	3547.25	Yes	2{-2}	-34.5238095238095	1.71	374.142	904.0	TrialHappiness	Mixed
50.0	2	376.444	4.012	897.91	-34.62	-17.0	6.0822	6.189	70.0	1.2	Outcome2	-0.1	-34.62	3547.25	Yes		-34.5238095238095				ISIRate	Mixed
51.0	2	382.663	0.03	904.129	-32.17	-14.0	2.061	3.0	70.0	0.66	Outcome1	-32.17	3.3	0.0	No	2.0	-35.469387755102	2.175	384.838		GetAnswer	Mixed
51.0	2	384.853	0.015	906.319	-32.17	-14.0	2.061	4.0	70.0	0.66	Outcome1	-32.17	3.3	0.0	No		-35.469387755102				ShowChoice	Mixed
51.0	2	388.865	0.012	910.331	-32.17	-14.0	2.061	1.0	70.0	0.66	Outcome1	-32.17	3.3	0.0	No		-35.469387755102				ShowResult	Mixed
51.0	2	389.885	0.02	911.351	-32.17	-14.0	2.061	5.508	70.0	0.66	Outcome1	-32.17	3.3	0.0	No		-35.469387755102				ISITrial	Mixed
52.0	2	395.418	0.025	916.884	-18.0	-18.0	-0.18899999999999997	3.0	70.0	0.82	Certain	-0.5	-36.92	0.0	No	4.0	-36.4149659863946	2.228	397.646		GetAnswer	Mixed
52.0	2	397.658	0.012	919.124	-18.0	-18.0	-0.18899999999999997	4.0	70.0	0.82	Certain	-0.5	-36.92	0.0	No		-36.4149659863946				ShowChoice	Mixed
52.0	2	401.67	0.012	923.136	-18.0	-18.0	-0.18899999999999997	1.0	70.0	0.82	Certain	-0.5	-36.92	0.0	No		-36.4149659863946				ShowResult	Mixed
52.0	2	402.689	0.019	924.155	-18.0	-18.0	-0.18899999999999997	5.913	70.0	0.82	Certain	-0.5	-36.92	0.0	No		-36.4149659863946				ISITrial	Mixed
53.0	2	408.624	0.022	930.09	-7.0	-7.0	-1.064	3.0	70.0	2.48	Certain	11.3	-26.06	2996.75	Yes	4.0	-37.3605442176871	2.417	411.041		GetAnswer	Loss
53.0	2	411.064	0.023	932.53	-7.0	-7.0	-1.064	4.0	70.0	2.48	Certain	11.3	-26.06	2996.75	Yes		-37.3605442176871				ShowChoice	Loss
53.0	2	415.076	0.012	936.542	-7.0	-7.0	-1.064	1.0	70.0	2.48	Certain	11.3	-26.06	2996.75	Yes		-37.3605442176871				ShowResult	Loss
53.0	2	416.096	0.02	937.562	-7.0	-7.0	-1.064	3.66	70.0	2.48	Certain	11.3	-26.06	2996.75	Yes		-37.3605442176871				ISITrial	Loss
53.0	2	422.799	0.028	944.265	-7.0	-7.0	-1.064	1.879	70.0	2.48	Certain	11.3	-26.06	2996.75	Yes		-37.3605442176871			864.0	TrialHappiness	Loss
53.0	2	426.811	4.012	948.277	-7.0	-7.0	-1.064	3.987	70.0	2.48	Certain	11.3	-26.06	2996.75	Yes		-37.3605442176871				ISIRate	Loss
54.0	2	430.823	0.025	952.289	-24.53	-5.0	-4.1302	3.0	70.0	2.22	Outcome1	-24.53	13.1	0.0	No	2.0	-37.625850340136104	1.615	432.438		GetAnswer	Loss
54.0	2	432.462	0.024	953.928	-24.53	-5.0	-4.1302	4.0	70.0	2.22	Outcome1	-24.53	13.1	0.0	No		-37.625850340136104				ShowChoice	Loss
54.0	2	436.474	0.012	957.94	-24.53	-5.0	-4.1302	1.0	70.0	2.22	Outcome1	-24.53	13.1	0.0	No		-37.625850340136104				ShowResult	Loss
54.0	2	437.493	0.019	958.959	-24.53	-5.0	-4.1302	8.0	70.0	2.22	Outcome1	-24.53	13.1	0.0	No		-37.625850340136104				ISITrial	Loss
	2	445.517	0.024	966.983				-0.001								{SPACE}		31.354	476.871		Rest	
	2	476.894	0.023	998.36				4.0													BlockHappyPreview	
	2	480.906	0.012	1002.372				1.996								2{-2}2{-2}		1.996	482.902	904.0	BlockStartHappiness	
	2	487.008	0.026	1008.474				-0.001								5.0		2.29	489.298		ScanWait	
	3	0.017	0.017	1010.781				10.0													GetReady	
55.0	3	10.03	0.013	1020.794	10.89	5.44	-2.7689999999999997	3.0	955.0	2.22	Outcome2	11.1	10.89	2533.25	Yes	2.0	-0.206964892412231	1.428	11.458		GetAnswer	Loss
55.0	3	11.484	0.026	1022.248	10.89	5.44	-2.7689999999999997	4.0	955.0	2.22	Outcome2	11.1	10.89	2533.25	Yes		-0.206964892412231				ShowChoice	Loss
55.0	3	15.496	0.012	1026.26	10.89	5.44	-2.7689999999999997	1.0	955.0	2.22	Outcome2	11.1	10.89	2533.25	Yes		-0.206964892412231				ShowResult	Loss
55.0	3	16.516	0.02	1027.28	10.89	5.44	-2.7689999999999997	7.709	955.0	2.22	Outcome2	11.1	10.89	2533.25	Yes		-0.206964892412231				ISITrial	Loss
55.0	3	26.797	0.025	1037.561	10.89	5.44	-2.7689999999999997	1.377	955.0	2.22	Outcome2	11.1	10.89	2533.25	Yes		-0.206964892412231			952.0	TrialHappiness	Loss
55.0	3	30.809	4.012	1041.573	10.89	5.44	-2.7689999999999997	2.133	955.0	2.22	Outcome2	11.1	10.89	2533.25	Yes		-0.206964892412231				ISIRate	Loss
56.0	3	32.965	0.023	1043.729	4.28	2.14	-2.234	3.0	955.0	2.0	Outcome1	4.28	4.3	0.0	No		-0.0169875424688562				GetAnswer	Mixed
56.0	3	35.991	0.026	1046.755	4.28	2.14	-2.234	4.0	955.0	2.0	Outcome1	4.28	4.3	0.0	No		-0.0169875424688562				ShowChoice	Mixed
56.0	3	40.003	0.012	1050.767	4.28	2.14	-2.234	1.0	955.0	2.0	Outcome1	4.28	4.3	0.0	No		-0.0169875424688562				ShowResult	Mixed
56.0	3	41.023	0.02	1051.787	4.28	2.14	-2.234	4.697	955.0	2.0	Outcome1	4.28	4.3	0.0	No		-0.0169875424688562				ISITrial	Mixed
57.0	3	45.737	0.017	1056.501	10.1	5.0	-0.9715	3.0	955.0	4.2	Outcome2	9.99	10.1	0.0	No	2.0	0.11211778029445099	0.744	46.481		GetAnswer	Gain
57.0	3	46.506	0.025	1057.27	10.1	5.0	-0.9715	4.0	955.0	4.2	Outcome2	9.99	10.1	0.0	No		0.11211778029445099				ShowChoice	Gain
57.0	3	50.518	0.012	1061.282	10.1	5.0	-0.9715	1.0	955.0	4.2	Outcome2	9.99	10.1	0.0	No		0.11211778029445099				ShowResult	Gain
57.0	3	51.537	0.019	1062.301	10.1	5.0	-0.9715	4.291	955.0	4.2	Outcome2	9.99	10.1	0.0	No		0.11211778029445099				ISITrial	Gain
58.0	3	55.85	0.022	1066.614	4.48	2.24	-0.4115	3.0	955.0	1.68	Outcome2	4.5	4.48	3045.75	Yes	2.0	-0.0175537938844847	1.381	57.231		GetAnswer	Gain
58.0	3	57.254	0.023	1068.018	4.48	2.24	-0.4115	4.0	955.0	1.68	Outcome2	4.5	4.48	3045.75	Yes		-0.0175537938844847				ShowChoice	Gain
58.0	3	61.266	0.012	1072.03	4.48	2.24	-0.4115	1.0	955.0	1.68	Outcome2	4.5	4.48	3045.75	Yes		-0.0175537938844847				ShowResult	Gain
58.0	3	62.286	0.02	1073.05	4.48	2.24	-0.4115	2.037	955.0	1.68	Outcome2	4.5	4.48	3045.75	Yes		-0.0175537938844847				ISITrial	Gain
58.0	3	67.401	0.013	1078.165	4.48	2.24	-0.4115	1.159	955.0	1.68	Outcome2	4.5	4.48	3045.75	Yes	2{-2}	-0.0175537938844847	1.159	68.56	864.0	TrialHappiness	Gain
58.0	3	71.413	4.012	1082.177	4.48	2.24	-0.4115	4.183	955.0	1.68	Outcome2	4.5	4.48	3045.75	Yes		-0.0175537938844847				ISIRate	Gain
59.0	3	75.626	0.03	1086.39	8.1	3.24	0.601	3.0	955.0	4.2	Outcome1	8.1	6.49	0.0	No	2.0	1.6138165345413402	0.974	76.6		GetAnswer	Gain
59.0	3	76.612	0.012	1087.376	8.1	3.24	0.601	4.0	955.0	4.2	Outcome1	8.1	6.49	0.0	No		1.6138165345413402				ShowChoice	Gain
59.0	3	80.624	0.012	1091.388	8.1	3.24	0.601	1.0	955.0	4.2	Outcome1	8.1	6.49	0.0	No		1.6138165345413402				ShowResult	Gain
59.0	3	81.644	0.02	1092.408	8.1	3.24	0.601	5.064	955.0	4.2	Outcome1	8.1	6.49	0.0	No		1.6138165345413402				ISITrial	Gain
60.0	3	86.726	0.018	1097.49	6.9	2.59	1.4635	3.0	955.0	2.0	Outcome2	5.18	6.9	3562.5	Yes	2.0	1.71687429218573	0.946	87.672		GetAnswer	Gain
60.0	3	87.695	0.023	1098.459	6.9	2.59	1.4635	4.0	955.0	2.0	Outcome2	5.18	6.9	3562.5	Yes		1.71687429218573				ShowChoice	Gain
60.0	3	91.707	0.012	1102.471	6.9	2.59	1.4635	1.0	955.0	2.0	Outcome2	5.18	6.9	3562.5	Yes		1.71687429218573				ShowResult	Gain
60.0	3	92.727	0.02	1103.491	6.9	2.59	1.4635	8.0	955.0	2.0	Outcome2	5.18	6.9	3562.5	Yes		1.71687429218573				ISITrial	Gain
60.0	3	104.328	0.015	1115.092	6.9	2.59	1.4635	1.51	955.0	2.0	Outcome2	5.18	6.9	3562.5	Yes		1.71687429218573			952.0	TrialHappiness	Gain
60.0	3	108.34	4.012	1119.104	6.9	2.59	1.4635	6.25	955.0	2.0	Outcome2	5.18	6.9	3562.5	Yes		1.71687429218573				ISIRate	Gain
61.0	3	114.609	0.019	1125.373	9.1	4.39	2.6010000000000004	3.0	955.0	2.22	Outcome1	9.1	8.78	0.0	No	2.0	0.325028312570781	0.792	115.401		GetAnswer	Gain
61.0	3	115.428	0.027	1126.192	9.1	4.39	2.6010000000000004	4.0	955.0	2.22	Outcome1	9.1	8.78	0.0	No		0.325028312570781				ShowChoice	Gain
61.0	3	119.44	0.012	1130.204	9.1	4.39	2.6010000000000004	1.0	955.0	2.22	Outcome1	9.1	8.78	0.0	No		0.325028312570781				ShowResult	Gain
61.0	3	120.46	0.02	1131.224	9.1	4.39	2.6010000000000004	4.586	955.0	2.22	Outcome1	9.1	8.78	0.0	No		0.325028312570781				ISITrial	Gain
62.0	3	125.074	0.028	1135.838	9.46	4.73	3.7835	3.0	955.0	2.8	Outcome1	9.46	9.5	3748.75	Yes	2.0	-0.0352963382408456	1.057	126.131		GetAnswer	Gain
62.0	3	126.143	0.012	1136.907	9.46	4.73	3.7835	4.0	955.0	2.8	Outcome1	9.46	9.5	3748.75	Yes		-0.0352963382408456				ShowChoice	Gain
62.0	3	130.155	0.012	1140.919	9.46	4.73	3.7835	1.0	955.0	2.8	Outcome1	9.46	9.5	3748.75	Yes		-0.0352963382408456				ShowResult	Gain
62.0	3	131.175	0.02	1141.939	9.46	4.73	3.7835	5.212	955.0	2.8	Outcome1	9.46	9.5	3748.75	Yes		-0.0352963382408456				ISITrial	Gain
62.0	3	140.185	0.029	1150.949	9.46	4.73	3.7835	2.028	955.0	2.8	Outcome1	9.46	9.5	3748.75	Yes		-0.0352963382408456			952.0	TrialHappiness	Gain
62.0	3	144.197	4.012	1154.961	9.46	4.73	3.7835	6.995	955.0	2.8	Outcome1	9.46	9.5	3748.75	Yes		-0.0352963382408456				ISIRate	Gain
63.0	3	151.218	0.026	1161.982	8.7	4.18	4.871	3.0	955.0	1.82	Outcome2	8.37	8.7	0.0	No	2.0	0.33182332955832394	0.439	151.657		GetAnswer	Gain
63.0	3	151.67	0.013	1162.434	8.7	4.18	4.871	4.0	955.0	1.82	Outcome2	8.37	8.7	0.0	No		0.33182332955832394				ShowChoice	Gain
63.0	3	155.682	0.012	1166.446	8.7	4.18	4.871	1.0	955.0	1.82	Outcome2	8.37	8.7	0.0	No		0.33182332955832394				ShowResult	Gain
63.0	3	156.701	0.019	1167.465	8.7	4.18	4.871	5.595	955.0	1.82	Outcome2	8.37	8.7	0.0	No		0.33182332955832394				ISITrial	Gain
64.0	3	162.318	0.022	1173.082	13.3	6.48	6.5335	3.0	955.0	2.48	Outcome1	13.3	12.96	0.0	No	2.0	0.335220838052095	0.677	162.995		GetAnswer	Loss
64.0	3	163.02	0.025	1173.784	13.3	6.48	6.5335	4.0	955.0	2.48	Outcome1	13.3	12.96	0.0	No		0.335220838052095				ShowChoice	Loss
64.0	3	167.032	0.012	1177.796	13.3	6.48	6.5335	1.0	955.0	2.48	Outcome1	13.3	12.96	0.0	No		0.335220838052095				ShowResult	Loss
64.0	3	168.052	0.02	1178.816	13.3	6.48	6.5335	5.47	955.0	2.48	Outcome1	13.3	12.96	0.0	No		0.335220838052095				ISITrial	Loss
65.0	3	173.552	0.03	1184.316	1.3	1.0	6.696000000000001	3.0	955.0	0.66	Outcome2	0.96	1.3	2996.75	Yes	2.0	0.33861834654586603	0.793	174.345		GetAnswer	Mixed
65.0	3	174.371	0.026	1185.135	1.3	1.0	6.696000000000001	4.0	955.0	0.66	Outcome2	0.96	1.3	2996.75	Yes		0.33861834654586603				ShowChoice	Mixed
65.0	3	178.383	0.012	1189.147	1.3	1.0	6.696000000000001	1.0	955.0	0.66	Outcome2	0.96	1.3	2996.75	Yes		0.33861834654586603				ShowResult	Mixed
65.0	3	179.403	0.02	1190.167	1.3	1.0	6.696000000000001	3.344	955.0	0.66	Outcome2	0.96	1.3	2996.75	Yes		0.33861834654586603				ISITrial	Mixed
65.0	3	185.788	0.028	1196.552	1.3	1.0	6.696000000000001	2.045	955.0	0.66	Outcome2	0.96	1.3	2996.75	Yes		0.33861834654586603			952.0	TrialHappiness	Mixed
65.0	3	189.8	4.012	1200.564	1.3	1.0	6.696000000000001	3.987	955.0	0.66	Outcome2	0.96	1.3	2996.75	Yes		0.33861834654586603				ISIRate	Mixed
66.0	3	193.812	0.025	1204.576	10.66	5.33	8.0285	3.0	955.0	1.82	Outcome2	10.7	10.66	0.0	No	2.0	-0.0364288410721027	0.96	194.772		GetAnswer	Loss
66.0	3	194.799	0.027	1205.563	10.66	5.33	8.0285	4.0	955.0	1.82	Outcome2	10.7	10.66	0.0	No		-0.0364288410721027				ShowChoice	Loss
66.0	3	198.81	0.011	1209.574	10.66	5.33	8.0285	1.0	955.0	1.82	Outcome2	10.7	10.66	0.0	No		-0.0364288410721027				ShowResult	Loss
66.0	3	199.83	0.02	1210.594	10.66	5.33	8.0285	3.959	955.0	1.82	Outcome2	10.7	10.66	0.0	No		-0.0364288410721027				ISITrial	Loss
67.0	3	203.809	0.02	1214.573	8.9	4.28	9.141	3.0	955.0	2.0	Outcome2	8.55	8.9	2918.5	Yes	2.0	0.345413363533409	1.042	204.851		GetAnswer	Gain
67.0	3	204.862	0.011	1215.626	8.9	4.28	9.141	4.0	955.0	2.0	Outcome2	8.55	8.9	2918.5	Yes		0.345413363533409				ShowChoice	Gain
67.0	3	208.874	0.012	1219.638	8.9	4.28	9.141	1.0	955.0	2.0	Outcome2	8.55	8.9	2918.5	Yes		0.345413363533409				ShowResult	Gain
67.0	3	209.894	0.02	1220.658	8.9	4.28	9.141	4.199	955.0	2.0	Outcome2	8.55	8.9	2918.5	Yes		0.345413363533409				ISITrial	Gain
67.0	3	217.048	0.024	1227.812	8.9	4.28	9.141	2.263	955.0	2.0	Outcome2	8.55	8.9	2918.5	Yes		0.345413363533409			952.0	TrialHappiness	Gain
67.0	3	221.06	4.012	1231.824	8.9	4.28	9.141	3.674	955.0	2.0	Outcome2	8.55	8.9	2918.5	Yes		0.345413363533409				ISIRate	Gain
68.0	3	224.755	0.021	1235.519	0.3	0.0	9.1785	3.0	955.0	2.0	Outcome2	-0.05	0.3	0.0	No	2.0	0.34881087202718	2.806	227.561		GetAnswer	Mixed
68.0	3	227.58	0.019	1238.344	0.3	0.0	9.1785	4.0	955.0	2.0	Outcome2	-0.05	0.3	0.0	No		0.34881087202718				ShowChoice	Mixed
68.0	3	231.592	0.012	1242.356	0.3	0.0	9.1785	1.0	955.0	2.0	Outcome2	-0.05	0.3	0.0	No		0.34881087202718				ShowResult	Mixed
68.0	3	232.611	0.019	1243.375	0.3	0.0	9.1785	2.185	955.0	2.0	Outcome2	-0.05	0.3	0.0	No		0.34881087202718				ISITrial	Mixed
69.0	3	234.818	0.022	1245.582	5.9	2.78	9.916	3.0	955.0	3.6	Outcome2	5.55	5.9	0.0	No	2.0	0.352208380520951	1.117	235.935		GetAnswer	Gain
69.0	3	235.955	0.02	1246.719	5.9	2.78	9.916	4.0	955.0	3.6	Outcome2	5.55	5.9	0.0	No		0.352208380520951				ShowChoice	Gain
69.0	3	239.967	0.012	1250.731	5.9	2.78	9.916	1.0	955.0	3.6	Outcome2	5.55	5.9	0.0	No		0.352208380520951				ShowResult	Gain
69.0	3	240.986	0.019	1251.75	5.9	2.78	9.916	2.0	955.0	3.6	Outcome2	5.55	5.9	0.0	No		0.352208380520951				ISITrial	Gain
70.0	3	243.009	0.023	1253.773	2.46	2.0	10.2235	3.0	955.0	0.2	Outcome1	2.46	2.5	3651.25	Yes	2.0	-0.0375613439033598	1.248	244.257		GetAnswer	Mixed
70.0	3	244.28	0.023	1255.044	2.46	2.0	10.2235	4.0	955.0	0.2	Outcome1	2.46	2.5	3651.25	Yes		-0.0375613439033598				ShowChoice	Mixed
70.0	3	248.292	0.012	1259.056	2.46	2.0	10.2235	1.0	955.0	0.2	Outcome1	2.46	2.5	3651.25	Yes		-0.0375613439033598				ShowResult	Mixed
70.0	3	249.311	0.019	1260.075	2.46	2.0	10.2235	2.623	955.0	0.2	Outcome1	2.46	2.5	3651.25	Yes		-0.0375613439033598				ISITrial	Mixed
70.0	3	255.647	0.043	1266.411	2.46	2.0	10.2235	2.28	955.0	0.2	Outcome1	2.46	2.5	3651.25	Yes		-0.0375613439033598			880.0	TrialHappiness	Mixed
70.0	3	259.659	4.012	1270.423	2.46	2.0	10.2235	6.605	955.0	0.2	Outcome1	2.46	2.5	3651.25	Yes		-0.0375613439033598				ISIRate	Mixed
71.0	3	266.295	0.031	1277.059	-2.0	-2.0	9.9735	3.0	955.0	0.4	Certain	-2.68	-1.1	0.0	No	4.0	1.58210645526614	2.438	268.733		GetAnswer	Mixed
71.0	3	268.753	0.02	1279.517	-2.0	-2.0	9.9735	4.0	955.0	0.4	Certain	-2.68	-1.1	0.0	No		1.58210645526614				ShowChoice	Mixed
71.0	3	272.765	0.012	1283.529	-2.0	-2.0	9.9735	1.0	955.0	0.4	Certain	-2.68	-1.1	0.0	No		1.58210645526614				ShowResult	Mixed
71.0	3	273.784	0.019	1284.548	-2.0	-2.0	9.9735	5.499	955.0	0.4	Certain	-2.68	-1.1	0.0	No		1.58210645526614				ISITrial	Mixed
72.0	3	279.301	0.018	1290.065	5.5	1.92	10.661	3.0	955.0	2.8	Outcome1	5.5	3.83	3080.5	Yes	2.0	1.66704416761042	1.534	280.835		GetAnswer	Gain
72.0	3	280.856	0.021	1291.62	5.5	1.92	10.661	4.0	955.0	2.8	Outcome1	5.5	3.83	3080.5	Yes		1.66704416761042				ShowChoice	Gain
72.0	3	284.868	0.012	1295.632	5.5	1.92	10.661	1.0	955.0	2.8	Outcome1	5.5	3.83	3080.5	Yes		1.66704416761042				ShowResult	Gain
72.0	3	285.887	0.019	1296.651	5.5	1.92	10.661	5.672	955.0	2.8	Outcome1	5.5	3.83	3080.5	Yes		1.66704416761042				ISITrial	Gain
72.0	3	294.68	0.029	1305.444	5.5	1.92	10.661	2.23	955.0	2.8	Outcome1	5.5	3.83	3080.5	Yes		1.66704416761042			896.0	TrialHappiness	Gain
72.0	3	298.692	4.012	1309.456	5.5	1.92	10.661	4.322	955.0	2.8	Outcome1	5.5	3.83	3080.5	Yes		1.66704416761042				ISIRate	Gain
73.0	3	303.038	0.024	1313.802	11.82	5.91	12.1385	3.0	955.0	4.2	Outcome2	12.1	11.82	0.0	No	2.0	-0.27925632314080795	1.025	304.063		GetAnswer	Loss
73.0	3	304.075	0.012	1314.839	11.82	5.91	12.1385	4.0	955.0	4.2	Outcome2	12.1	11.82	0.0	No		-0.27925632314080795				ShowChoice	Loss
73.0	3	308.087	0.012	1318.851	11.82	5.91	12.1385	1.0	955.0	4.2	Outcome2	12.1	11.82	0.0	No		-0.27925632314080795				ShowResult	Loss
73.0	3	309.107	0.02	1319.871	11.82	5.91	12.1385	4.616	955.0	4.2	Outcome2	12.1	11.82	0.0	No		-0.27925632314080795				ISITrial	Loss
74.0	3	313.754	0.031	1324.518	13.7	6.08	13.850999999999999	3.0	955.0	3.16	Outcome1	13.7	12.15	3056.25	Yes	2.0	1.54699886749717	0.881	314.635		GetAnswer	Loss
74.0	3	314.656	0.021	1325.42	13.7	6.08	13.850999999999999	4.0	955.0	3.16	Outcome1	13.7	12.15	3056.25	Yes		1.54699886749717				ShowChoice	Loss
74.0	3	318.668	0.012	1329.432	13.7	6.08	13.850999999999999	1.0	955.0	3.16	Outcome1	13.7	12.15	3056.25	Yes		1.54699886749717				ShowResult	Loss
74.0	3	319.688	0.02	1330.452	13.7	6.08	13.850999999999999	3.909	955.0	3.16	Outcome1	13.7	12.15	3056.25	Yes		1.54699886749717				ISITrial	Loss
74.0	3	326.692	0.019	1337.456	13.7	6.08	13.850999999999999	1.51	955.0	3.16	Outcome1	13.7	12.15	3056.25	Yes		1.54699886749717			848.0	TrialHappiness	Loss
74.0	3	330.704	4.012	1341.468	13.7	6.08	13.850999999999999	4.225	955.0	3.16	Outcome1	13.7	12.15	3056.25	Yes		1.54699886749717				ISIRate	Loss
75.0	3	334.95	0.021	1345.714	3.61	1.8	14.3022	3.0	955.0	1.5	Outcome1	3.61	4.1	0.0	No	2.0	-0.4851830879577199	1.579	336.529		GetAnswer	Mixed
75.0	3	336.555	0.026	1347.319	3.61	1.8	14.3022	4.0	955.0	1.5	Outcome1	3.61	4.1	0.0	No		-0.4851830879577199				ShowChoice	Mixed
75.0	3	340.567	0.012	1351.331	3.61	1.8	14.3022	1.0	955.0	1.5	Outcome1	3.61	4.1	0.0	No		-0.4851830879577199				ShowResult	Mixed
75.0	3	341.587	0.02	1352.351	3.61	1.8	14.3022	4.979	955.0	1.5	Outcome1	3.61	4.1	0.0	No		-0.4851830879577199				ISITrial	Mixed
76.0	3	346.585	0.019	1357.349	-0.3	-1.0	14.2647	3.0	955.0	1.0	Outcome1	-0.3	-2.85	0.0	No	2.0	2.55039637599094	1.774	348.359		GetAnswer	Mixed
76.0	3	348.374	0.015	1359.138	-0.3	-1.0	14.2647	4.0	955.0	1.0	Outcome1	-0.3	-2.85	0.0	No		2.55039637599094				ShowChoice	Mixed
76.0	3	352.386	0.012	1363.15	-0.3	-1.0	14.2647	1.0	955.0	1.0	Outcome1	-0.3	-2.85	0.0	No		2.55039637599094				ShowResult	Mixed
76.0	3	353.406	0.02	1364.17	-0.3	-1.0	14.2647	3.931	955.0	1.0	Outcome1	-0.3	-2.85	0.0	No		2.55039637599094				ISITrial	Mixed
77.0	3	357.367	0.03	1368.131	7.99	4.0	15.2635	3.0	955.0	1.68	Outcome1	7.99	8.5	4000.0	Yes	2.0	-0.505379388448471	1.211	358.578		GetAnswer	Gain
77.0	3	358.604	0.026	1369.368	7.99	4.0	15.2635	4.0	955.0	1.68	Outcome1	7.99	8.5	4000.0	Yes		-0.505379388448471				ShowChoice	Gain
77.0	3	362.616	0.012	1373.38	7.99	4.0	15.2635	1.0	955.0	1.68	Outcome1	7.99	8.5	4000.0	Yes		-0.505379388448471				ShowResult	Gain
77.0	3	363.636	0.02	1374.4	7.99	4.0	15.2635	7.022	955.0	1.68	Outcome1	7.99	8.5	4000.0	Yes		-0.505379388448471				ISITrial	Gain
77.0	3	374.702	0.028	1385.466	7.99	4.0	15.2635	2.247	955.0	1.68	Outcome1	7.99	8.5	4000.0	Yes		-0.505379388448471			824.0	TrialHappiness	Gain
77.0	3	378.714	4.012	1389.478	7.99	4.0	15.2635	8.0	955.0	1.68	Outcome1	7.99	8.5	4000.0	Yes		-0.505379388448471				ISIRate	Gain
78.0	3	386.738	0.024	1397.502	2.1	0.0	15.526	3.0	955.0	1.5	Outcome1	2.1	-1.1	0.0	No	2.0	3.2004530011325003	1.286	388.024		GetAnswer	Mixed
78.0	3	388.042	0.018	1398.806	2.1	0.0	15.526	4.0	955.0	1.5	Outcome1	2.1	-1.1	0.0	No		3.2004530011325003				ShowChoice	Mixed
78.0	3	392.054	0.012	1402.818	2.1	0.0	15.526	1.0	955.0	1.5	Outcome1	2.1	-1.1	0.0	No		3.2004530011325003				ShowResult	Mixed
78.0	3	393.074	0.02	1403.838	2.1	0.0	15.526	2.078	955.0	1.5	Outcome1	2.1	-1.1	0.0	No		3.2004530011325003				ISITrial	Mixed
79.0	3	395.18	0.028	1405.944	2.07	2.0	15.7848	3.0	955.0	0.3	Outcome1	2.07	2.7	2729.5	Yes	2.0	-0.625235938089845	0.927	396.107		GetAnswer	Mixed
79.0	3	396.133	0.026	1406.897	2.07	2.0	15.7848	4.0	955.0	0.3	Outcome1	2.07	2.7	2729.5	Yes		-0.625235938089845				ShowChoice	Mixed
79.0	3	400.145	0.012	1410.909	2.07	2.0	15.7848	1.0	955.0	0.3	Outcome1	2.07	2.7	2729.5	Yes		-0.625235938089845				ShowResult	Mixed
79.0	3	401.165	0.02	1411.929	2.07	2.0	15.7848	3.829	955.0	0.3	Outcome1	2.07	2.7	2729.5	Yes		-0.625235938089845				ISITrial	Mixed
79.0	3	407.768	0.028	1418.532	2.07	2.0	15.7848	2.38	955.0	0.3	Outcome1	2.07	2.7	2729.5	Yes		-0.625235938089845			924.0	TrialHappiness	Mixed
79.0	3	411.78	4.012	1422.544	2.07	2.0	15.7848	2.918	955.0	0.3	Outcome1	2.07	2.7	2729.5	Yes		-0.625235938089845				ISIRate	Mixed
80.0	3	414.722	0.024	1425.486	10.7	4.45	17.1223	3.0	955.0	1.82	Outcome1	10.7	8.9	0.0	No	2.0	1.7984144960362398	1.162	415.884		GetAnswer	Loss
80.0	3	415.909	0.025	1426.673	10.7	4.45	17.1223	4.0	955.0	1.82	Outcome1	10.7	8.9	0.0	No		1.7984144960362398				ShowChoice	Loss
80.0	3	419.921	0.012	1430.685	10.7	4.45	17.1223	1.0	955.0	1.82	Outcome1	10.7	8.9	0.0	No		1.7984144960362398				ShowResult	Loss
80.0	3	420.941	0.02	1431.705	10.7	4.45	17.1223	3.336	955.0	1.82	Outcome1	10.7	8.9	0.0	No		1.7984144960362398				ISITrial	Loss
81.0	3	424.301	0.024	1435.065	13.3	5.74	18.7848	3.0	955.0	2.48	Outcome2	11.47	13.3	3923.75	Yes	2.0	1.83352208380521	1.335	425.636		GetAnswer	Loss
81.0	3	425.655	0.019	1436.419	13.3	5.74	18.7848	4.0	955.0	2.48	Outcome2	11.47	13.3	3923.75	Yes		1.83352208380521				ShowChoice	Loss
81.0	3	429.667	0.012	1440.431	13.3	5.74	18.7848	1.0	955.0	2.48	Outcome2	11.47	13.3	3923.75	Yes		1.83352208380521				ShowResult	Loss
81.0	3	430.686	0.019	1441.45	13.3	5.74	18.7848	3.919	955.0	2.48	Outcome2	11.47	13.3	3923.75	Yes		1.83352208380521				ISITrial	Loss
81.0	3	438.56	0.021	1449.324	13.3	5.74	18.7848	2.196	955.0	2.48	Outcome2	11.47	13.3	3923.75	Yes		1.83352208380521			952.0	TrialHappiness	Loss
81.0	3	442.572	4.012	1453.336	13.3	5.74	18.7848	7.695	955.0	2.48	Outcome2	11.47	13.3	3923.75	Yes		1.83352208380521				ISIRate	Loss
	3	450.295	0.028	1461.059				3.0													CurrentEarnings	
	3	453.321	0.026	1464.085				-0.001								2.0		12.891	466.212		Goodbye	
