trial_number	block	onset	onset_delay	onset_unadjusted	amount_change	certain_amount	current_amount	duration	mood_target	multiplier	outcome	outcome1_amount	outcome2_amount	question_duration	rating	response	rpe	rt	rt_time	slider_response	trial_phase	trial_type
	0	-46.091	0.021	18.018				-0.001								{SPACE}		4.07	-42.021		Welcome	
	0	-41.995	0.026	22.114				5.0													LifeHappyPreview	
	0	-36.964	0.031	27.145				1.127												776.0	LifeHappiness	
	0	-19.16	0.013	44.949				4.0													BlockHappyPreview	
	0	-15.148	0.012	48.961				2.539												740.0	BlockStartHappiness	
	0	-4.199	0.015	59.91				-0.001								5.0					ScanWait	
	1	0.014	0.014	64.123				10.0													GetReady	
1.0	1	10.027	0.013	74.136	0.23	0.0	10.0288	3.0	955.0	0.52	Outcome2	1.1	0.23	0.0	No	2.0	-0.872499056247641	1.14	11.167		GetAnswer	Mixed
1.0	1	11.181	0.014	75.29	0.23	0.0	10.0288	4.0	955.0	0.52	Outcome2	1.1	0.23	0.0	No		-0.872499056247641				ShowChoice	Mixed
1.0	1	15.193	0.012	79.302	0.23	0.0	10.0288	1.0	955.0	0.52	Outcome2	1.1	0.23	0.0	No		-0.872499056247641				ShowResult	Mixed
1.0	1	16.213	0.02	80.322	0.23	0.0	10.0288	2.431	955.0	0.52	Outcome2	1.1	0.23	0.0	No		-0.872499056247641				ISITrial	Mixed
2.0	1	18.67	0.026	82.779	-3.0	-3.0	9.6538	3.0	955.0	0.4	Certain	-5.0	-1.1	0.0	No	4.0	3.89580973952435	2.077	20.747		GetAnswer	Mixed
2.0	1	20.76	0.013	84.869	-3.0	-3.0	9.6538	4.0	955.0	0.4	Certain	-5.0	-1.1	0.0	No		3.89580973952435				ShowChoice	Mixed
2.0	1	24.772	0.012	88.881	-3.0	-3.0	9.6538	1.0	955.0	0.4	Certain	-5.0	-1.1	0.0	No		3.89580973952435				ShowResult	Mixed
2.0	1	25.791	0.019	89.9	-3.0	-3.0	9.6538	4.568	955.0	0.4	Certain	-5.0	-1.1	0.0	No		3.89580973952435				ISITrial	Mixed
3.0	1	30.389	0.03	94.498	-2.0	-2.0	9.4038	3.0	955.0	0.3	Certain	-2.21	-1.3	2868.0	Yes	4.0	-0.9130804077010191	1.542	31.931		GetAnswer	Mixed
3.0	1	31.943	0.012	96.052	-2.0	-2.0	9.4038	4.0	955.0	0.3	Certain	-2.21	-1.3	2868.0	Yes		-0.9130804077010191				ShowChoice	Mixed
3.0	1	35.955	0.012	100.064	-2.0	-2.0	9.4038	1.0	955.0	0.3	Certain	-2.21	-1.3	2868.0	Yes		-0.9130804077010191				ShowResult	Mixed
3.0	1	36.975	0.02	101.084	-2.0	-2.0	9.4038	3.243	955.0	0.3	Certain	-2.21	-1.3	2868.0	Yes		-0.9130804077010191				ISITrial	Mixed
3.0	1	43.127	0.024	107.236	-2.0	-2.0	9.4038	0.925	955.0	0.3	Certain	-2.21	-1.3	2868.0	Yes	2{-2}	-0.9130804077010191	0.925	44.052	680.0	TrialHappiness	Mixed
3.0	1	47.139	4.012	111.248	-2.0	-2.0	9.4038	3.472	955.0	0.3	Certain	-2.21	-1.3	2868.0	Yes		-0.9130804077010191				ISIRate	Mixed
4.0	1	50.633	0.022	114.742	6.7	0.65	10.2413	3.0	955.0	1.82	Outcome2	1.3	6.7	0.0	No	2.0	5.40203850509626	1.046	51.679		GetAnswer	Gain
4.0	1	51.702	0.023	115.811	6.7	0.65	10.2413	4.0	955.0	1.82	Outcome2	1.3	6.7	0.0	No		5.40203850509626				ShowChoice	Gain
4.0	1	55.714	0.012	119.823	6.7	0.65	10.2413	1.0	955.0	1.82	Outcome2	1.3	6.7	0.0	No		5.40203850509626				ShowResult	Gain
4.0	1	56.734	0.02	120.843	6.7	0.65	10.2413	2.011	955.0	1.82	Outcome2	1.3	6.7	0.0	No		5.40203850509626				ISITrial	Gain
5.0	1	58.774	0.029	122.883	-4.0	-4.0	9.7413	3.0	955.0	0.2	Certain	-1.5	-7.21	2582.5	Yes	4.0	5.713476783691959	2.101	60.875		GetAnswer	Mixed
5.0	1	60.897	0.021	125.006	-4.0	-4.0	9.7413	4.0	955.0	0.2	Certain	-1.5	-7.21	2582.5	Yes		5.713476783691959				ShowChoice	Mixed
5.0	1	64.909	0.012	129.018	-4.0	-4.0	9.7413	1.0	955.0	0.2	Certain	-1.5	-7.21	2582.5	Yes		5.713476783691959				ShowResult	Mixed
5.0	1	65.928	0.019	130.037	-4.0	-4.0	9.7413	5.129	955.0	0.2	Certain	-1.5	-7.21	2582.5	Yes		5.713476783691959				ISITrial	Mixed
5.0	1	73.685	0.026	137.794	-4.0	-4.0	9.7413	2.028	955.0	0.2	Certain	-1.5	-7.21	2582.5	Yes		5.713476783691959			552.0	TrialHappiness	Mixed
5.0	1	77.697	4.012	141.806	-4.0	-4.0	9.7413	2.33	955.0	0.2	Certain	-1.5	-7.21	2582.5	Yes		5.713476783691959				ISIRate	Mixed
6.0	1	80.054	0.027	144.163	0.95	2.0	9.8601	3.0	955.0	0.3	Outcome1	0.95	2.7	0.0	No	2.0	-1.74820687051718	1.126	81.18		GetAnswer	Mixed
6.0	1	81.208	0.028	145.317	0.95	2.0	9.8601	4.0	955.0	0.3	Outcome1	0.95	2.7	0.0	No		-1.74820687051718				ShowChoice	Mixed
6.0	1	85.22	0.012	149.329	0.95	2.0	9.8601	1.0	955.0	0.3	Outcome1	0.95	2.7	0.0	No		-1.74820687051718				ShowResult	Mixed
6.0	1	86.239	0.019	150.348	0.95	2.0	9.8601	6.232	955.0	0.3	Outcome1	0.95	2.7	0.0	No		-1.74820687051718				ISITrial	Mixed
7.0	1	92.491	0.02	156.6	4.11	2.06	10.3739	3.0	955.0	3.6	Outcome2	5.9	4.11	0.0	No	2.0	-1.78624009060023	1.155	93.646		GetAnswer	Gain
7.0	1	93.662	0.016	157.771	4.11	2.06	10.3739	4.0	955.0	3.6	Outcome2	5.9	4.11	0.0	No		-1.78624009060023				ShowChoice	Gain
7.0	1	97.674	0.012	161.783	4.11	2.06	10.3739	1.0	955.0	3.6	Outcome2	5.9	4.11	0.0	No		-1.78624009060023				ShowResult	Gain
7.0	1	98.693	0.019	162.802	4.11	2.06	10.3739	2.305	955.0	3.6	Outcome2	5.9	4.11	0.0	No		-1.78624009060023				ISITrial	Gain
8.0	1	101.017	0.019	165.126	11.28	5.64	11.7839	3.0	955.0	2.22	Outcome1	11.28	13.1	3112.5	Yes	2.0	-1.82427331068328	0.989	102.006		GetAnswer	Loss
8.0	1	102.02	0.014	166.129	11.28	5.64	11.7839	4.0	955.0	2.22	Outcome1	11.28	13.1	3112.5	Yes		-1.82427331068328				ShowChoice	Loss
8.0	1	106.032	0.012	170.141	11.28	5.64	11.7839	1.0	955.0	2.22	Outcome1	11.28	13.1	3112.5	Yes		-1.82427331068328				ShowResult	Loss
8.0	1	107.052	0.02	171.161	11.28	5.64	11.7839	3.506	955.0	2.22	Outcome1	11.28	13.1	3112.5	Yes		-1.82427331068328				ISITrial	Loss
8.0	1	113.722	0.031	177.831	11.28	5.64	11.7839	1.092	955.0	2.22	Outcome1	11.28	13.1	3112.5	Yes		-1.82427331068328			664.0	TrialHappiness	Loss
8.0	1	117.734	4.012	181.843	11.28	5.64	11.7839	4.45	955.0	2.22	Outcome1	11.28	13.1	3112.5	Yes		-1.82427331068328				ISIRate	Loss
9.0	1	122.214	0.03	186.323	7.3	-0.18	12.6964	3.0	955.0	2.48	Outcome2	-0.37	7.3	0.0	No	2.0	7.66591166477916	2.027	124.241		GetAnswer	Gain
9.0	1	124.253	0.012	188.362	7.3	-0.18	12.6964	4.0	955.0	2.48	Outcome2	-0.37	7.3	0.0	No		7.66591166477916				ShowChoice	Gain
9.0	1	128.265	0.012	192.374	7.3	-0.18	12.6964	1.0	955.0	2.48	Outcome2	-0.37	7.3	0.0	No		7.66591166477916				ShowResult	Gain
9.0	1	129.285	0.02	193.394	7.3	-0.18	12.6964	2.0	955.0	2.48	Outcome2	-0.37	7.3	0.0	No		7.66591166477916				ISITrial	Gain
10.0	1	131.308	0.023	195.417	-4.0	-4.0	12.1964	3.0	955.0	0.66	Certain	-0.7	-8.7	4000.0	Yes	4.0	7.995469988674969	1.878	133.186		GetAnswer	Mixed
10.0	1	133.197	0.011	197.306	-4.0	-4.0	12.1964	4.0	955.0	0.66	Certain	-0.7	-8.7	4000.0	Yes		7.995469988674969				ShowChoice	Mixed
10.0	1	137.209	0.012	201.318	-4.0	-4.0	12.1964	1.0	955.0	0.66	Certain	-0.7	-8.7	4000.0	Yes		7.995469988674969				ShowResult	Mixed
10.0	1	138.229	0.02	202.338	-4.0	-4.0	12.1964	2.0	955.0	0.66	Certain	-0.7	-8.7	4000.0	Yes		7.995469988674969				ISITrial	Mixed
10.0	1	144.28	0.029	208.389	-4.0	-4.0	12.1964	0.792	955.0	0.66	Certain	-0.7	-8.7	4000.0	Yes		7.995469988674969			616.0	TrialHappiness	Mixed
10.0	1	148.292	4.012	212.401	-4.0	-4.0	12.1964	8.0	955.0	0.66	Certain	-0.7	-8.7	4000.0	Yes		7.995469988674969				ISIRate	Mixed
11.0	1	156.316	0.024	220.425	7.84	3.92	13.1764	3.0	955.0	2.8	Outcome2	9.5	7.84	0.0	No	2.0	-1.6575122687806698	0.916	157.232		GetAnswer	Gain
11.0	1	157.252	0.02	221.361	7.84	3.92	13.1764	4.0	955.0	2.8	Outcome2	9.5	7.84	0.0	No		-1.6575122687806698				ShowChoice	Gain
11.0	1	161.264	0.012	225.373	7.84	3.92	13.1764	1.0	955.0	2.8	Outcome2	9.5	7.84	0.0	No		-1.6575122687806698				ShowResult	Gain
11.0	1	162.284	0.02	226.393	7.84	3.92	13.1764	3.324	955.0	2.8	Outcome2	9.5	7.84	0.0	No		-1.6575122687806698				ISITrial	Gain
12.0	1	165.628	0.02	229.737	9.61	4.8	14.3777	3.0	955.0	2.48	Outcome1	9.61	11.3	2618.75	Yes	2.0	-1.6895054737636799	0.993	166.621		GetAnswer	Loss
12.0	1	166.647	0.026	230.756	9.61	4.8	14.3777	4.0	955.0	2.48	Outcome1	9.61	11.3	2618.75	Yes		-1.6895054737636799				ShowChoice	Loss
12.0	1	170.659	0.012	234.768	9.61	4.8	14.3777	1.0	955.0	2.48	Outcome1	9.61	11.3	2618.75	Yes		-1.6895054737636799				ShowResult	Loss
12.0	1	171.679	0.02	235.788	9.61	4.8	14.3777	6.642	955.0	2.48	Outcome1	9.61	11.3	2618.75	Yes		-1.6895054737636799				ISITrial	Loss
12.0	1	180.974	0.023	245.083	9.61	4.8	14.3777	0.841	955.0	2.48	Outcome1	9.61	11.3	2618.75	Yes		-1.6895054737636799			664.0	TrialHappiness	Loss
12.0	1	184.986	4.012	249.095	9.61	4.8	14.3777	2.475	955.0	2.48	Outcome1	9.61	11.3	2618.75	Yes		-1.6895054737636799				ISIRate	Loss
13.0	1	187.493	0.032	251.602	9.9	0.4	15.6152	3.0	955.0	3.6	Outcome2	0.81	9.9	0.0	No	2.0	9.09286523216308	1.136	188.629		GetAnswer	Gain
13.0	1	188.647	0.018	252.756	9.9	0.4	15.6152	4.0	955.0	3.6	Outcome2	0.81	9.9	0.0	No		9.09286523216308				ShowChoice	Gain
13.0	1	192.659	0.012	256.768	9.9	0.4	15.6152	1.0	955.0	3.6	Outcome2	0.81	9.9	0.0	No		9.09286523216308				ShowResult	Gain
13.0	1	193.678	0.019	257.787	9.9	0.4	15.6152	3.48	955.0	3.6	Outcome2	0.81	9.9	0.0	No		9.09286523216308				ISITrial	Gain
14.0	1	197.189	0.031	261.298	10.9	0.74	16.9777	3.0	955.0	2.0	Outcome1	10.9	1.48	0.0	No	2.0	9.422423556058892	1.363	198.552		GetAnswer	Loss
14.0	1	198.576	0.024	262.685	10.9	0.74	16.9777	4.0	955.0	2.0	Outcome1	10.9	1.48	0.0	No		9.422423556058892				ShowChoice	Loss
14.0	1	202.588	0.012	266.697	10.9	0.74	16.9777	1.0	955.0	2.0	Outcome1	10.9	1.48	0.0	No		9.422423556058892				ShowResult	Loss
14.0	1	203.608	0.02	267.717	10.9	0.74	16.9777	5.019	955.0	2.0	Outcome1	10.9	1.48	0.0	No		9.422423556058892				ISITrial	Loss
15.0	1	208.657	0.03	272.766	1.0	1.0	17.1027	3.0	955.0	5.0	Certain	-3.45	6.3	3348.5	Yes	4.0	9.7519818799547	1.869	210.526		GetAnswer	Gain
15.0	1	210.546	0.019	274.655	1.0	1.0	17.1027	4.0	955.0	5.0	Certain	-3.45	6.3	3348.5	Yes		9.7519818799547				ShowChoice	Gain
15.0	1	214.558	0.012	278.667	1.0	1.0	17.1027	1.0	955.0	5.0	Certain	-3.45	6.3	3348.5	Yes		9.7519818799547				ShowResult	Gain
15.0	1	215.577	0.019	279.686	1.0	1.0	17.1027	7.614	955.0	5.0	Certain	-3.45	6.3	3348.5	Yes		9.7519818799547				ISITrial	Gain
15.0	1	226.594	0.029	290.703	1.0	1.0	17.1027	2.849	955.0	5.0	Certain	-3.45	6.3	3348.5	Yes	2{-2}4{-4}2{-2}	9.7519818799547	2.849	229.443	656.0	TrialHappiness	Gain
15.0	1	230.606	4.012	294.715	1.0	1.0	17.1027	5.394	955.0	5.0	Certain	-3.45	6.3	3348.5	Yes		9.7519818799547				ISIRate	Gain
16.0	1	236.022	0.022	300.131	-3.0	-3.0	16.7277	3.0	955.0	1.2	Certain	1.9	-8.32	0.0	No	4.0	10.2174405436014	2.1	238.122		GetAnswer	Mixed
16.0	1	238.145	0.023	302.254	-3.0	-3.0	16.7277	4.0	955.0	1.2	Certain	1.9	-8.32	0.0	No		10.2174405436014				ShowChoice	Mixed
16.0	1	242.157	0.012	306.266	-3.0	-3.0	16.7277	1.0	955.0	1.2	Certain	1.9	-8.32	0.0	No		10.2174405436014				ShowResult	Mixed
16.0	1	243.177	0.02	307.286	-3.0	-3.0	16.7277	3.008	955.0	1.2	Certain	1.9	-8.32	0.0	No		10.2174405436014				ISITrial	Mixed
17.0	1	246.203	0.018	310.312	12.23	6.12	18.2565	3.0	955.0	3.6	Outcome1	12.23	13.9	3041.5	Yes	2.0	-1.6697810494526202	0.919	247.122		GetAnswer	Loss
17.0	1	247.139	0.017	311.248	12.23	6.12	18.2565	4.0	955.0	3.6	Outcome1	12.23	13.9	3041.5	Yes		-1.6697810494526202				ShowChoice	Loss
17.0	1	251.151	0.012	315.26	12.23	6.12	18.2565	1.0	955.0	3.6	Outcome1	12.23	13.9	3041.5	Yes		-1.6697810494526202				ShowResult	Loss
17.0	1	252.17	0.019	316.279	12.23	6.12	18.2565	3.566	955.0	3.6	Outcome1	12.23	13.9	3041.5	Yes		-1.6697810494526202				ISITrial	Loss
17.0	1	258.807	0.017	322.916	12.23	6.12	18.2565	1.512	955.0	3.6	Outcome1	12.23	13.9	3041.5	Yes		-1.6697810494526202			680.0	TrialHappiness	Loss
17.0	1	262.819	4.012	326.928	12.23	6.12	18.2565	4.166	955.0	3.6	Outcome1	12.23	13.9	3041.5	Yes		-1.6697810494526202				ISIRate	Loss
18.0	1	267.015	0.03	331.124	0.0	0.0	18.2565	3.0	955.0	2.48	Certain	-5.19	5.3	0.0	No	4.0	10.4869762174405	1.745	268.76		GetAnswer	Gain
18.0	1	268.787	0.027	332.896	0.0	0.0	18.2565	4.0	955.0	2.48	Certain	-5.19	5.3	0.0	No		10.4869762174405				ShowChoice	Gain
18.0	1	272.799	0.012	336.908	0.0	0.0	18.2565	1.0	955.0	2.48	Certain	-5.19	5.3	0.0	No		10.4869762174405				ShowResult	Gain
18.0	1	273.819	0.02	337.928	0.0	0.0	18.2565	6.787	955.0	2.48	Certain	-5.19	5.3	0.0	No		10.4869762174405				ISITrial	Gain
19.0	1	280.622	0.016	344.731	13.5	1.35	19.944000000000003	3.0	955.0	2.8	Outcome2	2.7	13.5	0.0	No	2.0	10.798414496036198	1.131	281.753		GetAnswer	Loss
19.0	1	281.776	0.023	345.885	13.5	1.35	19.944000000000003	4.0	955.0	2.8	Outcome2	2.7	13.5	0.0	No		10.798414496036198				ShowChoice	Loss
19.0	1	285.788	0.012	349.897	13.5	1.35	19.944000000000003	1.0	955.0	2.8	Outcome2	2.7	13.5	0.0	No		10.798414496036198				ShowResult	Loss
19.0	1	286.808	0.02	350.917	13.5	1.35	19.944000000000003	2.0	955.0	2.8	Outcome2	2.7	13.5	0.0	No		10.798414496036198				ISITrial	Loss
20.0	1	288.83	0.022	352.939	-2.0	-2.0	19.694000000000003	3.0	955.0	0.4	Certain	2.9	-8.21	2921.25	Yes	4.0	11.1098527746319	1.688	290.518		GetAnswer	Mixed
20.0	1	290.536	0.018	354.645	-2.0	-2.0	19.694000000000003	4.0	955.0	0.4	Certain	2.9	-8.21	2921.25	Yes		11.1098527746319				ShowChoice	Mixed
20.0	1	294.548	0.012	358.657	-2.0	-2.0	19.694000000000003	1.0	955.0	0.4	Certain	2.9	-8.21	2921.25	Yes		11.1098527746319				ShowResult	Mixed
20.0	1	295.567	0.019	359.676	-2.0	-2.0	19.694000000000003	8.0	955.0	0.4	Certain	2.9	-8.21	2921.25	Yes		11.1098527746319				ISITrial	Mixed
20.0	1	306.534	0.022	370.643	-2.0	-2.0	19.694000000000003	2.949	955.0	0.4	Certain	2.9	-8.21	2921.25	Yes	2{-2}4{-4}2{-2}	11.1098527746319	2.949	309.483	712.0	TrialHappiness	Mixed
20.0	1	310.546	4.012	374.655	-2.0	-2.0	19.694000000000003	3.685	955.0	0.4	Certain	2.9	-8.21	2921.25	Yes		11.1098527746319				ISIRate	Mixed
21.0	1	314.257	0.026	378.366	-0.59	-0.59	19.6202	3.0	955.0	3.16	Certain	-1.18	9.7	0.0	No	4.0	10.8776896942242	1.899	316.156		GetAnswer	Gain
21.0	1	316.179	0.023	380.288	-0.59	-0.59	19.6202	4.0	955.0	3.16	Certain	-1.18	9.7	0.0	No		10.8776896942242				ShowChoice	Gain
21.0	1	320.191	0.012	384.3	-0.59	-0.59	19.6202	1.0	955.0	3.16	Certain	-1.18	9.7	0.0	No		10.8776896942242				ShowResult	Gain
21.0	1	321.211	0.02	385.32	-0.59	-0.59	19.6202	3.555	955.0	3.16	Certain	-1.18	9.7	0.0	No		10.8776896942242				ISITrial	Gain
22.0	1	324.788	0.022	388.897	10.33	5.16	20.9114	3.0	955.0	3.6	Outcome1	10.33	11.9	3219.5	Yes	2.0	-1.57153642884107	0.843	325.631		GetAnswer	Loss
22.0	1	325.658	0.027	389.767	10.33	5.16	20.9114	4.0	955.0	3.6	Outcome1	10.33	11.9	3219.5	Yes		-1.57153642884107				ShowChoice	Loss
22.0	1	329.67	0.012	393.779	10.33	5.16	20.9114	1.0	955.0	3.6	Outcome1	10.33	11.9	3219.5	Yes		-1.57153642884107				ShowResult	Loss
22.0	1	330.689	0.019	394.798	10.33	5.16	20.9114	6.793	955.0	3.6	Outcome1	10.33	11.9	3219.5	Yes		-1.57153642884107				ISITrial	Loss
22.0	1	340.736	0.023	404.845	10.33	5.16	20.9114	2.047	955.0	3.6	Outcome1	10.33	11.9	3219.5	Yes		-1.57153642884107			688.0	TrialHappiness	Loss
22.0	1	344.748	4.012	408.857	10.33	5.16	20.9114	4.878	955.0	3.6	Outcome1	10.33	11.9	3219.5	Yes		-1.57153642884107				ISIRate	Loss
23.0	1	349.646	0.02	413.755	0.81	1.0	21.0127	3.0	955.0	0.2	Outcome2	2.5	0.81	0.0	No	2.0	-1.69186485466214	0.982	350.628		GetAnswer	Mixed
23.0	1	350.649	0.021	414.758	0.81	1.0	21.0127	4.0	955.0	0.2	Outcome2	2.5	0.81	0.0	No		-1.69186485466214				ShowChoice	Mixed
23.0	1	354.661	0.012	418.77	0.81	1.0	21.0127	1.0	955.0	0.2	Outcome2	2.5	0.81	0.0	No		-1.69186485466214				ShowResult	Mixed
23.0	1	355.681	0.02	419.79	0.81	1.0	21.0127	8.0	955.0	0.2	Outcome2	2.5	0.81	0.0	No		-1.69186485466214				ISITrial	Mixed
24.0	1	363.705	0.024	427.814	2.0	2.0	21.2627	3.0	955.0	1.68	Certain	-3.64	8.5	3255.0	Yes	4.0	12.138165345413402	1.529	365.234		GetAnswer	Gain
24.0	1	365.26	0.025	429.369	2.0	2.0	21.2627	4.0	955.0	1.68	Certain	-3.64	8.5	3255.0	Yes		12.138165345413402				ShowChoice	Gain
24.0	1	369.272	0.012	433.381	2.0	2.0	21.2627	1.0	955.0	1.68	Certain	-3.64	8.5	3255.0	Yes		12.138165345413402				ShowResult	Gain
24.0	1	370.291	0.019	434.4	2.0	2.0	21.2627	2.0	955.0	1.68	Certain	-3.64	8.5	3255.0	Yes		12.138165345413402				ISITrial	Gain
24.0	1	375.591	0.022	439.7	2.0	2.0	21.2627	2.431	955.0	1.68	Certain	-3.64	8.5	3255.0	Yes		12.138165345413402			752.0	TrialHappiness	Gain
24.0	1	379.603	4.012	443.712	2.0	2.0	21.2627	5.02	955.0	1.68	Certain	-3.64	8.5	3255.0	Yes		12.138165345413402				ISIRate	Gain
25.0	1	384.651	0.028	448.76	1.0	1.0	21.3877	3.0	955.0	2.0	Certain	6.9	-4.45	0.0	No	4.0	11.353340883352198	1.305	385.956		GetAnswer	Gain
25.0	1	385.972	0.016	450.081	1.0	1.0	21.3877	4.0	955.0	2.0	Certain	6.9	-4.45	0.0	No		11.353340883352198				ShowChoice	Gain
25.0	1	389.984	0.012	454.093	1.0	1.0	21.3877	1.0	955.0	2.0	Certain	6.9	-4.45	0.0	No		11.353340883352198				ShowResult	Gain
25.0	1	391.004	0.02	455.113	1.0	1.0	21.3877	3.749	955.0	2.0	Certain	6.9	-4.45	0.0	No		11.353340883352198				ISITrial	Gain
26.0	1	394.782	0.029	458.891	-5.0	-5.0	20.7627	3.0	955.0	0.3	Certain	0.7	-10.88	0.0	No	4.0	11.5832389580974	2.055	396.837		GetAnswer	Mixed
26.0	1	396.855	0.018	460.964	-5.0	-5.0	20.7627	4.0	955.0	0.3	Certain	0.7	-10.88	0.0	No		11.5832389580974				ShowChoice	Mixed
26.0	1	400.867	0.012	464.976	-5.0	-5.0	20.7627	1.0	955.0	0.3	Certain	0.7	-10.88	0.0	No		11.5832389580974				ShowResult	Mixed
26.0	1	401.886	0.019	465.995	-5.0	-5.0	20.7627	7.834	955.0	0.3	Certain	0.7	-10.88	0.0	No		11.5832389580974				ISITrial	Mixed
27.0	1	409.743	0.023	473.852	-5.0	-5.0	20.1377	3.0	955.0	2.0	Certain	-11.51	0.3	2549.75	Yes	4.0	11.8131370328426	1.628	411.371		GetAnswer	Mixed
27.0	1	411.381	0.01	475.49	-5.0	-5.0	20.1377	4.0	955.0	2.0	Certain	-11.51	0.3	2549.75	Yes		11.8131370328426				ShowChoice	Mixed
27.0	1	415.393	0.012	479.502	-5.0	-5.0	20.1377	1.0	955.0	2.0	Certain	-11.51	0.3	2549.75	Yes		11.8131370328426				ShowResult	Mixed
27.0	1	416.413	0.02	480.522	-5.0	-5.0	20.1377	4.225	955.0	2.0	Certain	-11.51	0.3	2549.75	Yes		11.8131370328426				ISITrial	Mixed
27.0	1	423.234	0.025	487.343	-5.0	-5.0	20.1377	1.625	955.0	2.0	Certain	-11.51	0.3	2549.75	Yes		11.8131370328426			628.0	TrialHappiness	Mixed
27.0	1	427.246	4.012	491.355	-5.0	-5.0	20.1377	2.199	955.0	2.0	Certain	-11.51	0.3	2549.75	Yes		11.8131370328426				ISIRate	Mixed
	1	429.469	0.024	493.578				-0.001								{SPACE}		31.303	460.772		Rest	
	1	460.796	0.024	524.905				4.0													BlockHappyPreview	
	1	464.808	0.012	528.917				0.793												600.0	BlockStartHappiness	
	1	472.983	0.019	537.092				-0.001								5.0		4.913	477.896		ScanWait	
	2	0.018	0.018	542.023				10.0													GetReady	
28.0	2	10.032	0.014	552.037	0.0	0.0	20.1377	3.0	70.0	0.82	Certain	-1.77	0.38	0.0	No	4.0	2.15325018896447	1.506	11.538		GetAnswer	Mixed
28.0	2	11.553	0.015	553.558	0.0	0.0	20.1377	4.0	70.0	0.82	Certain	-1.77	0.38	0.0	No		2.15325018896447				ShowChoice	Mixed
28.0	2	15.565	0.012	557.57	0.0	0.0	20.1377	1.0	70.0	0.82	Certain	-1.77	0.38	0.0	No		2.15325018896447				ShowResult	Mixed
28.0	2	16.585	0.02	558.59	0.0	0.0	20.1377	3.575	70.0	0.82	Certain	-1.77	0.38	0.0	No		2.15325018896447				ISITrial	Mixed
29.0	2	20.179	0.019	562.184	0.0	0.0	20.1377	3.0	70.0	2.8	Certain	1.38	-0.82	3529.0	Yes	4.0	2.20332577475435	1.314	21.493		GetAnswer	Gain
29.0	2	21.516	0.023	563.521	0.0	0.0	20.1377	4.0	70.0	2.8	Certain	1.38	-0.82	3529.0	Yes		2.20332577475435				ShowChoice	Gain
29.0	2	25.528	0.012	567.533	0.0	0.0	20.1377	1.0	70.0	2.8	Certain	1.38	-0.82	3529.0	Yes		2.20332577475435				ShowResult	Gain
29.0	2	26.548	0.02	568.553	0.0	0.0	20.1377	3.955	70.0	2.8	Certain	1.38	-0.82	3529.0	Yes		2.20332577475435				ISITrial	Gain
29.0	2	34.07	0.014	576.075	0.0	0.0	20.1377	2.298	70.0	2.8	Certain	1.38	-0.82	3529.0	Yes		2.20332577475435			540.0	TrialHappiness	Gain
29.0	2	38.083	4.013	580.088	0.0	0.0	20.1377	6.116	70.0	2.8	Certain	1.38	-0.82	3529.0	Yes		2.20332577475435				ISIRate	Gain
30.0	2	44.218	0.019	586.223	0.0	0.0	20.1377	3.0	70.0	2.22	Certain	-4.1	5.1	0.0	No	4.0	-9.19501133786848	1.334	45.552		GetAnswer	Gain
30.0	2	45.572	0.02	587.577	0.0	0.0	20.1377	4.0	70.0	2.22	Certain	-4.1	5.1	0.0	No		-9.19501133786848				ShowChoice	Gain
30.0	2	49.584	0.012	591.589	0.0	0.0	20.1377	1.0	70.0	2.22	Certain	-4.1	5.1	0.0	No		-9.19501133786848				ShowResult	Gain
30.0	2	50.603	0.019	592.608	0.0	0.0	20.1377	4.453	70.0	2.22	Certain	-4.1	5.1	0.0	No		-9.19501133786848				ISITrial	Gain
31.0	2	55.084	0.028	597.089	-5.0	-5.0	19.5127	3.0	70.0	1.2	Certain	-0.1	-9.83	2503.25	Yes	4.0	-9.72789115646258	2.23	57.314		GetAnswer	Mixed
31.0	2	57.34	0.026	599.345	-5.0	-5.0	19.5127	4.0	70.0	1.2	Certain	-0.1	-9.83	2503.25	Yes		-9.72789115646258				ShowChoice	Mixed
31.0	2	61.352	0.012	603.357	-5.0	-5.0	19.5127	1.0	70.0	1.2	Certain	-0.1	-9.83	2503.25	Yes		-9.72789115646258				ShowResult	Mixed
31.0	2	62.372	0.02	604.377	-5.0	-5.0	19.5127	4.786	70.0	1.2	Certain	-0.1	-9.83	2503.25	Yes		-9.72789115646258				ISITrial	Mixed
31.0	2	69.694	0.021	611.699	-5.0	-5.0	19.5127	0.526	70.0	1.2	Certain	-0.1	-9.83	2503.25	Yes		-9.72789115646258			536.0	TrialHappiness	Mixed
31.0	2	73.706	4.012	615.711	-5.0	-5.0	19.5127	2.013	70.0	1.2	Certain	-0.1	-9.83	2503.25	Yes		-9.72789115646258				ISIRate	Mixed
32.0	2	75.746	0.027	617.751	-1.09	-0.55	19.3765	3.0	70.0	2.22	Outcome2	9.1	-1.09	0.0	No	2.0	-10.1927437641723	1.654	77.4		GetAnswer	Gain
32.0	2	77.417	0.017	619.422	-1.09	-0.55	19.3765	4.0	70.0	2.22	Outcome2	9.1	-1.09	0.0	No		-10.1927437641723				ShowChoice	Gain
32.0	2	81.429	0.012	623.434	-1.09	-0.55	19.3765	1.0	70.0	2.22	Outcome2	9.1	-1.09	0.0	No		-10.1927437641723				ShowResult	Gain
32.0	2	82.449	0.02	624.454	-1.09	-0.55	19.3765	2.0	70.0	2.22	Outcome2	9.1	-1.09	0.0	No		-10.1927437641723				ISITrial	Gain
33.0	2	84.472	0.023	626.477	-1.0	-1.0	19.2515	3.0	70.0	2.0	Certain	4.3	-6.42	0.0	No	4.0	-10.7210884353741	2.309	86.781		GetAnswer	Mixed
33.0	2	86.795	0.014	628.8	-1.0	-1.0	19.2515	4.0	70.0	2.0	Certain	4.3	-6.42	0.0	No		-10.7210884353741				ShowChoice	Mixed
33.0	2	90.807	0.012	632.812	-1.0	-1.0	19.2515	1.0	70.0	2.0	Certain	4.3	-6.42	0.0	No		-10.7210884353741				ShowResult	Mixed
33.0	2	91.827	0.02	633.832	-1.0	-1.0	19.2515	5.099	70.0	2.0	Certain	4.3	-6.42	0.0	No		-10.7210884353741				ISITrial	Mixed
34.0	2	96.942	0.016	638.947	2.45	1.23	19.5577	3.0	70.0	3.16	Outcome1	2.45	13.7	3231.5	Yes	2.0	-11.249433106576	0.749	97.691		GetAnswer	Loss
34.0	2	97.711	0.02	639.716	2.45	1.23	19.5577	4.0	70.0	3.16	Outcome1	2.45	13.7	3231.5	Yes		-11.249433106576				ShowChoice	Loss
34.0	2	101.723	0.012	643.728	2.45	1.23	19.5577	1.0	70.0	3.16	Outcome1	2.45	13.7	3231.5	Yes		-11.249433106576				ShowResult	Loss
34.0	2	102.743	0.02	644.748	2.45	1.23	19.5577	4.784	70.0	3.16	Outcome1	2.45	13.7	3231.5	Yes		-11.249433106576				ISITrial	Loss
34.0	2	110.801	0.028	652.806	2.45	1.23	19.5577	0.0	70.0	3.16	Outcome1	2.45	13.7	3231.5	Yes		-11.249433106576			512.0	TrialHappiness	Loss
34.0	2	114.813	4.012	656.818	2.45	1.23	19.5577	4.926	70.0	3.16	Outcome1	2.45	13.7	3231.5	Yes		-11.249433106576				ISIRate	Loss
35.0	2	119.761	0.022	661.766	2.0	2.0	19.8077	3.0	70.0	3.6	Certain	-3.47	7.9	0.0	No	4.0	-11.3696145124717	1.56	121.321		GetAnswer	Gain
35.0	2	121.332	0.011	663.337	2.0	2.0	19.8077	4.0	70.0	3.6	Certain	-3.47	7.9	0.0	No		-11.3696145124717				ShowChoice	Gain
35.0	2	125.344	0.012	667.349	2.0	2.0	19.8077	1.0	70.0	3.6	Certain	-3.47	7.9	0.0	No		-11.3696145124717				ShowResult	Gain
35.0	2	126.364	0.02	668.369	2.0	2.0	19.8077	2.098	70.0	3.6	Certain	-3.47	7.9	0.0	No		-11.3696145124717				ISITrial	Gain
36.0	2	128.487	0.025	670.492	1.0	1.0	19.9327	3.0	70.0	4.2	Certain	2.02	-0.14	3335.75	Yes	4.0	2.1585411942554797	1.66	130.147		GetAnswer	Gain
36.0	2	130.159	0.012	672.164	1.0	1.0	19.9327	4.0	70.0	4.2	Certain	2.02	-0.14	3335.75	Yes		2.1585411942554797				ShowChoice	Gain
36.0	2	134.171	0.012	676.176	1.0	1.0	19.9327	1.0	70.0	4.2	Certain	2.02	-0.14	3335.75	Yes		2.1585411942554797				ShowResult	Gain
36.0	2	135.19	0.019	677.195	1.0	1.0	19.9327	5.156	70.0	4.2	Certain	2.02	-0.14	3335.75	Yes		2.1585411942554797				ISITrial	Gain
36.0	2	143.733	0.024	685.738	1.0	1.0	19.9327	1.439	70.0	4.2	Certain	2.02	-0.14	3335.75	Yes		2.1585411942554797			556.0	TrialHappiness	Gain
36.0	2	147.745	4.012	689.75	1.0	1.0	19.9327	5.343	70.0	4.2	Certain	2.02	-0.14	3335.75	Yes		2.1585411942554797				ISIRate	Gain
37.0	2	153.111	0.023	695.116	-1.42	-0.71	19.7552	3.0	70.0	3.16	Outcome2	11.7	-1.42	0.0	No	2.0	-13.120181405895698	2.619	155.73		GetAnswer	Loss
37.0	2	155.752	0.022	697.757	-1.42	-0.71	19.7552	4.0	70.0	3.16	Outcome2	11.7	-1.42	0.0	No		-13.120181405895698				ShowChoice	Loss
37.0	2	159.764	0.012	701.769	-1.42	-0.71	19.7552	1.0	70.0	3.16	Outcome2	11.7	-1.42	0.0	No		-13.120181405895698				ShowResult	Loss
37.0	2	160.784	0.02	702.789	-1.42	-0.71	19.7552	3.598	70.0	3.16	Outcome2	11.7	-1.42	0.0	No		-13.120181405895698				ISITrial	Loss
38.0	2	164.411	0.029	706.416	-7.97	-1.0	18.759	3.0	70.0	3.16	Outcome1	-7.97	5.7	0.0	No	2.0	-13.671201814059	1.75	166.161		GetAnswer	Gain
38.0	2	166.183	0.022	708.188	-7.97	-1.0	18.759	4.0	70.0	3.16	Outcome1	-7.97	5.7	0.0	No		-13.671201814059				ShowChoice	Gain
38.0	2	170.196	0.013	712.201	-7.97	-1.0	18.759	1.0	70.0	3.16	Outcome1	-7.97	5.7	0.0	No		-13.671201814059				ShowResult	Gain
38.0	2	171.215	0.019	713.22	-7.97	-1.0	18.759	4.787	70.0	3.16	Outcome1	-7.97	5.7	0.0	No		-13.671201814059				ISITrial	Gain
39.0	2	176.03	0.028	718.035	-3.72	-1.86	18.294	3.0	70.0	1.68	Outcome2	10.5	-3.72	2864.25	Yes	2.0	-14.2222222222222	2.117	178.147		GetAnswer	Loss
39.0	2	178.169	0.022	720.174	-3.72	-1.86	18.294	4.0	70.0	1.68	Outcome2	10.5	-3.72	2864.25	Yes		-14.2222222222222				ShowChoice	Loss
39.0	2	182.181	0.012	724.186	-3.72	-1.86	18.294	1.0	70.0	1.68	Outcome2	10.5	-3.72	2864.25	Yes		-14.2222222222222				ShowResult	Loss
39.0	2	183.201	0.02	725.206	-3.72	-1.86	18.294	2.348	70.0	1.68	Outcome2	10.5	-3.72	2864.25	Yes		-14.2222222222222				ISITrial	Loss
39.0	2	188.467	0.028	730.472	-3.72	-1.86	18.294	0.0	70.0	1.68	Outcome2	10.5	-3.72	2864.25	Yes		-14.2222222222222			512.0	TrialHappiness	Loss
39.0	2	192.479	4.012	734.484	-3.72	-1.86	18.294	3.457	70.0	1.68	Outcome2	10.5	-3.72	2864.25	Yes		-14.2222222222222				ISIRate	Loss
40.0	2	195.956	0.02	737.961	1.0	1.0	18.419	3.0	70.0	2.0	Certain	2.22	-0.12	0.0	No	4.0	2.3380574452003	1.296	197.252		GetAnswer	Gain
40.0	2	197.277	0.025	739.282	1.0	1.0	18.419	4.0	70.0	2.0	Certain	2.22	-0.12	0.0	No		2.3380574452003				ShowChoice	Gain
40.0	2	201.289	0.012	743.294	1.0	1.0	18.419	1.0	70.0	2.0	Certain	2.22	-0.12	0.0	No		2.3380574452003				ShowResult	Gain
40.0	2	202.309	0.02	744.314	1.0	1.0	18.419	3.158	70.0	2.0	Certain	2.22	-0.12	0.0	No		2.3380574452003				ISITrial	Gain
41.0	2	205.485	0.018	747.49	2.0	2.0	18.669	3.0	70.0	2.48	Certain	9.3	-5.23	4000.0	Yes	4.0	-14.526077097505699	1.041	206.526		GetAnswer	Gain
41.0	2	206.538	0.012	748.543	2.0	2.0	18.669	4.0	70.0	2.48	Certain	9.3	-5.23	4000.0	Yes		-14.526077097505699				ShowChoice	Gain
41.0	2	210.55	0.012	752.555	2.0	2.0	18.669	1.0	70.0	2.48	Certain	9.3	-5.23	4000.0	Yes		-14.526077097505699				ShowResult	Gain
41.0	2	211.57	0.02	753.575	2.0	2.0	18.669	4.506	70.0	2.48	Certain	9.3	-5.23	4000.0	Yes		-14.526077097505699				ISITrial	Gain
41.0	2	220.129	0.029	762.134	2.0	2.0	18.669	0.0	70.0	2.48	Certain	9.3	-5.23	4000.0	Yes		-14.526077097505699			512.0	TrialHappiness	Gain
41.0	2	224.141	4.012	766.146	2.0	2.0	18.669	8.0	70.0	2.48	Certain	9.3	-5.23	4000.0	Yes		-14.526077097505699				ISIRate	Gain
42.0	2	232.165	0.024	774.17	-4.0	-4.0	18.169	3.0	70.0	1.0	Certain	-11.33	3.7	0.0	No	4.0	-15.0272108843537	1.731	233.896		GetAnswer	Mixed
42.0	2	233.92	0.024	775.925	-4.0	-4.0	18.169	4.0	70.0	1.0	Certain	-11.33	3.7	0.0	No		-15.0272108843537				ShowChoice	Mixed
42.0	2	237.932	0.012	779.937	-4.0	-4.0	18.169	1.0	70.0	1.0	Certain	-11.33	3.7	0.0	No		-15.0272108843537				ShowResult	Mixed
42.0	2	238.952	0.02	780.957	-4.0	-4.0	18.169	6.248	70.0	1.0	Certain	-11.33	3.7	0.0	No		-15.0272108843537				ISITrial	Mixed
43.0	2	245.221	0.021	787.226	-8.0	-8.0	17.169	3.0	70.0	1.0	Certain	-0.3	-15.83	2775.75	Yes	4.0	-15.5283446712018	2.488	247.709		GetAnswer	Mixed
43.0	2	247.728	0.019	789.733	-8.0	-8.0	17.169	4.0	70.0	1.0	Certain	-0.3	-15.83	2775.75	Yes		-15.5283446712018				ShowChoice	Mixed
43.0	2	251.74	0.012	793.745	-8.0	-8.0	17.169	1.0	70.0	1.0	Certain	-0.3	-15.83	2775.75	Yes		-15.5283446712018				ShowResult	Mixed
43.0	2	252.76	0.02	794.765	-8.0	-8.0	17.169	4.596	70.0	1.0	Certain	-0.3	-15.83	2775.75	Yes		-15.5283446712018				ISITrial	Mixed
43.0	2	260.165	0.015	802.17	-8.0	-8.0	17.169	0.559	70.0	1.0	Certain	-0.3	-15.83	2775.75	Yes		-15.5283446712018			488.0	TrialHappiness	Mixed
43.0	2	264.177	4.012	806.182	-8.0	-8.0	17.169	3.103	70.0	1.0	Certain	-0.3	-15.83	2775.75	Yes		-15.5283446712018				ISIRate	Mixed
44.0	2	267.303	0.023	809.308	0.0	0.0	17.169	3.0	70.0	2.8	Certain	7.5	-8.12	0.0	No	4.0	-15.6213151927438	1.466	268.769		GetAnswer	Gain
44.0	2	268.791	0.022	810.796	0.0	0.0	17.169	4.0	70.0	2.8	Certain	7.5	-8.12	0.0	No		-15.6213151927438				ShowChoice	Gain
44.0	2	272.803	0.012	814.808	0.0	0.0	17.169	1.0	70.0	2.8	Certain	7.5	-8.12	0.0	No		-15.6213151927438				ShowResult	Gain
44.0	2	273.823	0.02	815.828	0.0	0.0	17.169	2.42	70.0	2.8	Certain	7.5	-8.12	0.0	No		-15.6213151927438				ISITrial	Gain
45.0	2	276.264	0.021	818.269	2.0	2.0	17.419	3.0	70.0	4.2	Certain	-6.0	10.1	0.0	No	4.0	-16.0952380952381	1.175	277.439		GetAnswer	Gain
45.0	2	277.451	0.012	819.456	2.0	2.0	17.419	4.0	70.0	4.2	Certain	-6.0	10.1	0.0	No		-16.0952380952381				ShowChoice	Gain
45.0	2	281.463	0.012	823.468	2.0	2.0	17.419	1.0	70.0	4.2	Certain	-6.0	10.1	0.0	No		-16.0952380952381				ShowResult	Gain
45.0	2	282.482	0.019	824.487	2.0	2.0	17.419	3.144	70.0	4.2	Certain	-6.0	10.1	0.0	No		-16.0952380952381				ISITrial	Gain
46.0	2	285.642	0.016	827.647	-4.0	-4.0	16.919	3.0	70.0	1.2	Certain	-12.67	3.9	3841.25	Yes	4.0	-16.5691609977324	1.85	287.492		GetAnswer	Mixed
46.0	2	287.514	0.022	829.519	-4.0	-4.0	16.919	4.0	70.0	1.2	Certain	-12.67	3.9	3841.25	Yes		-16.5691609977324				ShowChoice	Mixed
46.0	2	291.526	0.012	833.531	-4.0	-4.0	16.919	1.0	70.0	1.2	Certain	-12.67	3.9	3841.25	Yes		-16.5691609977324				ShowResult	Mixed
46.0	2	292.546	0.02	834.551	-4.0	-4.0	16.919	2.246	70.0	1.2	Certain	-12.67	3.9	3841.25	Yes		-16.5691609977324				ISITrial	Mixed
46.0	2	298.664	0.02	840.669	-4.0	-4.0	16.919	0.643	70.0	1.2	Certain	-12.67	3.9	3841.25	Yes		-16.5691609977324			480.0	TrialHappiness	Mixed
46.0	2	302.676	4.012	844.681	-4.0	-4.0	16.919	7.365	70.0	1.2	Certain	-12.67	3.9	3841.25	Yes		-16.5691609977324				ISIRate	Mixed
47.0	2	310.065	0.024	852.07	-7.0	-7.0	16.044	3.0	70.0	1.0	Certain	-15.21	1.7	0.0	No	4.0	-16.9070294784581	1.975	312.04		GetAnswer	Mixed
47.0	2	312.054	0.014	854.059	-7.0	-7.0	16.044	4.0	70.0	1.0	Certain	-15.21	1.7	0.0	No		-16.9070294784581				ShowChoice	Mixed
47.0	2	316.066	0.012	858.071	-7.0	-7.0	16.044	1.0	70.0	1.0	Certain	-15.21	1.7	0.0	No		-16.9070294784581				ShowResult	Mixed
47.0	2	317.086	0.02	859.091	-7.0	-7.0	16.044	2.0	70.0	1.0	Certain	-15.21	1.7	0.0	No		-16.9070294784581				ISITrial	Mixed
48.0	2	319.109	0.023	861.114	-8.0	-8.0	15.044	3.0	70.0	0.2	Certain	0.5	-16.87	2831.75	Yes	4.0	-17.3718820861678	1.59	320.699		GetAnswer	Mixed
48.0	2	320.714	0.015	862.719	-8.0	-8.0	15.044	4.0	70.0	0.2	Certain	0.5	-16.87	2831.75	Yes		-17.3718820861678				ShowChoice	Mixed
48.0	2	324.726	0.012	866.731	-8.0	-8.0	15.044	1.0	70.0	0.2	Certain	0.5	-16.87	2831.75	Yes		-17.3718820861678				ShowResult	Mixed
48.0	2	325.745	0.019	867.75	-8.0	-8.0	15.044	3.692	70.0	0.2	Certain	0.5	-16.87	2831.75	Yes		-17.3718820861678				ISITrial	Mixed
48.0	2	332.315	0.026	874.32	-8.0	-8.0	15.044	1.502	70.0	0.2	Certain	0.5	-16.87	2831.75	Yes		-17.3718820861678			468.0	TrialHappiness	Mixed
48.0	2	336.327	4.012	878.332	-8.0	-8.0	15.044	3.327	70.0	0.2	Certain	0.5	-16.87	2831.75	Yes		-17.3718820861678				ISIRate	Mixed
49.0	2	339.671	0.017	881.676	-2.56	-2.56	14.724	3.0	70.0	1.68	Certain	12.5	-5.13	0.0	No	4.0	-17.632653061224502	1.509	341.18		GetAnswer	Loss
49.0	2	341.192	0.012	883.197	-2.56	-2.56	14.724	4.0	70.0	1.68	Certain	12.5	-5.13	0.0	No		-17.632653061224502				ShowChoice	Loss
49.0	2	345.204	0.012	887.209	-2.56	-2.56	14.724	1.0	70.0	1.68	Certain	12.5	-5.13	0.0	No		-17.632653061224502				ShowResult	Loss
49.0	2	346.224	0.02	888.229	-2.56	-2.56	14.724	8.0	70.0	1.68	Certain	12.5	-5.13	0.0	No		-17.632653061224502				ISITrial	Loss
50.0	2	354.248	0.024	896.253	-4.0	-4.0	14.224	3.0	70.0	1.68	Certain	-13.58	4.5	3547.25	Yes	4.0	-18.083900226757397	1.755	356.003		GetAnswer	Gain
50.0	2	356.02	0.017	898.025	-4.0	-4.0	14.224	4.0	70.0	1.68	Certain	-13.58	4.5	3547.25	Yes		-18.083900226757397				ShowChoice	Gain
50.0	2	360.032	0.012	902.037	-4.0	-4.0	14.224	1.0	70.0	1.68	Certain	-13.58	4.5	3547.25	Yes		-18.083900226757397				ShowResult	Gain
50.0	2	361.051	0.019	903.056	-4.0	-4.0	14.224	7.537	70.0	1.68	Certain	-13.58	4.5	3547.25	Yes		-18.083900226757397				ISITrial	Gain
50.0	2	372.185	0.031	914.19	-4.0	-4.0	14.224	1.393	70.0	1.68	Certain	-13.58	4.5	3547.25	Yes	4{-4}4{-4}	-18.083900226757397	1.393	373.578	484.0	TrialHappiness	Gain
50.0	2	376.197	4.012	918.202	-4.0	-4.0	14.224	6.189	70.0	1.68	Certain	-13.58	4.5	3547.25	Yes		-18.083900226757397				ISIRate	Gain
51.0	2	382.415	0.029	924.42	-1.0	-1.0	14.099	3.0	70.0	5.0	Certain	-10.51	8.3	0.0	No	4.0	-18.807256235827698	1.856	384.271		GetAnswer	Gain
51.0	2	384.288	0.017	926.293	-1.0	-1.0	14.099	4.0	70.0	5.0	Certain	-10.51	8.3	0.0	No		-18.807256235827698				ShowChoice	Gain
51.0	2	388.3	0.012	930.305	-1.0	-1.0	14.099	1.0	70.0	5.0	Certain	-10.51	8.3	0.0	No		-18.807256235827698				ShowResult	Gain
51.0	2	389.319	0.019	931.324	-1.0	-1.0	14.099	5.508	70.0	5.0	Certain	-10.51	8.3	0.0	No		-18.807256235827698				ISITrial	Gain
52.0	2	394.853	0.026	936.858	1.0	1.0	14.224	3.0	70.0	2.22	Certain	11.1	-8.18	0.0	No	4.0	-19.2766439909297	1.306	396.159		GetAnswer	Loss
52.0	2	396.173	0.014	938.178	1.0	1.0	14.224	4.0	70.0	2.22	Certain	11.1	-8.18	0.0	No		-19.2766439909297				ShowChoice	Loss
52.0	2	400.185	0.012	942.19	1.0	1.0	14.224	1.0	70.0	2.22	Certain	11.1	-8.18	0.0	No		-19.2766439909297				ShowResult	Loss
52.0	2	401.205	0.02	943.21	1.0	1.0	14.224	5.913	70.0	2.22	Certain	11.1	-8.18	0.0	No		-19.2766439909297				ISITrial	Loss
53.0	2	407.14	0.022	949.145	-1.0	-1.0	14.099	3.0	70.0	1.5	Certain	0.02	-2.72	2996.75	Yes	4.0	2.7407407407407405	1.361	408.501		GetAnswer	Mixed
53.0	2	408.527	0.025	950.532	-1.0	-1.0	14.099	4.0	70.0	1.5	Certain	0.02	-2.72	2996.75	Yes		2.7407407407407405				ShowChoice	Mixed
53.0	2	412.539	0.012	954.544	-1.0	-1.0	14.099	1.0	70.0	1.5	Certain	0.02	-2.72	2996.75	Yes		2.7407407407407405				ShowResult	Mixed
53.0	2	413.559	0.02	955.564	-1.0	-1.0	14.099	3.66	70.0	1.5	Certain	0.02	-2.72	2996.75	Yes		2.7407407407407405				ISITrial	Mixed
53.0	2	420.262	0.028	962.267	-1.0	-1.0	14.099	2.008	70.0	1.5	Certain	0.02	-2.72	2996.75	Yes		2.7407407407407405			488.0	TrialHappiness	Mixed
53.0	2	424.274	4.012	966.279	-1.0	-1.0	14.099	3.987	70.0	1.5	Certain	0.02	-2.72	2996.75	Yes		2.7407407407407405				ISIRate	Mixed
54.0	2	428.286	0.025	970.291	0.0	0.0	14.099	3.0	70.0	1.82	Certain	-9.58	10.7	0.0	No	4.0	-20.2834467120181	1.243	429.529		GetAnswer	Loss
54.0	2	429.54	0.011	971.545	0.0	0.0	14.099	4.0	70.0	1.82	Certain	-9.58	10.7	0.0	No		-20.2834467120181				ShowChoice	Loss
54.0	2	433.552	0.012	975.557	0.0	0.0	14.099	1.0	70.0	1.82	Certain	-9.58	10.7	0.0	No		-20.2834467120181				ShowResult	Loss
54.0	2	434.572	0.02	976.577	0.0	0.0	14.099	8.0	70.0	1.82	Certain	-9.58	10.7	0.0	No		-20.2834467120181				ISITrial	Loss
	2	442.596	0.024	984.601				-0.001								{SPACE}		36.13	478.726		Rest	
	2	478.738	0.012	1020.743				4.0													BlockHappyPreview	
	2	482.75	0.012	1024.755				0.759								2{-2}		0.759	483.509	536.0	BlockStartHappiness	
	2	489.353	0.02	1031.358				-0.001								5.0		4.554	493.907		ScanWait	
	3	0.026	0.026	1035.938				10.0													GetReady	
55.0	3	10.04	0.014	1045.952	7.7	0.29	15.0615	3.0	955.0	3.16	Outcome2	0.58	7.7	2533.25	Yes	2.0	7.117780294450741	1.212	11.252		GetAnswer	Gain
55.0	3	11.277	0.025	1047.189	7.7	0.29	15.0615	4.0	955.0	3.16	Outcome2	0.58	7.7	2533.25	Yes		7.117780294450741				ShowChoice	Gain
55.0	3	15.289	0.012	1051.201	7.7	0.29	15.0615	1.0	955.0	3.16	Outcome2	0.58	7.7	2533.25	Yes		7.117780294450741				ShowResult	Gain
55.0	3	16.308	0.019	1052.22	7.7	0.29	15.0615	7.709	955.0	3.16	Outcome2	0.58	7.7	2533.25	Yes		7.117780294450741				ISITrial	Gain
55.0	3	26.589	0.024	1062.501	7.7	0.29	15.0615	2.208	955.0	3.16	Outcome2	0.58	7.7	2533.25	Yes		7.117780294450741			640.0	TrialHappiness	Gain
55.0	3	30.601	4.012	1066.513	7.7	0.29	15.0615	2.133	955.0	3.16	Outcome2	0.58	7.7	2533.25	Yes		7.117780294450741				ISIRate	Gain
56.0	3	32.758	0.024	1068.67	-4.0	-4.0	14.5615	3.0	955.0	0.52	Certain	-6.73	-0.9	0.0	No	4.0	5.82559456398641	1.85	34.608		GetAnswer	Mixed
56.0	3	34.63	0.022	1070.542	-4.0	-4.0	14.5615	4.0	955.0	0.52	Certain	-6.73	-0.9	0.0	No		5.82559456398641				ShowChoice	Mixed
56.0	3	38.642	0.012	1074.554	-4.0	-4.0	14.5615	1.0	955.0	0.52	Certain	-6.73	-0.9	0.0	No		5.82559456398641				ShowResult	Mixed
56.0	3	39.662	0.02	1075.574	-4.0	-4.0	14.5615	4.697	955.0	0.52	Certain	-6.73	-0.9	0.0	No		5.82559456398641				ISITrial	Mixed
57.0	3	44.376	0.017	1080.288	0.0	0.0	14.5615	3.0	955.0	0.4	Certain	-0.45	0.9	0.0	No	4.0	-1.34758399395998	1.664	46.04		GetAnswer	Mixed
57.0	3	46.064	0.024	1081.976	0.0	0.0	14.5615	4.0	955.0	0.4	Certain	-0.45	0.9	0.0	No		-1.34758399395998				ShowChoice	Mixed
57.0	3	50.076	0.012	1085.988	0.0	0.0	14.5615	1.0	955.0	0.4	Certain	-0.45	0.9	0.0	No		-1.34758399395998				ShowResult	Mixed
57.0	3	51.096	0.02	1087.008	0.0	0.0	14.5615	4.291	955.0	0.4	Certain	-0.45	0.9	0.0	No		-1.34758399395998				ISITrial	Mixed
58.0	3	55.409	0.022	1091.321	0.92	1.0	14.6765	3.0	955.0	2.0	Outcome1	0.92	2.3	3045.75	Yes	2.0	-1.37731219328048	1.516	56.925		GetAnswer	Mixed
58.0	3	56.947	0.022	1092.859	0.92	1.0	14.6765	4.0	955.0	2.0	Outcome1	0.92	2.3	3045.75	Yes		-1.37731219328048				ShowChoice	Mixed
58.0	3	60.959	0.012	1096.871	0.92	1.0	14.6765	1.0	955.0	2.0	Outcome1	0.92	2.3	3045.75	Yes		-1.37731219328048				ShowResult	Mixed
58.0	3	61.979	0.02	1097.891	0.92	1.0	14.6765	2.037	955.0	2.0	Outcome1	0.92	2.3	3045.75	Yes		-1.37731219328048				ISITrial	Mixed
58.0	3	67.111	0.03	1103.023	0.92	1.0	14.6765	1.565	955.0	2.0	Outcome1	0.92	2.3	3045.75	Yes		-1.37731219328048			556.0	TrialHappiness	Mixed
58.0	3	71.123	4.012	1107.035	0.92	1.0	14.6765	4.183	955.0	2.0	Outcome1	0.92	2.3	3045.75	Yes		-1.37731219328048				ISIRate	Mixed
59.0	3	75.336	0.03	1111.248	2.0	2.0	14.9265	3.0	955.0	4.2	Certain	-2.22	6.1	0.0	No	4.0	8.32276330690827	1.246	76.582		GetAnswer	Gain
59.0	3	76.606	0.024	1112.518	2.0	2.0	14.9265	4.0	955.0	4.2	Certain	-2.22	6.1	0.0	No		8.32276330690827				ShowChoice	Gain
59.0	3	80.618	0.012	1116.53	2.0	2.0	14.9265	1.0	955.0	4.2	Certain	-2.22	6.1	0.0	No		8.32276330690827				ShowResult	Gain
59.0	3	81.638	0.02	1117.55	2.0	2.0	14.9265	5.064	955.0	4.2	Certain	-2.22	6.1	0.0	No		8.32276330690827				ISITrial	Gain
60.0	3	86.72	0.018	1122.632	0.0	0.0	14.9265	3.0	955.0	0.66	Certain	1.3	-0.49	3562.5	Yes	4.0	-1.78557946394866	1.43	88.15		GetAnswer	Mixed
60.0	3	88.174	0.024	1124.086	0.0	0.0	14.9265	4.0	955.0	0.66	Certain	1.3	-0.49	3562.5	Yes		-1.78557946394866				ShowChoice	Mixed
60.0	3	92.186	0.012	1128.098	0.0	0.0	14.9265	1.0	955.0	0.66	Certain	1.3	-0.49	3562.5	Yes		-1.78557946394866				ShowResult	Mixed
60.0	3	93.206	0.02	1129.118	0.0	0.0	14.9265	8.0	955.0	0.66	Certain	1.3	-0.49	3562.5	Yes		-1.78557946394866				ISITrial	Mixed
60.0	3	104.807	0.015	1140.719	0.0	0.0	14.9265	1.579	955.0	0.66	Certain	1.3	-0.49	3562.5	Yes		-1.78557946394866			576.0	TrialHappiness	Mixed
60.0	3	108.819	4.012	1144.731	0.0	0.0	14.9265	6.25	955.0	0.66	Certain	1.3	-0.49	3562.5	Yes		-1.78557946394866				ISIRate	Mixed
61.0	3	115.088	0.019	1151.0	2.0	2.0	15.1765	3.0	955.0	2.22	Certain	7.1	-1.79	0.0	No	4.0	8.88674971687429	1.036	116.124		GetAnswer	Gain
61.0	3	116.141	0.017	1152.053	2.0	2.0	15.1765	4.0	955.0	2.22	Certain	7.1	-1.79	0.0	No		8.88674971687429				ShowChoice	Gain
61.0	3	120.153	0.012	1156.065	2.0	2.0	15.1765	1.0	955.0	2.22	Certain	7.1	-1.79	0.0	No		8.88674971687429				ShowResult	Gain
61.0	3	121.173	0.02	1157.085	2.0	2.0	15.1765	4.586	955.0	2.22	Certain	7.1	-1.79	0.0	No		8.88674971687429				ISITrial	Gain
62.0	3	125.787	0.028	1161.699	12.1	1.39	16.689	3.0	955.0	4.2	Outcome2	2.78	12.1	3748.75	Yes	2.0	9.31596828992073	1.42	127.207		GetAnswer	Loss
62.0	3	127.225	0.018	1163.137	12.1	1.39	16.689	4.0	955.0	4.2	Outcome2	2.78	12.1	3748.75	Yes		9.31596828992073				ShowChoice	Loss
62.0	3	131.237	0.012	1167.149	12.1	1.39	16.689	1.0	955.0	4.2	Outcome2	2.78	12.1	3748.75	Yes		9.31596828992073				ShowResult	Loss
62.0	3	132.256	0.019	1168.168	12.1	1.39	16.689	5.212	955.0	4.2	Outcome2	2.78	12.1	3748.75	Yes		9.31596828992073				ISITrial	Loss
62.0	3	141.267	0.029	1177.179	12.1	1.39	16.689	3.882	955.0	4.2	Outcome2	2.78	12.1	3748.75	Yes		9.31596828992073			744.0	TrialHappiness	Loss
62.0	3	145.279	4.012	1181.191	12.1	1.39	16.689	6.995	955.0	4.2	Outcome2	2.78	12.1	3748.75	Yes		9.31596828992073				ISIRate	Loss
63.0	3	152.3	0.026	1188.212	1.0	1.0	16.814	3.0	955.0	1.5	Certain	0.97	2.1	0.0	No	4.0	-1.1318422046055099	1.491	153.791		GetAnswer	Mixed
63.0	3	153.804	0.013	1189.716	1.0	1.0	16.814	4.0	955.0	1.5	Certain	0.97	2.1	0.0	No		-1.1318422046055099				ShowChoice	Mixed
63.0	3	157.816	0.012	1193.728	1.0	1.0	16.814	1.0	955.0	1.5	Certain	0.97	2.1	0.0	No		-1.1318422046055099				ShowResult	Mixed
63.0	3	158.836	0.02	1194.748	1.0	1.0	16.814	5.595	955.0	1.5	Certain	0.97	2.1	0.0	No		-1.1318422046055099				ISITrial	Mixed
64.0	3	164.453	0.022	1200.365	11.5	2.18	18.2515	3.0	955.0	2.8	Outcome1	11.5	4.37	0.0	No	2.0	7.13023782559456	1.078	165.531		GetAnswer	Loss
64.0	3	165.556	0.025	1201.468	11.5	2.18	18.2515	4.0	955.0	2.8	Outcome1	11.5	4.37	0.0	No		7.13023782559456				ShowChoice	Loss
64.0	3	169.568	0.012	1205.48	11.5	2.18	18.2515	1.0	955.0	2.8	Outcome1	11.5	4.37	0.0	No		7.13023782559456				ShowResult	Loss
64.0	3	170.588	0.02	1206.5	11.5	2.18	18.2515	5.47	955.0	2.8	Outcome1	11.5	4.37	0.0	No		7.13023782559456				ISITrial	Loss
65.0	3	176.088	0.03	1212.0	5.33	2.66	18.9177	3.0	955.0	1.68	Outcome2	6.5	5.33	2996.75	Yes	2.0	-1.17166855417139	0.842	176.93		GetAnswer	Gain
65.0	3	176.957	0.027	1212.869	5.33	2.66	18.9177	4.0	955.0	1.68	Outcome2	6.5	5.33	2996.75	Yes		-1.17166855417139				ShowChoice	Gain
65.0	3	180.969	0.012	1216.881	5.33	2.66	18.9177	1.0	955.0	1.68	Outcome2	6.5	5.33	2996.75	Yes		-1.17166855417139				ShowResult	Gain
65.0	3	181.989	0.02	1217.901	5.33	2.66	18.9177	3.344	955.0	1.68	Outcome2	6.5	5.33	2996.75	Yes		-1.17166855417139				ISITrial	Gain
65.0	3	188.375	0.029	1224.287	5.33	2.66	18.9177	2.948	955.0	1.68	Outcome2	6.5	5.33	2996.75	Yes		-1.17166855417139			720.0	TrialHappiness	Gain
65.0	3	192.403	4.028	1228.315	5.33	2.66	18.9177	3.987	955.0	1.68	Outcome2	6.5	5.33	2996.75	Yes		-1.17166855417139				ISIRate	Gain
66.0	3	196.415	0.025	1232.327	13.3	2.64	20.5802	3.0	955.0	2.48	Outcome2	5.28	13.3	0.0	No	2.0	8.0158550396376	0.882	197.297		GetAnswer	Loss
66.0	3	197.318	0.021	1233.23	13.3	2.64	20.5802	4.0	955.0	2.48	Outcome2	5.28	13.3	0.0	No		8.0158550396376				ShowChoice	Loss
66.0	3	201.347	0.029	1237.259	13.3	2.64	20.5802	1.0	955.0	2.48	Outcome2	5.28	13.3	0.0	No		8.0158550396376				ShowResult	Loss
66.0	3	202.367	0.02	1238.279	13.3	2.64	20.5802	3.959	955.0	2.48	Outcome2	5.28	13.3	0.0	No		8.0158550396376				ISITrial	Loss
67.0	3	206.345	0.019	1242.257	11.39	5.7	22.004	3.0	955.0	1.82	Outcome1	11.39	12.7	2918.5	Yes	2.0	-1.31115515288788	0.871	207.216		GetAnswer	Loss
67.0	3	207.231	0.015	1243.143	11.39	5.7	22.004	4.0	955.0	1.82	Outcome1	11.39	12.7	2918.5	Yes		-1.31115515288788				ShowChoice	Loss
67.0	3	211.26	0.029	1247.172	11.39	5.7	22.004	1.0	955.0	1.82	Outcome1	11.39	12.7	2918.5	Yes		-1.31115515288788				ShowResult	Loss
67.0	3	212.28	0.02	1248.192	11.39	5.7	22.004	4.199	955.0	1.82	Outcome1	11.39	12.7	2918.5	Yes		-1.31115515288788				ISITrial	Loss
67.0	3	219.434	0.024	1255.346	11.39	5.7	22.004	1.73	955.0	1.82	Outcome1	11.39	12.7	2918.5	Yes		-1.31115515288788			712.0	TrialHappiness	Loss
67.0	3	223.463	4.029	1259.375	11.39	5.7	22.004	3.674	955.0	1.82	Outcome1	11.39	12.7	2918.5	Yes		-1.31115515288788				ISIRate	Loss
68.0	3	227.158	0.021	1263.07	-1.0	-1.0	21.879	3.0	955.0	0.82	Certain	3.5	-5.18	0.0	No	4.0	8.68403171007928	1.724	228.882		GetAnswer	Mixed
68.0	3	228.896	0.014	1264.808	-1.0	-1.0	21.879	4.0	955.0	0.82	Certain	3.5	-5.18	0.0	No		8.68403171007928				ShowChoice	Mixed
68.0	3	232.925	0.029	1268.837	-1.0	-1.0	21.879	1.0	955.0	0.82	Certain	3.5	-5.18	0.0	No		8.68403171007928				ShowResult	Mixed
68.0	3	233.945	0.02	1269.857	-1.0	-1.0	21.879	2.185	955.0	0.82	Certain	3.5	-5.18	0.0	No		8.68403171007928				ISITrial	Mixed
69.0	3	236.151	0.021	1272.063	0.0	0.0	21.879	3.0	955.0	1.5	Certain	-4.86	4.1	0.0	No	4.0	8.95922989807475	1.247	237.398		GetAnswer	Mixed
69.0	3	237.422	0.024	1273.334	0.0	0.0	21.879	4.0	955.0	1.5	Certain	-4.86	4.1	0.0	No		8.95922989807475				ShowChoice	Mixed
69.0	3	241.451	0.029	1277.363	0.0	0.0	21.879	1.0	955.0	1.5	Certain	-4.86	4.1	0.0	No		8.95922989807475				ShowResult	Mixed
69.0	3	242.47	0.019	1278.382	0.0	0.0	21.879	2.0	955.0	1.5	Certain	-4.86	4.1	0.0	No		8.95922989807475				ISITrial	Mixed
70.0	3	244.493	0.023	1280.405	7.29	3.64	22.7902	3.0	955.0	1.82	Outcome1	7.29	8.7	3651.25	Yes	2.0	-1.41166477916195	0.918	245.411		GetAnswer	Gain
70.0	3	245.429	0.018	1281.341	7.29	3.64	22.7902	4.0	955.0	1.82	Outcome1	7.29	8.7	3651.25	Yes		-1.41166477916195				ShowChoice	Gain
70.0	3	249.458	0.029	1285.37	7.29	3.64	22.7902	1.0	955.0	1.82	Outcome1	7.29	8.7	3651.25	Yes		-1.41166477916195				ShowResult	Gain
70.0	3	250.478	0.02	1286.39	7.29	3.64	22.7902	2.623	955.0	1.82	Outcome1	7.29	8.7	3651.25	Yes		-1.41166477916195				ISITrial	Gain
70.0	3	256.797	0.027	1292.709	7.29	3.64	22.7902	1.661	955.0	1.82	Outcome1	7.29	8.7	3651.25	Yes		-1.41166477916195			712.0	TrialHappiness	Gain
70.0	3	260.809	4.012	1296.721	7.29	3.64	22.7902	6.605	955.0	1.82	Outcome1	7.29	8.7	3651.25	Yes		-1.41166477916195				ISIRate	Gain
71.0	3	267.445	0.031	1303.357	3.47	1.74	23.224	3.0	955.0	2.0	Outcome2	4.9	3.47	0.0	No	2.0	-1.4345979614949	0.968	268.413		GetAnswer	Gain
71.0	3	268.431	0.018	1304.343	3.47	1.74	23.224	4.0	955.0	2.0	Outcome2	4.9	3.47	0.0	No		-1.4345979614949				ShowChoice	Gain
71.0	3	272.444	0.013	1308.356	3.47	1.74	23.224	1.0	955.0	2.0	Outcome2	4.9	3.47	0.0	No		-1.4345979614949				ShowResult	Gain
71.0	3	273.463	0.019	1309.375	3.47	1.74	23.224	5.499	955.0	2.0	Outcome2	4.9	3.47	0.0	No		-1.4345979614949				ISITrial	Gain
72.0	3	278.98	0.018	1314.892	-2.0	-2.0	22.974	3.0	955.0	0.52	Certain	3.1	-6.68	3080.5	Yes	4.0	9.78482446206116	1.555	280.535		GetAnswer	Mixed
72.0	3	280.551	0.016	1316.463	-2.0	-2.0	22.974	4.0	955.0	0.52	Certain	3.1	-6.68	3080.5	Yes		9.78482446206116				ShowChoice	Mixed
72.0	3	284.563	0.012	1320.475	-2.0	-2.0	22.974	1.0	955.0	0.52	Certain	3.1	-6.68	3080.5	Yes		9.78482446206116				ShowResult	Mixed
72.0	3	285.583	0.02	1321.495	-2.0	-2.0	22.974	5.672	955.0	0.52	Certain	3.1	-6.68	3080.5	Yes		9.78482446206116				ISITrial	Mixed
72.0	3	294.376	0.029	1330.288	-2.0	-2.0	22.974	1.516	955.0	0.52	Certain	3.1	-6.68	3080.5	Yes		9.78482446206116			660.0	TrialHappiness	Mixed
72.0	3	298.388	4.012	1334.3	-2.0	-2.0	22.974	4.322	955.0	0.52	Certain	3.1	-6.68	3080.5	Yes		9.78482446206116				ISIRate	Mixed
73.0	3	302.734	0.024	1338.646	3.01	1.5	23.3503	3.0	955.0	1.82	Outcome2	4.7	3.01	0.0	No	2.0	-1.6914873537183797	1.182	303.916		GetAnswer	Gain
73.0	3	303.938	0.022	1339.85	3.01	1.5	23.3503	4.0	955.0	1.82	Outcome2	4.7	3.01	0.0	No		-1.6914873537183797				ShowChoice	Gain
73.0	3	307.95	0.012	1343.862	3.01	1.5	23.3503	1.0	955.0	1.82	Outcome2	4.7	3.01	0.0	No		-1.6914873537183797				ShowResult	Gain
73.0	3	308.97	0.02	1344.882	3.01	1.5	23.3503	4.616	955.0	1.82	Outcome2	4.7	3.01	0.0	No		-1.6914873537183797				ISITrial	Gain
74.0	3	313.617	0.031	1349.529	-6.0	-6.0	22.6003	3.0	955.0	0.82	Certain	-0.5	-11.78	3056.25	Yes	4.0	11.277463193657999	2.087	315.704		GetAnswer	Mixed
74.0	3	315.723	0.019	1351.635	-6.0	-6.0	22.6003	4.0	955.0	0.82	Certain	-0.5	-11.78	3056.25	Yes		11.277463193657999				ShowChoice	Mixed
74.0	3	319.735	0.012	1355.647	-6.0	-6.0	22.6003	1.0	955.0	0.82	Certain	-0.5	-11.78	3056.25	Yes		11.277463193657999				ShowResult	Mixed
74.0	3	320.755	0.02	1356.667	-6.0	-6.0	22.6003	3.909	955.0	0.82	Certain	-0.5	-11.78	3056.25	Yes		11.277463193657999				ISITrial	Mixed
74.0	3	327.759	0.019	1363.671	-6.0	-6.0	22.6003	1.362	955.0	0.82	Certain	-0.5	-11.78	3056.25	Yes		11.277463193657999			680.0	TrialHappiness	Mixed
74.0	3	331.771	4.012	1367.683	-6.0	-6.0	22.6003	4.225	955.0	0.82	Certain	-0.5	-11.78	3056.25	Yes		11.277463193657999				ISIRate	Mixed
75.0	3	336.018	0.022	1371.93	12.9	0.82	24.2128	3.0	955.0	2.0	Outcome1	12.9	1.63	0.0	No	2.0	11.2718006795017	1.402	337.42		GetAnswer	Loss
75.0	3	337.438	0.018	1373.35	12.9	0.82	24.2128	4.0	955.0	2.0	Outcome1	12.9	1.63	0.0	No		11.2718006795017				ShowChoice	Loss
75.0	3	341.451	0.013	1377.363	12.9	0.82	24.2128	1.0	955.0	2.0	Outcome1	12.9	1.63	0.0	No		11.2718006795017				ShowResult	Loss
75.0	3	342.47	0.019	1378.382	12.9	0.82	24.2128	4.979	955.0	2.0	Outcome1	12.9	1.63	0.0	No		11.2718006795017				ISITrial	Loss
76.0	3	347.469	0.02	1383.381	-2.0	-2.0	23.9628	3.0	955.0	0.66	Certain	-8.28	3.3	0.0	No	4.0	11.5832389580974	1.471	348.94		GetAnswer	Mixed
76.0	3	348.956	0.016	1384.868	-2.0	-2.0	23.9628	4.0	955.0	0.66	Certain	-8.28	3.3	0.0	No		11.5832389580974				ShowChoice	Mixed
76.0	3	352.968	0.012	1388.88	-2.0	-2.0	23.9628	1.0	955.0	0.66	Certain	-8.28	3.3	0.0	No		11.5832389580974				ShowResult	Mixed
76.0	3	353.988	0.02	1389.9	-2.0	-2.0	23.9628	3.931	955.0	0.66	Certain	-8.28	3.3	0.0	No		11.5832389580974				ISITrial	Mixed
77.0	3	357.95	0.031	1393.862	8.58	4.29	25.0353	3.0	955.0	5.0	Outcome2	10.3	8.58	4000.0	Yes	2.0	-1.71791241978105	1.075	359.025		GetAnswer	Gain
77.0	3	359.037	0.012	1394.949	8.58	4.29	25.0353	4.0	955.0	5.0	Outcome2	10.3	8.58	4000.0	Yes		-1.71791241978105				ShowChoice	Gain
77.0	3	363.049	0.012	1398.961	8.58	4.29	25.0353	1.0	955.0	5.0	Outcome2	10.3	8.58	4000.0	Yes		-1.71791241978105				ShowResult	Gain
77.0	3	364.068	0.019	1399.98	8.58	4.29	25.0353	7.022	955.0	5.0	Outcome2	10.3	8.58	4000.0	Yes		-1.71791241978105				ISITrial	Gain
77.0	3	375.135	0.029	1411.047	8.58	4.29	25.0353	1.228	955.0	5.0	Outcome2	10.3	8.58	4000.0	Yes		-1.71791241978105			664.0	TrialHappiness	Gain
77.0	3	379.147	4.012	1415.059	8.58	4.29	25.0353	8.0	955.0	5.0	Outcome2	10.3	8.58	4000.0	Yes		-1.71791241978105				ISIRate	Gain
78.0	3	387.171	0.024	1423.083	-0.09	-0.09	25.024	3.0	955.0	5.0	Certain	-0.18	12.3	0.0	No	4.0	12.477916194790499	1.445	388.616		GetAnswer	Loss
78.0	3	388.642	0.026	1424.554	-0.09	-0.09	25.024	4.0	955.0	5.0	Certain	-0.18	12.3	0.0	No		12.477916194790499				ShowChoice	Loss
78.0	3	392.654	0.012	1428.566	-0.09	-0.09	25.024	1.0	955.0	5.0	Certain	-0.18	12.3	0.0	No		12.477916194790499				ShowResult	Loss
78.0	3	393.674	0.02	1429.586	-0.09	-0.09	25.024	2.078	955.0	5.0	Certain	-0.18	12.3	0.0	No		12.477916194790499				ISITrial	Loss
79.0	3	395.78	0.028	1431.692	-6.0	-6.0	24.274	3.0	955.0	0.2	Certain	0.5	-12.31	2729.5	Yes	4.0	12.807474518686302	2.124	397.904		GetAnswer	Mixed
79.0	3	397.92	0.016	1433.832	-6.0	-6.0	24.274	4.0	955.0	0.2	Certain	0.5	-12.31	2729.5	Yes		12.807474518686302				ShowChoice	Mixed
79.0	3	401.932	0.012	1437.844	-6.0	-6.0	24.274	1.0	955.0	0.2	Certain	0.5	-12.31	2729.5	Yes		12.807474518686302				ShowResult	Mixed
79.0	3	402.952	0.02	1438.864	-6.0	-6.0	24.274	3.829	955.0	0.2	Certain	0.5	-12.31	2729.5	Yes		12.807474518686302				ISITrial	Mixed
79.0	3	409.555	0.028	1445.467	-6.0	-6.0	24.274	1.544	955.0	0.2	Certain	0.5	-12.31	2729.5	Yes	2{-2}4{-4}	12.807474518686302	1.544	411.099	572.0	TrialHappiness	Mixed
79.0	3	413.567	4.012	1449.479	-6.0	-6.0	24.274	2.918	955.0	0.2	Certain	0.5	-12.31	2729.5	Yes		12.807474518686302				ISIRate	Mixed
80.0	3	416.509	0.024	1452.421	0.0	0.0	24.274	3.0	955.0	2.48	Certain	-7.4	7.3	0.0	No	4.0	14.6998867497169	1.162	417.671		GetAnswer	Gain
80.0	3	417.696	0.025	1453.608	0.0	0.0	24.274	4.0	955.0	2.48	Certain	-7.4	7.3	0.0	No		14.6998867497169				ShowChoice	Gain
80.0	3	421.708	0.012	1457.62	0.0	0.0	24.274	1.0	955.0	2.48	Certain	-7.4	7.3	0.0	No		14.6998867497169				ShowResult	Gain
80.0	3	422.728	0.02	1458.64	0.0	0.0	24.274	3.336	955.0	2.48	Certain	-7.4	7.3	0.0	No		14.6998867497169				ISITrial	Gain
81.0	3	426.088	0.024	1462.0	1.0	1.0	24.399	3.0	955.0	2.0	Certain	0.03	2.3	3923.75	Yes	4.0	-2.27321630804077	1.572	427.66		GetAnswer	Mixed
81.0	3	427.676	0.016	1463.588	1.0	1.0	24.399	4.0	955.0	2.0	Certain	0.03	2.3	3923.75	Yes		-2.27321630804077				ShowChoice	Mixed
81.0	3	431.688	0.012	1467.6	1.0	1.0	24.399	1.0	955.0	2.0	Certain	0.03	2.3	3923.75	Yes		-2.27321630804077				ShowResult	Mixed
81.0	3	432.708	0.02	1468.62	1.0	1.0	24.399	3.919	955.0	2.0	Certain	0.03	2.3	3923.75	Yes		-2.27321630804077				ISITrial	Mixed
81.0	3	440.598	0.021	1476.51	1.0	1.0	24.399	1.445	955.0	2.0	Certain	0.03	2.3	3923.75	Yes	2{-2}2{-2}2{-2}	-2.27321630804077	1.445	442.043	632.0	TrialHappiness	Mixed
81.0	3	444.61	4.012	1480.522	1.0	1.0	24.399	7.695	955.0	2.0	Certain	0.03	2.3	3923.75	Yes		-2.27321630804077				ISIRate	Mixed
	3	452.333	0.028	1488.245				3.0													CurrentEarnings	
	3	455.359	0.026	1491.271				-0.001								1.0		97.918	553.277		Goodbye	
