trial_number	block	onset	onset_delay	onset_unadjusted	amount_change	certain_amount	current_amount	duration	mood_target	multiplier	outcome	outcome1_amount	outcome2_amount	question_duration	rating	response	rpe	rt	rt_time	slider_response	trial_phase	trial_type
	0	-61.558	0.022	13.009				-0.001								{SPACE}		2.135	-59.423		Welcome	
	0	-59.392	0.031	15.175				5.0													LifeHappyPreview	
	0	-54.36	0.032	20.207				4.94								2{-2}2{-2}4{-4}2{-2}		4.94	-49.42	568.0	LifeHappiness	
	0	-23.205	0.016	51.362				4.0													BlockHappyPreview	
	0	-19.189	0.016	55.378				0.0												512.0	BlockStartHappiness	
	0	-9.543	0.025	65.024				-0.001								5.0					ScanWait	
	1	0.021	0.021	74.588				10.0													GetReady	
1.0	1	10.051	0.03	84.618	5.3	2.65	10.6625	3.0	955.0	2.22	Outcome2	7.1	5.3	0.0	No	2.0	-1.79775386938467	1.467	11.518		GetAnswer	Gain
1.0	1	11.533	0.015	86.1	5.3	2.65	10.6625	4.0	955.0	2.22	Outcome2	7.1	5.3	0.0	No		-1.79775386938467				ShowChoice	Gain
1.0	1	15.549	0.016	90.116	5.3	2.65	10.6625	1.0	955.0	2.22	Outcome2	7.1	5.3	0.0	No		-1.79775386938467				ShowResult	Gain
1.0	1	16.565	0.016	91.132	5.3	2.65	10.6625	2.431	955.0	2.22	Outcome2	7.1	5.3	0.0	No		-1.79775386938467				ISITrial	Gain
2.0	1	19.031	0.035	93.598	2.0	2.0	10.9125	3.0	955.0	1.68	Certain	-1.53	6.5	0.0	No	4.0	8.02718006795017	1.169	20.2		GetAnswer	Gain
2.0	1	20.214	0.014	94.781	2.0	2.0	10.9125	4.0	955.0	1.68	Certain	-1.53	6.5	0.0	No		8.02718006795017				ShowChoice	Gain
2.0	1	24.229	0.015	98.796	2.0	2.0	10.9125	1.0	955.0	1.68	Certain	-1.53	6.5	0.0	No		8.02718006795017				ShowResult	Gain
2.0	1	25.245	0.016	99.812	2.0	2.0	10.9125	4.568	955.0	1.68	Certain	-1.53	6.5	0.0	No		8.02718006795017				ISITrial	Gain
3.0	1	29.844	0.031	104.411	0.0	0.0	10.9125	3.0	955.0	1.2	Certain	3.9	-4.63	2868.0	Yes	4.0	8.52887882219705	1.218	31.062		GetAnswer	Mixed
3.0	1	31.077	0.015	105.644	0.0	0.0	10.9125	4.0	955.0	1.2	Certain	3.9	-4.63	2868.0	Yes		8.52887882219705				ShowChoice	Mixed
3.0	1	35.092	0.015	109.659	0.0	0.0	10.9125	1.0	955.0	1.2	Certain	3.9	-4.63	2868.0	Yes		8.52887882219705				ShowResult	Mixed
3.0	1	36.108	0.016	110.675	0.0	0.0	10.9125	3.243	955.0	1.2	Certain	3.9	-4.63	2868.0	Yes		8.52887882219705				ISITrial	Mixed
3.0	1	42.273	0.031	116.84	0.0	0.0	10.9125	1.84	955.0	1.2	Certain	3.9	-4.63	2868.0	Yes		8.52887882219705			560.0	TrialHappiness	Mixed
3.0	1	46.288	4.015	120.855	0.0	0.0	10.9125	3.472	955.0	1.2	Certain	3.9	-4.63	2868.0	Yes		8.52887882219705				ISIRate	Mixed
4.0	1	49.787	0.027	124.354	9.1	0.44	12.05	3.0	955.0	2.22	Outcome2	0.88	9.1	0.0	No	2.0	8.21517553793884	1.306	51.093		GetAnswer	Gain
4.0	1	51.12	0.027	125.687	9.1	0.44	12.05	4.0	955.0	2.22	Outcome2	0.88	9.1	0.0	No		8.21517553793884				ShowChoice	Gain
4.0	1	55.135	0.015	129.702	9.1	0.44	12.05	1.0	955.0	2.22	Outcome2	0.88	9.1	0.0	No		8.21517553793884				ShowResult	Gain
4.0	1	56.151	0.016	130.718	9.1	0.44	12.05	2.011	955.0	2.22	Outcome2	0.88	9.1	0.0	No		8.21517553793884				ISITrial	Gain
5.0	1	58.184	0.022	132.751	2.7	-1.0	12.3875	3.0	955.0	0.3	Outcome1	2.7	-5.96	2582.5	Yes	2.0	8.66251415628539	1.072	59.256		GetAnswer	Mixed
5.0	1	59.284	0.028	133.851	2.7	-1.0	12.3875	4.0	955.0	0.3	Outcome1	2.7	-5.96	2582.5	Yes		8.66251415628539				ShowChoice	Mixed
5.0	1	63.299	0.015	137.866	2.7	-1.0	12.3875	1.0	955.0	0.3	Outcome1	2.7	-5.96	2582.5	Yes		8.66251415628539				ShowResult	Mixed
5.0	1	64.315	0.016	138.882	2.7	-1.0	12.3875	5.129	955.0	0.3	Outcome1	2.7	-5.96	2582.5	Yes		8.66251415628539				ISITrial	Mixed
5.0	1	72.062	0.017	146.629	2.7	-1.0	12.3875	1.372	955.0	0.3	Outcome1	2.7	-5.96	2582.5	Yes		8.66251415628539			624.0	TrialHappiness	Mixed
5.0	1	76.078	4.016	150.645	2.7	-1.0	12.3875	2.33	955.0	0.3	Outcome1	2.7	-5.96	2582.5	Yes		8.66251415628539				ISIRate	Mixed
6.0	1	78.427	0.019	152.994	12.5	2.24	13.95	3.0	955.0	1.68	Outcome2	4.48	12.5	0.0	No	2.0	8.022650056625139	1.347	79.774		GetAnswer	Loss
6.0	1	79.793	0.019	154.36	12.5	2.24	13.95	4.0	955.0	1.68	Outcome2	4.48	12.5	0.0	No		8.022650056625139				ShowChoice	Loss
6.0	1	83.808	0.015	158.375	12.5	2.24	13.95	1.0	955.0	1.68	Outcome2	4.48	12.5	0.0	No		8.022650056625139				ShowResult	Loss
6.0	1	84.825	0.017	159.392	12.5	2.24	13.95	6.232	955.0	1.68	Outcome2	4.48	12.5	0.0	No		8.022650056625139				ISITrial	Loss
7.0	1	91.089	0.032	165.656	6.93	3.46	14.8162	3.0	955.0	1.68	Outcome1	6.93	8.5	0.0	No	2.0	-1.5744620611551499	1.019	92.108		GetAnswer	Gain
7.0	1	92.122	0.014	166.689	6.93	3.46	14.8162	4.0	955.0	1.68	Outcome1	6.93	8.5	0.0	No		-1.5744620611551499				ShowChoice	Gain
7.0	1	96.137	0.015	170.704	6.93	3.46	14.8162	1.0	955.0	1.68	Outcome1	6.93	8.5	0.0	No		-1.5744620611551499				ShowResult	Gain
7.0	1	97.154	0.017	171.721	6.93	3.46	14.8162	2.305	955.0	1.68	Outcome1	6.93	8.5	0.0	No		-1.5744620611551499				ISITrial	Gain
8.0	1	99.486	0.027	174.053	5.29	2.64	15.4774	3.0	955.0	2.0	Outcome2	6.9	5.29	3112.5	Yes	2.0	-1.60570026425066	1.053	100.539		GetAnswer	Gain
8.0	1	100.569	0.029	175.136	5.29	2.64	15.4774	4.0	955.0	2.0	Outcome2	6.9	5.29	3112.5	Yes		-1.60570026425066				ShowChoice	Gain
8.0	1	104.585	0.016	179.152	5.29	2.64	15.4774	1.0	955.0	2.0	Outcome2	6.9	5.29	3112.5	Yes		-1.60570026425066				ShowResult	Gain
8.0	1	105.601	0.016	180.168	5.29	2.64	15.4774	3.506	955.0	2.0	Outcome2	6.9	5.29	3112.5	Yes		-1.60570026425066				ISITrial	Gain
8.0	1	112.265	0.02	186.832	5.29	2.64	15.4774	1.555	955.0	2.0	Outcome2	6.9	5.29	3112.5	Yes		-1.60570026425066			648.0	TrialHappiness	Gain
8.0	1	116.281	4.016	190.848	5.29	2.64	15.4774	4.45	955.0	2.0	Outcome2	6.9	5.29	3112.5	Yes		-1.60570026425066				ISIRate	Gain
9.0	1	120.762	0.031	195.329	-6.0	-6.0	14.7274	3.0	955.0	0.2	Certain	-1.5	-10.24	0.0	No	4.0	8.739524348810871	1.988	122.75		GetAnswer	Mixed
9.0	1	122.778	0.028	197.345	-6.0	-6.0	14.7274	4.0	955.0	0.2	Certain	-1.5	-10.24	0.0	No		8.739524348810871				ShowChoice	Mixed
9.0	1	126.794	0.016	201.361	-6.0	-6.0	14.7274	1.0	955.0	0.2	Certain	-1.5	-10.24	0.0	No		8.739524348810871				ShowResult	Mixed
9.0	1	127.81	0.016	202.377	-6.0	-6.0	14.7274	2.0	955.0	0.2	Certain	-1.5	-10.24	0.0	No		8.739524348810871				ISITrial	Mixed
10.0	1	129.843	0.033	204.41	-1.0	-1.0	14.6024	3.0	955.0	0.82	Certain	-5.59	3.5	4000.0	Yes	4.0	9.087202718006788	0.994	130.837		GetAnswer	Mixed
10.0	1	130.859	0.022	205.426	-1.0	-1.0	14.6024	4.0	955.0	0.82	Certain	-5.59	3.5	4000.0	Yes		9.087202718006788				ShowChoice	Mixed
10.0	1	134.874	0.015	209.441	-1.0	-1.0	14.6024	1.0	955.0	0.82	Certain	-5.59	3.5	4000.0	Yes		9.087202718006788				ShowResult	Mixed
10.0	1	135.89	0.016	210.457	-1.0	-1.0	14.6024	2.0	955.0	0.82	Certain	-5.59	3.5	4000.0	Yes		9.087202718006788				ISITrial	Mixed
10.0	1	141.938	0.032	216.505	-1.0	-1.0	14.6024	3.948	955.0	0.82	Certain	-5.59	3.5	4000.0	Yes		9.087202718006788			536.0	TrialHappiness	Mixed
10.0	1	145.954	4.016	220.521	-1.0	-1.0	14.6024	8.0	955.0	0.82	Certain	-5.59	3.5	4000.0	Yes		9.087202718006788				ISIRate	Mixed
11.0	1	153.984	0.03	228.551	8.45	4.22	15.6587	3.0	955.0	1.68	Outcome1	8.45	10.5	0.0	No	2.0	-2.05200075500189	0.863	154.847		GetAnswer	Loss
11.0	1	154.867	0.02	229.434	8.45	4.22	15.6587	4.0	955.0	1.68	Outcome1	8.45	10.5	0.0	No		-2.05200075500189				ShowChoice	Loss
11.0	1	158.882	0.015	233.449	8.45	4.22	15.6587	1.0	955.0	1.68	Outcome1	8.45	10.5	0.0	No		-2.05200075500189				ShowResult	Loss
11.0	1	159.899	0.017	234.466	8.45	4.22	15.6587	3.324	955.0	1.68	Outcome1	8.45	10.5	0.0	No		-2.05200075500189				ISITrial	Loss
12.0	1	163.248	0.025	237.815	-1.19	0.0	15.5099	3.0	955.0	0.4	Outcome1	-1.19	0.9	2618.75	Yes	2.0	-2.09154397885995	1.51	164.758		GetAnswer	Mixed
12.0	1	164.78	0.022	239.347	-1.19	0.0	15.5099	4.0	955.0	0.4	Outcome1	-1.19	0.9	2618.75	Yes		-2.09154397885995				ShowChoice	Mixed
12.0	1	168.796	0.016	243.363	-1.19	0.0	15.5099	1.0	955.0	0.4	Outcome1	-1.19	0.9	2618.75	Yes		-2.09154397885995				ShowResult	Mixed
12.0	1	169.812	0.016	244.379	-1.19	0.0	15.5099	6.642	955.0	0.4	Outcome1	-1.19	0.9	2618.75	Yes		-2.09154397885995				ISITrial	Mixed
12.0	1	179.125	0.03	253.692	-1.19	0.0	15.5099	1.474	955.0	0.4	Outcome1	-1.19	0.9	2618.75	Yes		-2.09154397885995			560.0	TrialHappiness	Mixed
12.0	1	183.141	4.016	257.708	-1.19	0.0	15.5099	2.475	955.0	0.4	Outcome1	-1.19	0.9	2618.75	Yes		-2.09154397885995				ISIRate	Mixed
13.0	1	185.64	0.024	260.207	6.7	1.0	16.3474	3.0	955.0	1.82	Outcome2	-5.18	6.7	0.0	No	2.0	11.8788221970555	2.693	188.333		GetAnswer	Gain
13.0	1	188.356	0.023	262.923	6.7	1.0	16.3474	4.0	955.0	1.82	Outcome2	-5.18	6.7	0.0	No		11.8788221970555				ShowChoice	Gain
13.0	1	192.371	0.015	266.938	6.7	1.0	16.3474	1.0	955.0	1.82	Outcome2	-5.18	6.7	0.0	No		11.8788221970555				ShowResult	Gain
13.0	1	193.387	0.016	267.954	6.7	1.0	16.3474	3.48	955.0	1.82	Outcome2	-5.18	6.7	0.0	No		11.8788221970555				ISITrial	Gain
14.0	1	196.886	0.019	271.453	10.83	5.42	17.7012	3.0	955.0	2.0	Outcome2	12.9	10.83	0.0	No	2.0	-2.07097017742544	1.082	197.968		GetAnswer	Loss
14.0	1	197.986	0.018	272.553	10.83	5.42	17.7012	4.0	955.0	2.0	Outcome2	12.9	10.83	0.0	No		-2.07097017742544				ShowChoice	Loss
14.0	1	202.001	0.015	276.568	10.83	5.42	17.7012	1.0	955.0	2.0	Outcome2	12.9	10.83	0.0	No		-2.07097017742544				ShowResult	Loss
14.0	1	203.017	0.016	277.584	10.83	5.42	17.7012	5.019	955.0	2.0	Outcome2	12.9	10.83	0.0	No		-2.07097017742544				ISITrial	Loss
15.0	1	208.065	0.029	282.632	-0.61	0.0	17.625	3.0	955.0	0.82	Outcome1	-0.61	1.5	3348.5	Yes	2.0	-2.1082483956209903	2.674	210.739		GetAnswer	Mixed
15.0	1	210.765	0.026	285.332	-0.61	0.0	17.625	4.0	955.0	0.82	Outcome1	-0.61	1.5	3348.5	Yes		-2.1082483956209903				ShowChoice	Mixed
15.0	1	214.78	0.015	289.347	-0.61	0.0	17.625	1.0	955.0	0.82	Outcome1	-0.61	1.5	3348.5	Yes		-2.1082483956209903				ShowResult	Mixed
15.0	1	215.796	0.016	290.363	-0.61	0.0	17.625	7.614	955.0	0.82	Outcome1	-0.61	1.5	3348.5	Yes		-2.1082483956209903				ISITrial	Mixed
15.0	1	226.792	0.017	301.359	-0.61	0.0	17.625	1.954	955.0	0.82	Outcome1	-0.61	1.5	3348.5	Yes		-2.1082483956209903			604.0	TrialHappiness	Mixed
15.0	1	230.808	4.016	305.375	-0.61	0.0	17.625	5.394	955.0	0.82	Outcome1	-0.61	1.5	3348.5	Yes		-2.1082483956209903				ISIRate	Mixed
16.0	1	236.222	0.02	310.789	1.13	2.0	17.7663	3.0	955.0	0.52	Outcome1	1.13	3.1	0.0	No	2.0	-1.96696866742167	1.324	237.546		GetAnswer	Mixed
16.0	1	237.572	0.026	312.139	1.13	2.0	17.7663	4.0	955.0	0.52	Outcome1	1.13	3.1	0.0	No		-1.96696866742167				ShowChoice	Mixed
16.0	1	241.587	0.015	316.154	1.13	2.0	17.7663	1.0	955.0	0.52	Outcome1	1.13	3.1	0.0	No		-1.96696866742167				ShowResult	Mixed
16.0	1	242.604	0.017	317.171	1.13	2.0	17.7663	3.008	955.0	0.52	Outcome1	1.13	3.1	0.0	No		-1.96696866742167				ISITrial	Mixed
17.0	1	245.636	0.024	320.203	9.9	-1.48	19.0038	3.0	955.0	3.6	Outcome2	-2.97	9.9	3041.5	Yes	2.0	12.8708946772367	1.769	247.405		GetAnswer	Gain
17.0	1	247.419	0.014	321.986	9.9	-1.48	19.0038	4.0	955.0	3.6	Outcome2	-2.97	9.9	3041.5	Yes		12.8708946772367				ShowChoice	Gain
17.0	1	251.434	0.015	326.001	9.9	-1.48	19.0038	1.0	955.0	3.6	Outcome2	-2.97	9.9	3041.5	Yes		12.8708946772367				ShowResult	Gain
17.0	1	252.45	0.016	327.017	9.9	-1.48	19.0038	3.566	955.0	3.6	Outcome2	-2.97	9.9	3041.5	Yes		12.8708946772367				ISITrial	Gain
17.0	1	259.098	0.024	333.665	9.9	-1.48	19.0038	1.489	955.0	3.6	Outcome2	-2.97	9.9	3041.5	Yes		12.8708946772367			628.0	TrialHappiness	Gain
17.0	1	263.113	4.015	337.68	9.9	-1.48	19.0038	4.166	955.0	3.6	Outcome2	-2.97	9.9	3041.5	Yes		12.8708946772367				ISIRate	Gain
18.0	1	267.295	0.016	341.862	2.9	-3.0	19.3663	3.0	955.0	0.4	Outcome1	2.9	-9.96	0.0	No	2.0	12.8607021517554	2.229	269.524		GetAnswer	Mixed
18.0	1	269.544	0.02	344.111	2.9	-3.0	19.3663	4.0	955.0	0.4	Outcome1	2.9	-9.96	0.0	No		12.8607021517554				ShowChoice	Mixed
18.0	1	273.559	0.015	348.126	2.9	-3.0	19.3663	1.0	955.0	0.4	Outcome1	2.9	-9.96	0.0	No		12.8607021517554				ShowResult	Mixed
18.0	1	274.576	0.017	349.143	2.9	-3.0	19.3663	6.787	955.0	0.4	Outcome1	2.9	-9.96	0.0	No		12.8607021517554				ISITrial	Mixed
19.0	1	281.39	0.027	355.957	1.0	1.0	19.4913	3.0	955.0	2.8	Certain	-5.73	7.5	0.0	No	4.0	13.231030577576401	1.497	282.887		GetAnswer	Gain
19.0	1	282.906	0.019	357.473	1.0	1.0	19.4913	4.0	955.0	2.8	Certain	-5.73	7.5	0.0	No		13.231030577576401				ShowChoice	Gain
19.0	1	286.922	0.016	361.489	1.0	1.0	19.4913	1.0	955.0	2.8	Certain	-5.73	7.5	0.0	No		13.231030577576401				ShowResult	Gain
19.0	1	287.938	0.016	362.505	1.0	1.0	19.4913	2.0	955.0	2.8	Certain	-5.73	7.5	0.0	No		13.231030577576401				ISITrial	Gain
20.0	1	289.954	0.016	364.521	11.3	5.65	20.9038	3.0	955.0	2.48	Outcome2	13.3	11.3	2921.25	Yes	2.0	-1.99754624386561	1.146	291.1		GetAnswer	Loss
20.0	1	291.12	0.02	365.687	11.3	5.65	20.9038	4.0	955.0	2.48	Outcome2	13.3	11.3	2921.25	Yes		-1.99754624386561				ShowChoice	Loss
20.0	1	295.135	0.015	369.702	11.3	5.65	20.9038	1.0	955.0	2.48	Outcome2	13.3	11.3	2921.25	Yes		-1.99754624386561				ShowResult	Loss
20.0	1	296.152	0.017	370.719	11.3	5.65	20.9038	8.0	955.0	2.48	Outcome2	13.3	11.3	2921.25	Yes		-1.99754624386561				ISITrial	Loss
20.0	1	307.115	0.028	381.682	11.3	5.65	20.9038	1.384	955.0	2.48	Outcome2	13.3	11.3	2921.25	Yes		-1.99754624386561			580.0	TrialHappiness	Loss
20.0	1	311.13	4.015	385.697	11.3	5.65	20.9038	3.685	955.0	2.48	Outcome2	13.3	11.3	2921.25	Yes		-1.99754624386561				ISIRate	Loss
21.0	1	314.845	0.03	389.412	-3.0	-3.0	20.5288	3.0	955.0	2.0	Certain	4.3	-10.49	0.0	No	4.0	14.787089467723698	1.44	316.285		GetAnswer	Mixed
21.0	1	316.311	0.026	390.878	-3.0	-3.0	20.5288	4.0	955.0	2.0	Certain	4.3	-10.49	0.0	No		14.787089467723698				ShowChoice	Mixed
21.0	1	320.327	0.016	394.894	-3.0	-3.0	20.5288	1.0	955.0	2.0	Certain	4.3	-10.49	0.0	No		14.787089467723698				ShowResult	Mixed
21.0	1	321.343	0.016	395.91	-3.0	-3.0	20.5288	3.555	955.0	2.0	Certain	4.3	-10.49	0.0	No		14.787089467723698				ISITrial	Mixed
22.0	1	324.925	0.027	399.492	-1.0	-1.0	20.4038	3.0	955.0	1.5	Certain	-2.16	0.1	3219.5	Yes	4.0	-2.25858814647037	2.029	326.954		GetAnswer	Mixed
22.0	1	326.974	0.02	401.541	-1.0	-1.0	20.4038	4.0	955.0	1.5	Certain	-2.16	0.1	3219.5	Yes		-2.25858814647037				ShowChoice	Mixed
22.0	1	330.99	0.016	405.557	-1.0	-1.0	20.4038	1.0	955.0	1.5	Certain	-2.16	0.1	3219.5	Yes		-2.25858814647037				ShowResult	Mixed
22.0	1	332.006	0.016	406.573	-1.0	-1.0	20.4038	6.793	955.0	1.5	Certain	-2.16	0.1	3219.5	Yes		-2.25858814647037				ISITrial	Mixed
22.0	1	342.069	0.029	416.636	-1.0	-1.0	20.4038	0.823	955.0	1.5	Certain	-2.16	0.1	3219.5	Yes		-2.25858814647037			560.0	TrialHappiness	Mixed
22.0	1	346.084	4.015	420.651	-1.0	-1.0	20.4038	4.878	955.0	1.5	Certain	-2.16	0.1	3219.5	Yes		-2.25858814647037				ISIRate	Mixed
23.0	1	350.983	0.021	425.55	0.0	0.0	20.4038	3.0	955.0	1.2	Certain	-0.48	1.9	0.0	No	4.0	-2.37514156285391	1.854	352.837		GetAnswer	Mixed
23.0	1	352.849	0.012	427.416	0.0	0.0	20.4038	4.0	955.0	1.2	Certain	-0.48	1.9	0.0	No		-2.37514156285391				ShowChoice	Mixed
23.0	1	356.864	0.015	431.431	0.0	0.0	20.4038	1.0	955.0	1.2	Certain	-0.48	1.9	0.0	No		-2.37514156285391				ShowResult	Mixed
23.0	1	357.88	0.016	432.447	0.0	0.0	20.4038	8.0	955.0	1.2	Certain	-0.48	1.9	0.0	No		-2.37514156285391				ISITrial	Mixed
24.0	1	365.911	0.031	440.478	2.09	1.04	20.6651	3.0	955.0	1.68	Outcome2	4.5	2.09	3255.0	Yes	2.0	-2.4124197810494503	1.198	367.109		GetAnswer	Gain
24.0	1	367.127	0.018	441.694	2.09	1.04	20.6651	4.0	955.0	1.68	Outcome2	4.5	2.09	3255.0	Yes		-2.4124197810494503				ShowChoice	Gain
24.0	1	371.142	0.015	445.709	2.09	1.04	20.6651	1.0	955.0	1.68	Outcome2	4.5	2.09	3255.0	Yes		-2.4124197810494503				ShowResult	Gain
24.0	1	372.159	0.017	446.726	2.09	1.04	20.6651	2.0	955.0	1.68	Outcome2	4.5	2.09	3255.0	Yes		-2.4124197810494503				ISITrial	Gain
24.0	1	377.457	0.027	452.024	2.09	1.04	20.6651	3.621	955.0	1.68	Outcome2	4.5	2.09	3255.0	Yes		-2.4124197810494503			640.0	TrialHappiness	Gain
24.0	1	381.472	4.015	456.039	2.09	1.04	20.6651	5.02	955.0	1.68	Outcome2	4.5	2.09	3255.0	Yes		-2.4124197810494503				ISIRate	Gain
25.0	1	386.52	0.028	461.087	10.3	2.0	21.9526	3.0	955.0	5.0	Outcome2	-5.21	10.3	0.0	No	2.0	15.511891279728198	2.794	389.314		GetAnswer	Gain
25.0	1	389.336	0.022	463.903	10.3	2.0	21.9526	4.0	955.0	5.0	Outcome2	-5.21	10.3	0.0	No		15.511891279728198				ShowChoice	Gain
25.0	1	393.351	0.015	467.918	10.3	2.0	21.9526	1.0	955.0	5.0	Outcome2	-5.21	10.3	0.0	No		15.511891279728198				ShowResult	Gain
25.0	1	394.368	0.017	468.935	10.3	2.0	21.9526	3.749	955.0	5.0	Outcome2	-5.21	10.3	0.0	No		15.511891279728198				ISITrial	Gain
26.0	1	398.15	0.033	472.717	-2.0	-2.0	21.7026	3.0	955.0	0.3	Certain	-1.3	-3.45	0.0	No	4.0	-2.15477538693847	1.468	399.618		GetAnswer	Mixed
26.0	1	399.633	0.015	474.2	-2.0	-2.0	21.7026	4.0	955.0	0.3	Certain	-1.3	-3.45	0.0	No		-2.15477538693847				ShowChoice	Mixed
26.0	1	403.648	0.015	478.215	-2.0	-2.0	21.7026	1.0	955.0	0.3	Certain	-1.3	-3.45	0.0	No		-2.15477538693847				ShowResult	Mixed
26.0	1	404.664	0.016	479.231	-2.0	-2.0	21.7026	7.834	955.0	0.3	Certain	-1.3	-3.45	0.0	No		-2.15477538693847				ISITrial	Mixed
27.0	1	412.528	0.03	487.095	5.72	2.86	22.4176	3.0	955.0	3.6	Outcome2	7.9	5.72	2549.75	Yes	2.0	-2.18450358625897	0.964	413.492		GetAnswer	Gain
27.0	1	413.511	0.019	488.078	5.72	2.86	22.4176	4.0	955.0	3.6	Outcome2	7.9	5.72	2549.75	Yes		-2.18450358625897				ShowChoice	Gain
27.0	1	417.526	0.015	492.093	5.72	2.86	22.4176	1.0	955.0	3.6	Outcome2	7.9	5.72	2549.75	Yes		-2.18450358625897				ShowResult	Gain
27.0	1	418.543	0.017	493.11	5.72	2.86	22.4176	4.225	955.0	3.6	Outcome2	7.9	5.72	2549.75	Yes		-2.18450358625897				ISITrial	Gain
27.0	1	425.357	0.016	499.924	5.72	2.86	22.4176	2.378	955.0	3.6	Outcome2	7.9	5.72	2549.75	Yes		-2.18450358625897			612.0	TrialHappiness	Gain
27.0	1	429.372	4.015	503.939	5.72	2.86	22.4176	2.199	955.0	3.6	Outcome2	7.9	5.72	2549.75	Yes		-2.18450358625897				ISIRate	Gain
	1	431.588	0.017	506.155				-0.001								{SPACE}		33.892	465.48		Rest	
	1	465.493	0.013	540.06				4.0													BlockHappyPreview	
	1	469.508	0.015	544.075				3.673								2{-2}2{-2}2{-2}4{-4}		3.673	473.181	516.0	BlockStartHappiness	
	1	477.739	0.019	552.306				-0.001								5.0		0.955	478.694		ScanWait	
	2	0.011	0.011	553.272				10.0													GetReady	
28.0	2	10.024	0.013	563.285	-8.28	-4.0	21.3826	3.0	70.0	0.66	Outcome1	-8.28	-0.7	0.0	No		-7.585034013605441				GetAnswer	Mixed
28.0	2	13.04	0.016	566.301	-8.28	-4.0	21.3826	4.0	70.0	0.66	Outcome1	-8.28	-0.7	0.0	No		-7.585034013605441				ShowChoice	Mixed
28.0	2	17.055	0.015	570.316	-8.28	-4.0	21.3826	1.0	70.0	0.66	Outcome1	-8.28	-0.7	0.0	No		-7.585034013605441				ShowResult	Mixed
28.0	2	18.072	0.017	571.333	-8.28	-4.0	21.3826	3.575	70.0	0.66	Outcome1	-8.28	-0.7	0.0	No		-7.585034013605441				ISITrial	Mixed
29.0	2	21.67	0.023	574.931	-7.79	-3.0	20.4088	3.0	70.0	2.0	Outcome2	0.3	-7.79	3529.0	Yes	2.0	-8.09070294784581	1.038	22.708		GetAnswer	Mixed
29.0	2	22.72	0.012	575.981	-7.79	-3.0	20.4088	4.0	70.0	2.0	Outcome2	0.3	-7.79	3529.0	Yes		-8.09070294784581				ShowChoice	Mixed
29.0	2	26.735	0.015	579.996	-7.79	-3.0	20.4088	1.0	70.0	2.0	Outcome2	0.3	-7.79	3529.0	Yes		-8.09070294784581				ShowResult	Mixed
29.0	2	27.752	0.017	581.013	-7.79	-3.0	20.4088	3.955	70.0	2.0	Outcome2	0.3	-7.79	3529.0	Yes		-8.09070294784581				ISITrial	Mixed
29.0	2	35.282	0.019	588.543	-7.79	-3.0	20.4088	0.0	70.0	2.0	Outcome2	0.3	-7.79	3529.0	Yes		-8.09070294784581			512.0	TrialHappiness	Mixed
29.0	2	39.298	4.016	592.559	-7.79	-3.0	20.4088	6.116	70.0	2.0	Outcome2	0.3	-7.79	3529.0	Yes		-8.09070294784581				ISIRate	Mixed
30.0	2	45.446	0.032	598.707	4.97	2.48	21.0301	3.0	70.0	2.8	Outcome1	4.97	13.5	0.0	No	2.0	-8.52834467120181	0.92	46.366		GetAnswer	Loss
30.0	2	46.379	0.013	599.64	4.97	2.48	21.0301	4.0	70.0	2.8	Outcome1	4.97	13.5	0.0	No		-8.52834467120181				ShowChoice	Loss
30.0	2	50.394	0.015	603.655	4.97	2.48	21.0301	1.0	70.0	2.8	Outcome1	4.97	13.5	0.0	No		-8.52834467120181				ShowResult	Loss
30.0	2	51.41	0.016	604.671	4.97	2.48	21.0301	4.453	70.0	2.8	Outcome1	4.97	13.5	0.0	No		-8.52834467120181				ISITrial	Loss
31.0	2	55.892	0.029	609.153	2.82	2.0	21.3826	3.0	70.0	2.48	Outcome1	2.82	0.9	2503.25	Yes	2.0	1.9217687074829901	0.9	56.792		GetAnswer	Loss
31.0	2	56.808	0.016	610.069	2.82	2.0	21.3826	4.0	70.0	2.48	Outcome1	2.82	0.9	2503.25	Yes		1.9217687074829901				ShowChoice	Loss
31.0	2	60.824	0.016	614.085	2.82	2.0	21.3826	1.0	70.0	2.48	Outcome1	2.82	0.9	2503.25	Yes		1.9217687074829901				ShowResult	Loss
31.0	2	61.84	0.016	615.101	2.82	2.0	21.3826	4.786	70.0	2.48	Outcome1	2.82	0.9	2503.25	Yes		1.9217687074829901				ISITrial	Loss
31.0	2	69.171	0.03	622.432	2.82	2.0	21.3826	1.456	70.0	2.48	Outcome1	2.82	0.9	2503.25	Yes	2{-2}2{-2}2{-2}	1.9217687074829901	1.456	70.627	544.0	TrialHappiness	Loss
31.0	2	73.186	4.015	626.447	2.82	2.0	21.3826	2.013	70.0	2.48	Outcome1	2.82	0.9	2503.25	Yes		1.9217687074829901				ISIRate	Loss
32.0	2	75.219	0.02	628.48	-1.17	-0.58	21.2363	3.0	70.0	2.0	Outcome1	-1.17	8.9	0.0	No	2.0	-10.0748299319728	2.591	77.81		GetAnswer	Gain
32.0	2	77.834	0.024	631.095	-1.17	-0.58	21.2363	4.0	70.0	2.0	Outcome1	-1.17	8.9	0.0	No		-10.0748299319728				ShowChoice	Gain
32.0	2	81.85	0.016	635.111	-1.17	-0.58	21.2363	1.0	70.0	2.0	Outcome1	-1.17	8.9	0.0	No		-10.0748299319728				ShowResult	Gain
32.0	2	82.866	0.016	636.127	-1.17	-0.58	21.2363	2.0	70.0	2.0	Outcome1	-1.17	8.9	0.0	No		-10.0748299319728				ISITrial	Gain
33.0	2	84.882	0.016	638.143	-6.51	-1.0	20.4225	3.0	70.0	1.5	Outcome2	4.1	-6.51	0.0	No	2.0	-10.612244897959199	1.504	86.386		GetAnswer	Mixed
33.0	2	86.398	0.012	639.659	-6.51	-1.0	20.4225	4.0	70.0	1.5	Outcome2	4.1	-6.51	0.0	No		-10.612244897959199				ShowChoice	Mixed
33.0	2	90.413	0.015	643.674	-6.51	-1.0	20.4225	1.0	70.0	1.5	Outcome2	4.1	-6.51	0.0	No		-10.612244897959199				ShowResult	Mixed
33.0	2	91.43	0.017	644.691	-6.51	-1.0	20.4225	5.099	70.0	1.5	Outcome2	4.1	-6.51	0.0	No		-10.612244897959199				ISITrial	Mixed
34.0	2	96.545	0.016	649.806	1.48	0.0	20.6075	3.0	70.0	3.6	Outcome1	1.48	-0.7	3231.5	Yes	2.0	2.1831065759637203	1.608	98.153		GetAnswer	Gain
34.0	2	98.177	0.023	651.438	1.48	0.0	20.6075	4.0	70.0	3.6	Outcome1	1.48	-0.7	3231.5	Yes		2.1831065759637203				ShowChoice	Gain
34.0	2	102.193	0.016	655.454	1.48	0.0	20.6075	1.0	70.0	3.6	Outcome1	1.48	-0.7	3231.5	Yes		2.1831065759637203				ShowResult	Gain
34.0	2	103.209	0.016	656.47	1.48	0.0	20.6075	4.784	70.0	3.6	Outcome1	1.48	-0.7	3231.5	Yes		2.1831065759637203				ISITrial	Gain
34.0	2	111.256	0.017	664.517	1.48	0.0	20.6075	0.607	70.0	3.6	Outcome1	1.48	-0.7	3231.5	Yes		2.1831065759637203			536.0	TrialHappiness	Gain
34.0	2	115.271	4.015	668.532	1.48	0.0	20.6075	4.926	70.0	3.6	Outcome1	1.48	-0.7	3231.5	Yes		2.1831065759637203				ISIRate	Gain
35.0	2	120.22	0.023	673.481	-4.25	1.0	20.0763	3.0	70.0	2.48	Outcome2	7.3	-4.25	0.0	No	2.0	-11.551020408163302	1.869	122.089		GetAnswer	Gain
35.0	2	122.102	0.013	675.363	-4.25	1.0	20.0763	4.0	70.0	2.48	Outcome2	7.3	-4.25	0.0	No		-11.551020408163302				ShowChoice	Gain
35.0	2	126.118	0.016	679.379	-4.25	1.0	20.0763	1.0	70.0	2.48	Outcome2	7.3	-4.25	0.0	No		-11.551020408163302				ShowResult	Gain
35.0	2	127.134	0.016	680.395	-4.25	1.0	20.0763	2.098	70.0	2.48	Outcome2	7.3	-4.25	0.0	No		-11.551020408163302				ISITrial	Gain
36.0	2	129.25	0.018	682.511	-3.98	2.0	19.5788	3.0	70.0	4.2	Outcome1	-3.98	8.1	3335.75	Yes	2.0	-12.079365079365099	2.309	131.559		GetAnswer	Gain
36.0	2	131.582	0.023	684.843	-3.98	2.0	19.5788	4.0	70.0	4.2	Outcome1	-3.98	8.1	3335.75	Yes		-12.079365079365099				ShowChoice	Gain
36.0	2	135.598	0.016	688.859	-3.98	2.0	19.5788	1.0	70.0	4.2	Outcome1	-3.98	8.1	3335.75	Yes		-12.079365079365099				ShowResult	Gain
36.0	2	136.614	0.016	689.875	-3.98	2.0	19.5788	5.156	70.0	4.2	Outcome1	-3.98	8.1	3335.75	Yes		-12.079365079365099				ISITrial	Gain
36.0	2	145.161	0.029	698.422	-3.98	2.0	19.5788	0.0	70.0	4.2	Outcome1	-3.98	8.1	3335.75	Yes		-12.079365079365099			512.0	TrialHappiness	Gain
36.0	2	149.176	4.015	702.437	-3.98	2.0	19.5788	5.343	70.0	4.2	Outcome1	-3.98	8.1	3335.75	Yes		-12.079365079365099				ISIRate	Gain
37.0	2	154.541	0.022	707.802	2.52	1.0	19.8938	3.0	70.0	4.2	Outcome1	2.52	0.33	0.0	No	2.0	2.1859410430839	0.911	155.452		GetAnswer	Gain
37.0	2	155.474	0.021	708.735	2.52	1.0	19.8938	4.0	70.0	4.2	Outcome1	2.52	0.33	0.0	No		2.1859410430839				ShowChoice	Gain
37.0	2	159.489	0.015	712.75	2.52	1.0	19.8938	1.0	70.0	4.2	Outcome1	2.52	0.33	0.0	No		2.1859410430839				ShowResult	Gain
37.0	2	160.506	0.017	713.767	2.52	1.0	19.8938	3.598	70.0	4.2	Outcome1	2.52	0.33	0.0	No		2.1859410430839				ISITrial	Gain
38.0	2	164.121	0.017	717.382	2.42	1.0	20.1963	3.0	70.0	3.16	Outcome1	2.42	0.19	0.0	No	2.0	2.2277021919879103	0.68	164.801		GetAnswer	Gain
38.0	2	164.821	0.02	718.082	2.42	1.0	20.1963	4.0	70.0	3.16	Outcome1	2.42	0.19	0.0	No		2.2277021919879103				ShowChoice	Gain
38.0	2	168.836	0.015	722.097	2.42	1.0	20.1963	1.0	70.0	3.16	Outcome1	2.42	0.19	0.0	No		2.2277021919879103				ShowResult	Gain
38.0	2	169.852	0.016	723.113	2.42	1.0	20.1963	4.787	70.0	3.16	Outcome1	2.42	0.19	0.0	No		2.2277021919879103				ISITrial	Gain
39.0	2	174.668	0.029	727.929	2.98	2.0	20.5688	3.0	70.0	3.6	Outcome2	0.71	2.98	2864.25	Yes	2.0	2.2694633408919103	1.015	175.683		GetAnswer	Loss
39.0	2	175.7	0.017	728.961	2.98	2.0	20.5688	4.0	70.0	3.6	Outcome2	0.71	2.98	2864.25	Yes		2.2694633408919103				ShowChoice	Loss
39.0	2	179.716	0.016	732.977	2.98	2.0	20.5688	1.0	70.0	3.6	Outcome2	0.71	2.98	2864.25	Yes		2.2694633408919103				ShowResult	Loss
39.0	2	180.732	0.016	733.993	2.98	2.0	20.5688	2.348	70.0	3.6	Outcome2	0.71	2.98	2864.25	Yes		2.2694633408919103				ISITrial	Loss
39.0	2	185.98	0.018	739.241	2.98	2.0	20.5688	1.091	70.0	3.6	Outcome2	0.71	2.98	2864.25	Yes		2.2694633408919103			540.0	TrialHappiness	Loss
39.0	2	189.996	4.016	743.257	2.98	2.0	20.5688	3.457	70.0	3.6	Outcome2	0.71	2.98	2864.25	Yes		2.2694633408919103				ISIRate	Loss
40.0	2	193.478	0.025	746.739	-8.0	-8.0	19.5688	3.0	70.0	0.52	Certain	-15.08	-0.9	0.0	No	4.0	-14.179138321995499	1.242	194.72		GetAnswer	Mixed
40.0	2	194.744	0.024	748.005	-8.0	-8.0	19.5688	4.0	70.0	0.52	Certain	-15.08	-0.9	0.0	No		-14.179138321995499				ShowChoice	Mixed
40.0	2	198.759	0.015	752.02	-8.0	-8.0	19.5688	1.0	70.0	0.52	Certain	-15.08	-0.9	0.0	No		-14.179138321995499				ShowResult	Mixed
40.0	2	199.775	0.016	753.036	-8.0	-8.0	19.5688	3.158	70.0	0.52	Certain	-15.08	-0.9	0.0	No		-14.179138321995499				ISITrial	Mixed
41.0	2	202.958	0.025	756.219	0.0	0.0	19.5688	3.0	70.0	2.0	Certain	0.57	-1.9	4000.0	Yes	4.0	2.4693877551020402	1.832	204.79		GetAnswer	Mixed
41.0	2	204.807	0.017	758.068	0.0	0.0	19.5688	4.0	70.0	2.0	Certain	0.57	-1.9	4000.0	Yes		2.4693877551020402				ShowChoice	Mixed
41.0	2	208.822	0.015	762.083	0.0	0.0	19.5688	1.0	70.0	2.0	Certain	0.57	-1.9	4000.0	Yes		2.4693877551020402				ShowResult	Mixed
41.0	2	209.839	0.017	763.1	0.0	0.0	19.5688	4.506	70.0	2.0	Certain	0.57	-1.9	4000.0	Yes		2.4693877551020402				ISITrial	Mixed
41.0	2	218.386	0.016	771.647	0.0	0.0	19.5688	0.0	70.0	2.0	Certain	0.57	-1.9	4000.0	Yes		2.4693877551020402			512.0	TrialHappiness	Mixed
41.0	2	222.401	4.015	775.662	0.0	0.0	19.5688	8.0	70.0	2.0	Certain	0.57	-1.9	4000.0	Yes		2.4693877551020402				ISIRate	Mixed
42.0	2	230.432	0.031	783.693	-2.0	-2.0	19.3188	3.0	70.0	2.22	Certain	-9.67	5.1	0.0	No	4.0	-14.7687074829932	2.195	232.627		GetAnswer	Gain
42.0	2	232.647	0.02	785.908	-2.0	-2.0	19.3188	4.0	70.0	2.22	Certain	-9.67	5.1	0.0	No		-14.7687074829932				ShowChoice	Gain
42.0	2	236.663	0.016	789.924	-2.0	-2.0	19.3188	1.0	70.0	2.22	Certain	-9.67	5.1	0.0	No		-14.7687074829932				ShowResult	Gain
42.0	2	237.679	0.016	790.94	-2.0	-2.0	19.3188	6.248	70.0	2.22	Certain	-9.67	5.1	0.0	No		-14.7687074829932				ISITrial	Gain
43.0	2	243.944	0.017	797.205	-7.0	-7.0	18.4438	3.0	70.0	0.2	Certain	-14.77	0.5	2775.75	Yes	4.0	-15.2698412698413	1.658	245.602		GetAnswer	Mixed
43.0	2	245.626	0.024	798.887	-7.0	-7.0	18.4438	4.0	70.0	0.2	Certain	-14.77	0.5	2775.75	Yes		-15.2698412698413				ShowChoice	Mixed
43.0	2	249.642	0.016	802.903	-7.0	-7.0	18.4438	1.0	70.0	0.2	Certain	-14.77	0.5	2775.75	Yes		-15.2698412698413				ShowResult	Mixed
43.0	2	250.658	0.016	803.919	-7.0	-7.0	18.4438	4.596	70.0	0.2	Certain	-14.77	0.5	2775.75	Yes		-15.2698412698413				ISITrial	Mixed
43.0	2	258.072	0.023	811.333	-7.0	-7.0	18.4438	0.0	70.0	0.2	Certain	-14.77	0.5	2775.75	Yes		-15.2698412698413			512.0	TrialHappiness	Mixed
43.0	2	262.087	4.015	815.348	-7.0	-7.0	18.4438	3.103	70.0	0.2	Certain	-14.77	0.5	2775.75	Yes		-15.2698412698413				ISIRate	Mixed
44.0	2	265.22	0.03	818.481	-9.0	-9.0	17.3188	3.0	70.0	0.4	Certain	-1.1	-16.87	0.0	No	4.0	-15.7709750566893	1.654	266.874		GetAnswer	Mixed
44.0	2	266.886	0.012	820.147	-9.0	-9.0	17.3188	4.0	70.0	0.4	Certain	-1.1	-16.87	0.0	No		-15.7709750566893				ShowChoice	Mixed
44.0	2	270.901	0.015	824.162	-9.0	-9.0	17.3188	1.0	70.0	0.4	Certain	-1.1	-16.87	0.0	No		-15.7709750566893				ShowResult	Mixed
44.0	2	271.917	0.016	825.178	-9.0	-9.0	17.3188	2.42	70.0	0.4	Certain	-1.1	-16.87	0.0	No		-15.7709750566893				ISITrial	Mixed
45.0	2	274.366	0.029	827.627	0.0	0.0	17.3188	3.0	70.0	5.0	Certain	-0.95	1.58	0.0	No	4.0	2.52532123960695	1.695	276.061		GetAnswer	Gain
45.0	2	276.082	0.021	829.343	0.0	0.0	17.3188	4.0	70.0	5.0	Certain	-0.95	1.58	0.0	No		2.52532123960695				ShowChoice	Gain
45.0	2	280.098	0.016	833.359	0.0	0.0	17.3188	1.0	70.0	5.0	Certain	-0.95	1.58	0.0	No		2.52532123960695				ShowResult	Gain
45.0	2	281.114	0.016	834.375	0.0	0.0	17.3188	3.144	70.0	5.0	Certain	-0.95	1.58	0.0	No		2.52532123960695				ISITrial	Gain
46.0	2	284.28	0.022	837.541	-4.07	-2.04	16.81	3.0	70.0	1.82	Outcome1	-4.07	12.7	3841.25	Yes	2.0	-16.7732426303855	2.033	286.313		GetAnswer	Loss
46.0	2	286.329	0.016	839.59	-4.07	-2.04	16.81	4.0	70.0	1.82	Outcome1	-4.07	12.7	3841.25	Yes		-16.7732426303855				ShowChoice	Loss
46.0	2	290.344	0.015	843.605	-4.07	-2.04	16.81	1.0	70.0	1.82	Outcome1	-4.07	12.7	3841.25	Yes		-16.7732426303855				ShowResult	Loss
46.0	2	291.36	0.016	844.621	-4.07	-2.04	16.81	2.246	70.0	1.82	Outcome1	-4.07	12.7	3841.25	Yes		-16.7732426303855				ISITrial	Loss
46.0	2	297.492	0.025	850.753	-4.07	-2.04	16.81	2.506	70.0	1.82	Outcome1	-4.07	12.7	3841.25	Yes		-16.7732426303855			452.0	TrialHappiness	Loss
46.0	2	301.507	4.015	854.768	-4.07	-2.04	16.81	7.365	70.0	1.82	Outcome1	-4.07	12.7	3841.25	Yes		-16.7732426303855				ISIRate	Loss
47.0	2	308.888	0.016	862.149	3.02	2.0	17.1875	3.0	70.0	4.2	Outcome1	3.02	0.65	0.0	No	2.0	2.3650793650793602	0.987	309.875		GetAnswer	Loss
47.0	2	309.887	0.012	863.148	3.02	2.0	17.1875	4.0	70.0	4.2	Outcome1	3.02	0.65	0.0	No		2.3650793650793602				ShowChoice	Loss
47.0	2	313.903	0.016	867.164	3.02	2.0	17.1875	1.0	70.0	4.2	Outcome1	3.02	0.65	0.0	No		2.3650793650793602				ShowResult	Loss
47.0	2	314.919	0.016	868.18	3.02	2.0	17.1875	2.0	70.0	4.2	Outcome1	3.02	0.65	0.0	No		2.3650793650793602				ISITrial	Loss
48.0	2	316.935	0.016	870.196	0.32	-1.0	17.2275	3.0	70.0	0.66	Outcome2	-2.08	0.32	2831.75	Yes	2.0	2.4011715797430098	1.457	318.392		GetAnswer	Mixed
48.0	2	318.418	0.026	871.679	0.32	-1.0	17.2275	4.0	70.0	0.66	Outcome2	-2.08	0.32	2831.75	Yes		2.4011715797430098				ShowChoice	Mixed
48.0	2	322.433	0.015	875.694	0.32	-1.0	17.2275	1.0	70.0	0.66	Outcome2	-2.08	0.32	2831.75	Yes		2.4011715797430098				ShowResult	Mixed
48.0	2	323.449	0.016	876.71	0.32	-1.0	17.2275	3.692	70.0	0.66	Outcome2	-2.08	0.32	2831.75	Yes		2.4011715797430098				ISITrial	Mixed
48.0	2	330.014	0.017	883.275	0.32	-1.0	17.2275	0.0	70.0	0.66	Outcome2	-2.08	0.32	2831.75	Yes		2.4011715797430098			512.0	TrialHappiness	Mixed
48.0	2	334.029	4.015	887.29	0.32	-1.0	17.2275	3.327	70.0	0.66	Outcome2	-2.08	0.32	2831.75	Yes		2.4011715797430098				ISIRate	Mixed
49.0	2	337.378	0.022	890.639	-4.24	-2.12	16.6975	3.0	70.0	3.6	Outcome1	-4.24	13.9	0.0	No	2.0	-18.140589569161	1.142	338.52		GetAnswer	Loss
49.0	2	338.544	0.024	891.805	-4.24	-2.12	16.6975	4.0	70.0	3.6	Outcome1	-4.24	13.9	0.0	No		-18.140589569161				ShowChoice	Loss
49.0	2	342.559	0.015	895.82	-4.24	-2.12	16.6975	1.0	70.0	3.6	Outcome1	-4.24	13.9	0.0	No		-18.140589569161				ShowResult	Loss
49.0	2	343.576	0.017	896.837	-4.24	-2.12	16.6975	8.0	70.0	3.6	Outcome1	-4.24	13.9	0.0	No		-18.140589569161				ISITrial	Loss
50.0	2	351.606	0.03	904.867	1.23	0.0	16.8513	3.0	70.0	2.0	Outcome1	1.23	-1.49	3547.25	Yes	2.0	2.72278911564626	1.558	353.164		GetAnswer	Gain
50.0	2	353.189	0.025	906.45	1.23	0.0	16.8513	4.0	70.0	2.0	Outcome1	1.23	-1.49	3547.25	Yes		2.72278911564626				ShowChoice	Gain
50.0	2	357.204	0.015	910.465	1.23	0.0	16.8513	1.0	70.0	2.0	Outcome1	1.23	-1.49	3547.25	Yes		2.72278911564626				ShowResult	Gain
50.0	2	358.221	0.017	911.482	1.23	0.0	16.8513	7.537	70.0	2.0	Outcome1	1.23	-1.49	3547.25	Yes		2.72278911564626				ISITrial	Gain
50.0	2	369.35	0.018	922.611	1.23	0.0	16.8513	0.0	70.0	2.0	Outcome1	1.23	-1.49	3547.25	Yes		2.72278911564626			512.0	TrialHappiness	Gain
50.0	2	373.365	4.015	926.626	1.23	0.0	16.8513	6.189	70.0	2.0	Outcome1	1.23	-1.49	3547.25	Yes		2.72278911564626				ISIRate	Gain
51.0	2	379.58	0.026	932.841	-8.44	1.0	15.7963	3.0	70.0	1.82	Outcome1	-8.44	10.7	0.0	No	2.0	-19.1428571428571	1.362	380.942		GetAnswer	Loss
51.0	2	380.963	0.021	934.224	-8.44	1.0	15.7963	4.0	70.0	1.82	Outcome1	-8.44	10.7	0.0	No		-19.1428571428571				ShowChoice	Loss
51.0	2	384.978	0.015	938.239	-8.44	1.0	15.7963	1.0	70.0	1.82	Outcome1	-8.44	10.7	0.0	No		-19.1428571428571				ShowResult	Loss
51.0	2	385.994	0.016	939.255	-8.44	1.0	15.7963	5.508	70.0	1.82	Outcome1	-8.44	10.7	0.0	No		-19.1428571428571				ISITrial	Loss
52.0	2	391.526	0.024	944.787	-5.94	-2.97	15.0538	3.0	70.0	3.16	Outcome2	13.7	-5.94	0.0	No	2.0	-19.6439909297052	1.244	392.77		GetAnswer	Loss
52.0	2	392.792	0.021	946.053	-5.94	-2.97	15.0538	4.0	70.0	3.16	Outcome2	13.7	-5.94	0.0	No		-19.6439909297052				ShowChoice	Loss
52.0	2	396.807	0.015	950.068	-5.94	-2.97	15.0538	1.0	70.0	3.16	Outcome2	13.7	-5.94	0.0	No		-19.6439909297052				ShowResult	Loss
52.0	2	397.824	0.017	951.085	-5.94	-2.97	15.0538	5.913	70.0	3.16	Outcome2	13.7	-5.94	0.0	No		-19.6439909297052				ISITrial	Loss
53.0	2	403.755	0.018	957.016	-4.0	-4.0	14.5538	3.0	70.0	2.8	Certain	5.5	-14.65	2996.75	Yes	4.0	-20.1451247165533	1.698	405.453		GetAnswer	Gain
53.0	2	405.471	0.018	958.732	-4.0	-4.0	14.5538	4.0	70.0	2.8	Certain	5.5	-14.65	2996.75	Yes		-20.1451247165533				ShowChoice	Gain
53.0	2	409.486	0.015	962.747	-4.0	-4.0	14.5538	1.0	70.0	2.8	Certain	5.5	-14.65	2996.75	Yes		-20.1451247165533				ShowResult	Gain
53.0	2	410.503	0.017	963.764	-4.0	-4.0	14.5538	3.66	70.0	2.8	Certain	5.5	-14.65	2996.75	Yes		-20.1451247165533				ISITrial	Gain
53.0	2	417.2	0.018	970.461	-4.0	-4.0	14.5538	0.839	70.0	2.8	Certain	5.5	-14.65	2996.75	Yes		-20.1451247165533			448.0	TrialHappiness	Gain
53.0	2	421.216	4.016	974.477	-4.0	-4.0	14.5538	3.987	70.0	2.8	Certain	5.5	-14.65	2996.75	Yes		-20.1451247165533				ISIRate	Gain
54.0	2	425.231	0.028	978.492	0.0	0.0	14.5538	3.0	70.0	2.48	Certain	-10.26	9.3	0.0	No	4.0	-19.557823129251698	1.498	426.729		GetAnswer	Gain
54.0	2	426.747	0.018	980.008	0.0	0.0	14.5538	4.0	70.0	2.48	Certain	-10.26	9.3	0.0	No		-19.557823129251698				ShowChoice	Gain
54.0	2	430.762	0.015	984.023	0.0	0.0	14.5538	1.0	70.0	2.48	Certain	-10.26	9.3	0.0	No		-19.557823129251698				ShowResult	Gain
54.0	2	431.779	0.017	985.04	0.0	0.0	14.5538	8.0	70.0	2.48	Certain	-10.26	9.3	0.0	No		-19.557823129251698				ISITrial	Gain
	2	439.809	0.03	993.07				-0.001								{SPACE}		65.113	504.922		Rest	
	2	504.937	0.015	1058.198				4.0													BlockHappyPreview	
	2	508.952	0.015	1062.213				0.781												532.0	BlockStartHappiness	
	2	514.633	0.015	1067.894				-0.001								5.0		3.622	518.255		ScanWait	
	3	0.01	0.01	1071.526				10.0													GetReady	
55.0	3	10.04	0.03	1081.556	-1.0	-1.0	14.4288	3.0	955.0	1.5	Certain	-5.09	2.1	2533.25	Yes	4.0	7.18573046432616	1.73	11.77		GetAnswer	Mixed
55.0	3	11.79	0.02	1083.306	-1.0	-1.0	14.4288	4.0	955.0	1.5	Certain	-5.09	2.1	2533.25	Yes		7.18573046432616				ShowChoice	Mixed
55.0	3	15.805	0.015	1087.321	-1.0	-1.0	14.4288	1.0	955.0	1.5	Certain	-5.09	2.1	2533.25	Yes		7.18573046432616				ShowResult	Mixed
55.0	3	16.821	0.016	1088.337	-1.0	-1.0	14.4288	7.709	955.0	1.5	Certain	-5.09	2.1	2533.25	Yes		7.18573046432616				ISITrial	Mixed
55.0	3	27.101	0.016	1098.617	-1.0	-1.0	14.4288	0.0	955.0	1.5	Certain	-5.09	2.1	2533.25	Yes		7.18573046432616			512.0	TrialHappiness	Mixed
55.0	3	31.116	4.015	1102.632	-1.0	-1.0	14.4288	2.133	955.0	1.5	Certain	-5.09	2.1	2533.25	Yes		7.18573046432616				ISIRate	Mixed
56.0	3	33.266	0.017	1104.782	9.26	4.63	15.5863	3.0	955.0	2.22	Outcome1	9.26	11.1	0.0	No	2.0	-1.8376745941864898	1.039	34.305		GetAnswer	Loss
56.0	3	34.332	0.027	1105.848	9.26	4.63	15.5863	4.0	955.0	2.22	Outcome1	9.26	11.1	0.0	No		-1.8376745941864898				ShowChoice	Loss
56.0	3	38.347	0.015	1109.863	9.26	4.63	15.5863	1.0	955.0	2.22	Outcome1	9.26	11.1	0.0	No		-1.8376745941864898				ShowResult	Loss
56.0	3	39.363	0.016	1110.879	9.26	4.63	15.5863	4.697	955.0	2.22	Outcome1	9.26	11.1	0.0	No		-1.8376745941864898				ISITrial	Loss
57.0	3	44.078	0.018	1115.594	12.3	1.9	17.1238	3.0	955.0	5.0	Outcome2	3.79	12.3	0.0	No	2.0	8.50622876557191	1.071	45.149		GetAnswer	Loss
57.0	3	45.161	0.012	1116.677	12.3	1.9	17.1238	4.0	955.0	5.0	Outcome2	3.79	12.3	0.0	No		8.50622876557191				ShowChoice	Loss
57.0	3	49.177	0.016	1120.693	12.3	1.9	17.1238	1.0	955.0	5.0	Outcome2	3.79	12.3	0.0	No		8.50622876557191				ShowResult	Loss
57.0	3	50.193	0.016	1121.709	12.3	1.9	17.1238	4.291	955.0	5.0	Outcome2	3.79	12.3	0.0	No		8.50622876557191				ISITrial	Loss
58.0	3	54.508	0.024	1126.024	8.7	-0.16	18.2113	3.0	955.0	1.82	Outcome1	8.7	-0.31	3045.75	Yes	2.0	9.0079275198188	1.385	55.893		GetAnswer	Gain
58.0	3	55.908	0.015	1127.424	8.7	-0.16	18.2113	4.0	955.0	1.82	Outcome1	8.7	-0.31	3045.75	Yes		9.0079275198188				ShowChoice	Gain
58.0	3	59.923	0.015	1131.439	8.7	-0.16	18.2113	1.0	955.0	1.82	Outcome1	8.7	-0.31	3045.75	Yes		9.0079275198188				ShowResult	Gain
58.0	3	60.939	0.016	1132.455	8.7	-0.16	18.2113	2.037	955.0	1.82	Outcome1	8.7	-0.31	3045.75	Yes		9.0079275198188				ISITrial	Gain
58.0	3	66.054	0.019	1137.57	8.7	-0.16	18.2113	1.139	955.0	1.82	Outcome1	8.7	-0.31	3045.75	Yes		9.0079275198188			628.0	TrialHappiness	Gain
58.0	3	70.069	4.015	1141.585	8.7	-0.16	18.2113	4.183	955.0	1.82	Outcome1	8.7	-0.31	3045.75	Yes		9.0079275198188				ISIRate	Gain
59.0	3	74.268	0.016	1145.784	-1.59	-1.0	18.0125	3.0	955.0	1.2	Outcome2	-0.1	-1.59	0.0	No	2.0	-1.4923556058890102	1.998	76.266		GetAnswer	Mixed
59.0	3	76.284	0.018	1147.8	-1.59	-1.0	18.0125	4.0	955.0	1.2	Outcome2	-0.1	-1.59	0.0	No		-1.4923556058890102				ShowChoice	Mixed
59.0	3	80.299	0.015	1151.815	-1.59	-1.0	18.0125	1.0	955.0	1.2	Outcome2	-0.1	-1.59	0.0	No		-1.4923556058890102				ShowResult	Mixed
59.0	3	81.316	0.017	1152.832	-1.59	-1.0	18.0125	5.064	955.0	1.2	Outcome2	-0.1	-1.59	0.0	No		-1.4923556058890102				ISITrial	Mixed
60.0	3	86.397	0.017	1157.913	-3.0	-3.0	17.6375	3.0	955.0	0.52	Certain	-6.81	1.1	3562.5	Yes	4.0	7.9093997734994295	1.813	88.21		GetAnswer	Mixed
60.0	3	88.23	0.02	1159.746	-3.0	-3.0	17.6375	4.0	955.0	0.52	Certain	-6.81	1.1	3562.5	Yes		7.9093997734994295				ShowChoice	Mixed
60.0	3	92.245	0.015	1163.761	-3.0	-3.0	17.6375	1.0	955.0	0.52	Certain	-6.81	1.1	3562.5	Yes		7.9093997734994295				ShowResult	Mixed
60.0	3	93.261	0.016	1164.777	-3.0	-3.0	17.6375	8.0	955.0	0.52	Certain	-6.81	1.1	3562.5	Yes		7.9093997734994295				ISITrial	Mixed
60.0	3	104.857	0.02	1176.373	-3.0	-3.0	17.6375	0.0	955.0	0.52	Certain	-6.81	1.1	3562.5	Yes		7.9093997734994295			512.0	TrialHappiness	Mixed
60.0	3	108.873	4.016	1180.389	-3.0	-3.0	17.6375	6.25	955.0	0.52	Certain	-6.81	1.1	3562.5	Yes		7.9093997734994295				ISIRate	Mixed
61.0	3	115.154	0.031	1186.67	-5.0	-5.0	17.0125	3.0	955.0	1.0	Certain	-0.3	-10.55	0.0	No	4.0	10.250283125707801	1.541	116.695		GetAnswer	Mixed
61.0	3	116.72	0.024	1188.236	-5.0	-5.0	17.0125	4.0	955.0	1.0	Certain	-0.3	-10.55	0.0	No		10.250283125707801				ShowChoice	Mixed
61.0	3	120.735	0.015	1192.251	-5.0	-5.0	17.0125	1.0	955.0	1.0	Certain	-0.3	-10.55	0.0	No		10.250283125707801				ShowResult	Mixed
61.0	3	121.752	0.017	1193.268	-5.0	-5.0	17.0125	4.586	955.0	1.0	Certain	-0.3	-10.55	0.0	No		10.250283125707801				ISITrial	Mixed
62.0	3	126.367	0.029	1197.883	6.1	0.0	17.775	3.0	955.0	4.2	Outcome1	6.1	-4.65	3748.75	Yes	2.0	10.751981879954698	1.397	127.764		GetAnswer	Gain
62.0	3	127.783	0.019	1199.299	6.1	0.0	17.775	4.0	955.0	4.2	Outcome1	6.1	-4.65	3748.75	Yes		10.751981879954698				ShowChoice	Gain
62.0	3	131.798	0.015	1203.314	6.1	0.0	17.775	1.0	955.0	4.2	Outcome1	6.1	-4.65	3748.75	Yes		10.751981879954698				ShowResult	Gain
62.0	3	132.814	0.016	1204.33	6.1	0.0	17.775	5.212	955.0	4.2	Outcome1	6.1	-4.65	3748.75	Yes		10.751981879954698				ISITrial	Gain
62.0	3	141.811	0.016	1213.327	6.1	0.0	17.775	1.136	955.0	4.2	Outcome1	6.1	-4.65	3748.75	Yes	2{-2}2{-2}	10.751981879954698	1.136	142.947	540.0	TrialHappiness	Gain
62.0	3	145.827	4.016	1217.343	6.1	0.0	17.775	6.995	955.0	4.2	Outcome1	6.1	-4.65	3748.75	Yes		10.751981879954698				ISIRate	Gain
63.0	3	152.841	0.019	1224.357	9.5	-0.64	18.9625	3.0	955.0	2.8	Outcome1	9.5	-1.28	0.0	No	2.0	10.7780294450736	1.832	154.673		GetAnswer	Gain
63.0	3	154.69	0.017	1226.206	9.5	-0.64	18.9625	4.0	955.0	2.8	Outcome1	9.5	-1.28	0.0	No		10.7780294450736				ShowChoice	Gain
63.0	3	158.705	0.015	1230.221	9.5	-0.64	18.9625	1.0	955.0	2.8	Outcome1	9.5	-1.28	0.0	No		10.7780294450736				ShowResult	Gain
63.0	3	159.722	0.017	1231.238	9.5	-0.64	18.9625	5.595	955.0	2.8	Outcome1	9.5	-1.28	0.0	No		10.7780294450736				ISITrial	Gain
64.0	3	165.337	0.02	1236.853	1.67	2.0	19.1713	3.0	955.0	1.0	Outcome1	1.67	3.7	0.0	No	2.0	-2.03397508493771	0.9	166.237		GetAnswer	Mixed
64.0	3	166.253	0.016	1237.769	1.67	2.0	19.1713	4.0	955.0	1.0	Outcome1	1.67	3.7	0.0	No		-2.03397508493771				ShowChoice	Mixed
64.0	3	170.268	0.015	1241.784	1.67	2.0	19.1713	1.0	955.0	1.0	Outcome1	1.67	3.7	0.0	No		-2.03397508493771				ShowResult	Mixed
64.0	3	171.284	0.016	1242.8	1.67	2.0	19.1713	5.47	955.0	1.0	Outcome1	1.67	3.7	0.0	No		-2.03397508493771				ISITrial	Mixed
65.0	3	176.783	0.029	1248.299	-2.0	-2.0	18.9213	3.0	955.0	0.66	Certain	-8.42	3.3	2996.75	Yes	4.0	11.718006795016999	2.37	179.153		GetAnswer	Mixed
65.0	3	179.165	0.012	1250.681	-2.0	-2.0	18.9213	4.0	955.0	0.66	Certain	-8.42	3.3	2996.75	Yes		11.718006795016999				ShowChoice	Mixed
65.0	3	183.18	0.015	1254.696	-2.0	-2.0	18.9213	1.0	955.0	0.66	Certain	-8.42	3.3	2996.75	Yes		11.718006795016999				ShowResult	Mixed
65.0	3	184.197	0.017	1255.713	-2.0	-2.0	18.9213	3.344	955.0	0.66	Certain	-8.42	3.3	2996.75	Yes		11.718006795016999				ISITrial	Mixed
65.0	3	190.578	0.019	1262.094	-2.0	-2.0	18.9213	0.0	955.0	0.66	Certain	-8.42	3.3	2996.75	Yes		11.718006795016999			512.0	TrialHappiness	Mixed
65.0	3	194.593	4.015	1266.109	-2.0	-2.0	18.9213	3.987	955.0	0.66	Certain	-8.42	3.3	2996.75	Yes		11.718006795016999				ISIRate	Mixed
66.0	3	198.608	0.028	1270.124	13.1	0.22	20.5588	3.0	955.0	2.22	Outcome2	0.44	13.1	0.0	No	2.0	12.6636466591166	1.188	199.796		GetAnswer	Loss
66.0	3	199.825	0.029	1271.341	13.1	0.22	20.5588	4.0	955.0	2.22	Outcome2	0.44	13.1	0.0	No		12.6636466591166				ShowChoice	Loss
66.0	3	203.84	0.015	1275.356	13.1	0.22	20.5588	1.0	955.0	2.22	Outcome2	0.44	13.1	0.0	No		12.6636466591166				ShowResult	Loss
66.0	3	204.856	0.016	1276.372	13.1	0.22	20.5588	3.959	955.0	2.22	Outcome2	0.44	13.1	0.0	No		12.6636466591166				ISITrial	Loss
67.0	3	208.838	0.023	1280.354	10.9	-1.14	21.9213	3.0	955.0	2.0	Outcome1	10.9	-2.27	2918.5	Yes	2.0	13.1653454133635	1.746	210.584		GetAnswer	Loss
67.0	3	210.604	0.02	1282.12	10.9	-1.14	21.9213	4.0	955.0	2.0	Outcome1	10.9	-2.27	2918.5	Yes		13.1653454133635				ShowChoice	Loss
67.0	3	214.619	0.015	1286.135	10.9	-1.14	21.9213	1.0	955.0	2.0	Outcome1	10.9	-2.27	2918.5	Yes		13.1653454133635				ShowResult	Loss
67.0	3	215.636	0.017	1287.152	10.9	-1.14	21.9213	4.199	955.0	2.0	Outcome1	10.9	-2.27	2918.5	Yes		13.1653454133635				ISITrial	Loss
67.0	3	222.8	0.031	1294.316	10.9	-1.14	21.9213	1.947	955.0	2.0	Outcome1	10.9	-2.27	2918.5	Yes		13.1653454133635			628.0	TrialHappiness	Loss
67.0	3	226.815	4.015	1298.331	10.9	-1.14	21.9213	3.674	955.0	2.0	Outcome1	10.9	-2.27	2918.5	Yes		13.1653454133635				ISIRate	Loss
68.0	3	230.514	0.025	1302.03	7.7	2.0	22.8838	3.0	955.0	3.16	Outcome2	-4.0	7.7	0.0	No	2.0	11.6964892412231	1.358	231.872		GetAnswer	Gain
68.0	3	231.897	0.025	1303.413	7.7	2.0	22.8838	4.0	955.0	3.16	Outcome2	-4.0	7.7	0.0	No		11.6964892412231				ShowChoice	Gain
68.0	3	235.912	0.015	1307.428	7.7	2.0	22.8838	1.0	955.0	3.16	Outcome2	-4.0	7.7	0.0	No		11.6964892412231				ShowResult	Gain
68.0	3	236.928	0.016	1308.444	7.7	2.0	22.8838	2.185	955.0	3.16	Outcome2	-4.0	7.7	0.0	No		11.6964892412231				ISITrial	Gain
69.0	3	239.144	0.031	1310.66	6.43	3.22	23.6876	3.0	955.0	5.0	Outcome1	6.43	8.3	0.0	No	2.0	-1.8696677991694999	1.126	240.27		GetAnswer	Gain
69.0	3	240.294	0.024	1311.81	6.43	3.22	23.6876	4.0	955.0	5.0	Outcome1	6.43	8.3	0.0	No		-1.8696677991694999				ShowChoice	Gain
69.0	3	244.309	0.015	1315.825	6.43	3.22	23.6876	1.0	955.0	5.0	Outcome1	6.43	8.3	0.0	No		-1.8696677991694999				ShowResult	Gain
69.0	3	245.326	0.017	1316.842	6.43	3.22	23.6876	2.0	955.0	5.0	Outcome1	6.43	8.3	0.0	No		-1.8696677991694999				ISITrial	Gain
70.0	3	247.358	0.032	1318.874	-3.0	-3.0	23.3126	3.0	955.0	0.2	Certain	2.5	-9.94	3651.25	Yes	4.0	12.4371460928652	1.594	248.952		GetAnswer	Mixed
70.0	3	248.974	0.022	1320.49	-3.0	-3.0	23.3126	4.0	955.0	0.2	Certain	2.5	-9.94	3651.25	Yes		12.4371460928652				ShowChoice	Mixed
70.0	3	252.99	0.016	1324.506	-3.0	-3.0	23.3126	1.0	955.0	0.2	Certain	2.5	-9.94	3651.25	Yes		12.4371460928652				ShowResult	Mixed
70.0	3	254.006	0.016	1325.522	-3.0	-3.0	23.3126	2.623	955.0	0.2	Certain	2.5	-9.94	3651.25	Yes		12.4371460928652				ISITrial	Mixed
70.0	3	260.337	0.031	1331.853	-3.0	-3.0	23.3126	1.073	955.0	0.2	Certain	2.5	-9.94	3651.25	Yes		12.4371460928652			560.0	TrialHappiness	Mixed
70.0	3	264.352	4.015	1335.868	-3.0	-3.0	23.3126	6.605	955.0	0.2	Certain	2.5	-9.94	3651.25	Yes		12.4371460928652				ISIRate	Mixed
71.0	3	270.983	0.026	1342.499	-0.51	0.0	23.2488	3.0	955.0	1.0	Outcome1	-0.51	1.7	0.0	No	2.0	-2.20734239335598	1.406	272.389		GetAnswer	Mixed
71.0	3	272.416	0.027	1343.932	-0.51	0.0	23.2488	4.0	955.0	1.0	Outcome1	-0.51	1.7	0.0	No		-2.20734239335598				ShowChoice	Mixed
71.0	3	276.431	0.015	1347.947	-0.51	0.0	23.2488	1.0	955.0	1.0	Outcome1	-0.51	1.7	0.0	No		-2.20734239335598				ShowResult	Mixed
71.0	3	277.448	0.017	1348.964	-0.51	0.0	23.2488	5.499	955.0	1.0	Outcome1	-0.51	1.7	0.0	No		-2.20734239335598				ISITrial	Mixed
72.0	3	282.979	0.032	1354.495	-2.0	-2.0	22.9988	3.0	955.0	2.48	Certain	5.3	-9.11	3080.5	Yes	4.0	14.409966024915098	1.428	284.407		GetAnswer	Gain
72.0	3	284.429	0.022	1355.945	-2.0	-2.0	22.9988	4.0	955.0	2.48	Certain	5.3	-9.11	3080.5	Yes		14.409966024915098				ShowChoice	Gain
72.0	3	288.444	0.015	1359.96	-2.0	-2.0	22.9988	1.0	955.0	2.48	Certain	5.3	-9.11	3080.5	Yes		14.409966024915098				ShowResult	Gain
72.0	3	289.46	0.016	1360.976	-2.0	-2.0	22.9988	5.672	955.0	2.48	Certain	5.3	-9.11	3080.5	Yes		14.409966024915098				ISITrial	Gain
72.0	3	298.257	0.019	1369.773	-2.0	-2.0	22.9988	2.339	955.0	2.48	Certain	5.3	-9.11	3080.5	Yes		14.409966024915098			544.0	TrialHappiness	Gain
72.0	3	302.273	4.016	1373.789	-2.0	-2.0	22.9988	4.322	955.0	2.48	Certain	5.3	-9.11	3080.5	Yes		14.409966024915098				ISIRate	Gain
73.0	3	306.621	0.026	1378.137	-1.65	0.0	22.7926	3.0	955.0	0.3	Outcome2	0.7	-1.65	0.0	No	2.0	-2.34682899207248	1.256	307.877		GetAnswer	Mixed
73.0	3	307.904	0.027	1379.42	-1.65	0.0	22.7926	4.0	955.0	0.3	Outcome2	0.7	-1.65	0.0	No		-2.34682899207248				ShowChoice	Mixed
73.0	3	311.919	0.015	1383.435	-1.65	0.0	22.7926	1.0	955.0	0.3	Outcome2	0.7	-1.65	0.0	No		-2.34682899207248				ShowResult	Mixed
73.0	3	312.935	0.016	1384.451	-1.65	0.0	22.7926	4.616	955.0	0.3	Outcome2	0.7	-1.65	0.0	No		-2.34682899207248				ISITrial	Mixed
74.0	3	317.584	0.033	1389.1	-8.0	-8.0	21.7926	3.0	955.0	0.82	Certain	-0.5	-16.09	3056.25	Yes	4.0	15.59456398641	1.468	319.052		GetAnswer	Mixed
74.0	3	319.067	0.015	1390.583	-8.0	-8.0	21.7926	4.0	955.0	0.82	Certain	-0.5	-16.09	3056.25	Yes		15.59456398641				ShowChoice	Mixed
74.0	3	323.082	0.015	1394.598	-8.0	-8.0	21.7926	1.0	955.0	0.82	Certain	-0.5	-16.09	3056.25	Yes		15.59456398641				ShowResult	Mixed
74.0	3	324.098	0.016	1395.614	-8.0	-8.0	21.7926	3.909	955.0	0.82	Certain	-0.5	-16.09	3056.25	Yes		15.59456398641				ISITrial	Mixed
74.0	3	331.113	0.027	1402.629	-8.0	-8.0	21.7926	1.289	955.0	0.82	Certain	-0.5	-16.09	3056.25	Yes		15.59456398641			496.0	TrialHappiness	Mixed
74.0	3	335.128	4.015	1406.644	-8.0	-8.0	21.7926	4.225	955.0	0.82	Certain	-0.5	-16.09	3056.25	Yes		15.59456398641				ISIRate	Mixed
75.0	3	339.376	0.023	1410.892	2.08	1.04	22.0526	3.0	955.0	1.82	Outcome2	4.7	2.08	0.0	No	2.0	-2.6191959229898103	1.168	340.544		GetAnswer	Gain
75.0	3	340.559	0.015	1412.075	2.08	1.04	22.0526	4.0	955.0	1.82	Outcome2	4.7	2.08	0.0	No		-2.6191959229898103				ShowChoice	Gain
75.0	3	344.575	0.016	1416.091	2.08	1.04	22.0526	1.0	955.0	1.82	Outcome2	4.7	2.08	0.0	No		-2.6191959229898103				ShowResult	Gain
75.0	3	345.591	0.016	1417.107	2.08	1.04	22.0526	4.979	955.0	1.82	Outcome2	4.7	2.08	0.0	No		-2.6191959229898103				ISITrial	Gain
76.0	3	350.589	0.019	1422.105	9.04	4.52	23.1826	3.0	955.0	3.16	Outcome2	11.7	9.04	0.0	No	2.0	-2.6625141562853902	1.15	351.739		GetAnswer	Loss
76.0	3	351.755	0.016	1423.271	9.04	4.52	23.1826	4.0	955.0	3.16	Outcome2	11.7	9.04	0.0	No		-2.6625141562853902				ShowChoice	Loss
76.0	3	355.771	0.016	1427.287	9.04	4.52	23.1826	1.0	955.0	3.16	Outcome2	11.7	9.04	0.0	No		-2.6625141562853902				ShowResult	Loss
76.0	3	356.787	0.016	1428.303	9.04	4.52	23.1826	3.931	955.0	3.16	Outcome2	11.7	9.04	0.0	No		-2.6625141562853902				ISITrial	Loss
77.0	3	360.736	0.018	1432.252	-3.0	-3.0	22.8076	3.0	955.0	3.16	Certain	-12.22	5.7	4000.0	Yes	4.0	17.9150622876557	1.386	362.122		GetAnswer	Gain
77.0	3	362.135	0.013	1433.651	-3.0	-3.0	22.8076	4.0	955.0	3.16	Certain	-12.22	5.7	4000.0	Yes		17.9150622876557				ShowChoice	Gain
77.0	3	366.15	0.015	1437.666	-3.0	-3.0	22.8076	1.0	955.0	3.16	Certain	-12.22	5.7	4000.0	Yes		17.9150622876557				ShowResult	Gain
77.0	3	367.167	0.017	1438.683	-3.0	-3.0	22.8076	7.022	955.0	3.16	Certain	-12.22	5.7	4000.0	Yes		17.9150622876557				ISITrial	Gain
77.0	3	378.23	0.016	1449.746	-3.0	-3.0	22.8076	1.026	955.0	3.16	Certain	-12.22	5.7	4000.0	Yes		17.9150622876557			540.0	TrialHappiness	Gain
77.0	3	382.245	4.015	1453.761	-3.0	-3.0	22.8076	8.0	955.0	3.16	Certain	-12.22	5.7	4000.0	Yes		17.9150622876557				ISIRate	Gain
78.0	3	390.275	0.03	1461.791	2.0	2.0	23.0576	3.0	955.0	2.8	Certain	-6.19	11.5	0.0	No	4.0	17.687429218573	2.233	392.508		GetAnswer	Loss
78.0	3	392.525	0.017	1464.041	2.0	2.0	23.0576	4.0	955.0	2.8	Certain	-6.19	11.5	0.0	No		17.687429218573				ShowChoice	Loss
78.0	3	396.54	0.015	1468.056	2.0	2.0	23.0576	1.0	955.0	2.8	Certain	-6.19	11.5	0.0	No		17.687429218573				ShowResult	Loss
78.0	3	397.556	0.016	1469.072	2.0	2.0	23.0576	2.078	955.0	2.8	Certain	-6.19	11.5	0.0	No		17.687429218573				ISITrial	Loss
79.0	3	399.655	0.021	1471.171	-7.0	-7.0	22.1826	3.0	955.0	1.2	Certain	1.9	-16.26	2729.5	Yes	4.0	18.1574178935447	1.958	401.613		GetAnswer	Mixed
79.0	3	401.638	0.025	1473.154	-7.0	-7.0	22.1826	4.0	955.0	1.2	Certain	1.9	-16.26	2729.5	Yes		18.1574178935447				ShowChoice	Mixed
79.0	3	405.653	0.015	1477.169	-7.0	-7.0	22.1826	1.0	955.0	1.2	Certain	1.9	-16.26	2729.5	Yes		18.1574178935447				ShowResult	Mixed
79.0	3	406.67	0.017	1478.186	-7.0	-7.0	22.1826	3.829	955.0	1.2	Certain	1.9	-16.26	2729.5	Yes		18.1574178935447				ISITrial	Mixed
79.0	3	413.267	0.019	1484.783	-7.0	-7.0	22.1826	0.889	955.0	1.2	Certain	1.9	-16.26	2729.5	Yes	4{-4}4{-4}	18.1574178935447	0.889	414.156	444.0	TrialHappiness	Mixed
79.0	3	417.283	4.016	1488.799	-7.0	-7.0	22.1826	2.918	955.0	1.2	Certain	1.9	-16.26	2729.5	Yes		18.1574178935447				ISIRate	Mixed
80.0	3	420.232	0.031	1491.748	-3.94	-2.0	21.6901	3.0	955.0	0.52	Outcome1	-3.94	-0.9	0.0	No	2.0	-3.0385050962627407	2.441	422.673		GetAnswer	Mixed
80.0	3	422.698	0.025	1494.214	-3.94	-2.0	21.6901	4.0	955.0	0.52	Outcome1	-3.94	-0.9	0.0	No		-3.0385050962627407				ShowChoice	Mixed
80.0	3	426.713	0.015	1498.229	-3.94	-2.0	21.6901	1.0	955.0	0.52	Outcome1	-3.94	-0.9	0.0	No		-3.0385050962627407				ShowResult	Mixed
80.0	3	427.729	0.016	1499.245	-3.94	-2.0	21.6901	3.336	955.0	0.52	Outcome1	-3.94	-0.9	0.0	No		-3.0385050962627407				ISITrial	Mixed
81.0	3	431.095	0.03	1502.611	-9.0	-9.0	20.5651	3.0	955.0	0.66	Certain	-19.54	1.3	3923.75	Yes	4.0	20.836919592298997	0.982	432.077		GetAnswer	Mixed
81.0	3	432.094	0.017	1503.61	-9.0	-9.0	20.5651	4.0	955.0	0.66	Certain	-19.54	1.3	3923.75	Yes		20.836919592298997				ShowChoice	Mixed
81.0	3	436.11	0.016	1507.626	-9.0	-9.0	20.5651	1.0	955.0	0.66	Certain	-19.54	1.3	3923.75	Yes		20.836919592298997				ShowResult	Mixed
81.0	3	437.126	0.016	1508.642	-9.0	-9.0	20.5651	3.919	955.0	0.66	Certain	-19.54	1.3	3923.75	Yes		20.836919592298997				ISITrial	Mixed
81.0	3	445.006	0.024	1516.522	-9.0	-9.0	20.5651	1.457	955.0	0.66	Certain	-19.54	1.3	3923.75	Yes		20.836919592298997			408.0	TrialHappiness	Mixed
81.0	3	449.022	4.016	1520.538	-9.0	-9.0	20.5651	7.695	955.0	0.66	Certain	-19.54	1.3	3923.75	Yes		20.836919592298997				ISIRate	Mixed
	3	456.736	0.019	1528.252				3.0													CurrentEarnings	
	3	459.751	0.015	1531.267				-0.001								{SPACE}		1.932	461.683		Goodbye	
