trial_number	block	onset	onset_delay	onset_unadjusted	amount_change	certain_amount	current_amount	duration	mood_target	multiplier	outcome	outcome1_amount	outcome2_amount	question_duration	rating	response	rpe	rt	rt_time	slider_response	trial_phase	trial_type
	0	-34.009	0.037	14.016				-0.001								{SPACE}		1.923	-32.086		Welcome	
	0	-32.059	0.027	15.966				5.0													LifeHappyPreview	
	0	-27.028	0.031	20.997				3.857												844.0	LifeHappiness	
	0	-13.932	0.024	34.093				4.0													BlockHappyPreview	
	0	-9.917	0.015	38.108				2.393												848.0	BlockStartHappiness	
	0	-3.753	0.014	44.272				-0.001								5.0					ScanWait	
	1	0.013	0.013	48.038				10.0													GetReady	
1.0	1	10.042	0.029	58.067	11.9	5.04	11.4875	3.0	955.0	3.6	Outcome1	11.9	10.08	0.0	No	2.0	1.8176670441676102	0.733	10.775		GetAnswer	Loss
1.0	1	10.792	0.017	58.817	11.9	5.04	11.4875	4.0	955.0	3.6	Outcome1	11.9	10.08	0.0	No		1.8176670441676102				ShowChoice	Loss
1.0	1	14.807	0.015	62.832	11.9	5.04	11.4875	1.0	955.0	3.6	Outcome1	11.9	10.08	0.0	No		1.8176670441676102				ShowResult	Loss
1.0	1	15.824	0.017	63.849	11.9	5.04	11.4875	2.431	955.0	3.6	Outcome1	11.9	10.08	0.0	No		1.8176670441676102				ISITrial	Loss
2.0	1	18.29	0.035	66.315	0.0	0.0	11.4875	3.0	955.0	2.0	Certain	-1.64	0.3	0.0	No	4.0	1.93884484711212	1.255	19.545		GetAnswer	Mixed
2.0	1	19.572	0.027	67.597	0.0	0.0	11.4875	4.0	955.0	2.0	Certain	-1.64	0.3	0.0	No		1.93884484711212				ShowChoice	Mixed
2.0	1	23.588	0.016	71.613	0.0	0.0	11.4875	1.0	955.0	2.0	Certain	-1.64	0.3	0.0	No		1.93884484711212				ShowResult	Mixed
2.0	1	24.604	0.016	72.629	0.0	0.0	11.4875	4.568	955.0	2.0	Certain	-1.64	0.3	0.0	No		1.93884484711212				ISITrial	Mixed
3.0	1	29.202	0.03	77.227	3.1	2.0	11.875	3.0	955.0	0.52	Outcome1	3.1	1.04	2868.0	Yes	2.0	2.06002265005663	0.572	29.774		GetAnswer	Mixed
3.0	1	29.802	0.028	77.827	3.1	2.0	11.875	4.0	955.0	0.52	Outcome1	3.1	1.04	2868.0	Yes		2.06002265005663				ShowChoice	Mixed
3.0	1	33.817	0.015	81.842	3.1	2.0	11.875	1.0	955.0	0.52	Outcome1	3.1	1.04	2868.0	Yes		2.06002265005663				ShowResult	Mixed
3.0	1	34.834	0.017	82.859	3.1	2.0	11.875	3.243	955.0	0.52	Outcome1	3.1	1.04	2868.0	Yes		2.06002265005663				ISITrial	Mixed
3.0	1	40.998	0.031	89.023	3.1	2.0	11.875	3.571	955.0	0.52	Outcome1	3.1	1.04	2868.0	Yes	2{-2}4{-4}	2.06002265005663	3.571	44.569	828.0	TrialHappiness	Mixed
3.0	1	45.013	4.015	93.038	3.1	2.0	11.875	3.472	955.0	0.52	Outcome1	3.1	1.04	2868.0	Yes		2.06002265005663				ISIRate	Mixed
4.0	1	48.512	0.027	96.537	0.0	0.0	11.875	3.0	955.0	1.0	Certain	-0.3	-0.85	0.0	No	4.0	-0.545677614194035	0.88	49.392		GetAnswer	Mixed
4.0	1	49.412	0.02	97.437	0.0	0.0	11.875	4.0	955.0	1.0	Certain	-0.3	-0.85	0.0	No		-0.545677614194035				ShowChoice	Mixed
4.0	1	53.427	0.015	101.452	0.0	0.0	11.875	1.0	955.0	1.0	Certain	-0.3	-0.85	0.0	No		-0.545677614194035				ShowResult	Mixed
4.0	1	54.444	0.017	102.469	0.0	0.0	11.875	2.011	955.0	1.0	Certain	-0.3	-0.85	0.0	No		-0.545677614194035				ISITrial	Mixed
5.0	1	56.476	0.021	104.501	1.0	1.0	12.0	3.0	955.0	1.5	Certain	-0.56	2.1	2582.5	Yes	4.0	2.6647791619478998	1.122	57.598		GetAnswer	Mixed
5.0	1	57.626	0.028	105.651	1.0	1.0	12.0	4.0	955.0	1.5	Certain	-0.56	2.1	2582.5	Yes		2.6647791619478998				ShowChoice	Mixed
5.0	1	61.641	0.015	109.666	1.0	1.0	12.0	1.0	955.0	1.5	Certain	-0.56	2.1	2582.5	Yes		2.6647791619478998				ShowResult	Mixed
5.0	1	62.657	0.016	110.682	1.0	1.0	12.0	5.129	955.0	1.5	Certain	-0.56	2.1	2582.5	Yes		2.6647791619478998				ISITrial	Mixed
5.0	1	70.405	0.018	118.43	1.0	1.0	12.0	1.756	955.0	1.5	Certain	-0.56	2.1	2582.5	Yes		2.6647791619478998			848.0	TrialHappiness	Mixed
5.0	1	74.42	4.015	122.445	1.0	1.0	12.0	2.33	955.0	1.5	Certain	-0.56	2.1	2582.5	Yes		2.6647791619478998				ISIRate	Mixed
6.0	1	76.769	0.019	124.794	5.7	1.62	12.7125	3.0	955.0	3.16	Outcome1	5.7	3.23	0.0	No	2.0	2.46885617214043	0.697	77.466		GetAnswer	Gain
6.0	1	77.485	0.019	125.51	5.7	1.62	12.7125	4.0	955.0	3.16	Outcome1	5.7	3.23	0.0	No		2.46885617214043				ShowChoice	Gain
6.0	1	81.501	0.016	129.526	5.7	1.62	12.7125	1.0	955.0	3.16	Outcome1	5.7	3.23	0.0	No		2.46885617214043				ShowResult	Gain
6.0	1	82.517	0.016	130.542	5.7	1.62	12.7125	6.232	955.0	3.16	Outcome1	5.7	3.23	0.0	No		2.46885617214043				ISITrial	Gain
7.0	1	88.781	0.032	136.806	6.8	3.4	13.5625	3.0	955.0	2.48	Outcome1	6.8	7.3	0.0	No	2.0	-0.498584371460929	0.563	89.344		GetAnswer	Gain
7.0	1	89.365	0.021	137.39	6.8	3.4	13.5625	4.0	955.0	2.48	Outcome1	6.8	7.3	0.0	No		-0.498584371460929				ShowChoice	Gain
7.0	1	93.38	0.015	141.405	6.8	3.4	13.5625	1.0	955.0	2.48	Outcome1	6.8	7.3	0.0	No		-0.498584371460929				ShowResult	Gain
7.0	1	94.396	0.016	142.421	6.8	3.4	13.5625	2.305	955.0	2.48	Outcome1	6.8	7.3	0.0	No		-0.498584371460929				ISITrial	Gain
8.0	1	96.729	0.028	144.754	9.9	3.6	14.8	3.0	955.0	3.6	Outcome1	9.9	7.19	3112.5	Yes	2.0	2.71121177802944	0.828	97.557		GetAnswer	Gain
8.0	1	97.578	0.021	145.603	9.9	3.6	14.8	4.0	955.0	3.6	Outcome1	9.9	7.19	3112.5	Yes		2.71121177802944				ShowChoice	Gain
8.0	1	101.594	0.016	149.619	9.9	3.6	14.8	1.0	955.0	3.6	Outcome1	9.9	7.19	3112.5	Yes		2.71121177802944				ShowResult	Gain
8.0	1	102.61	0.016	150.635	9.9	3.6	14.8	3.506	955.0	3.6	Outcome1	9.9	7.19	3112.5	Yes		2.71121177802944				ISITrial	Gain
8.0	1	109.274	0.02	157.299	9.9	3.6	14.8	3.326	955.0	3.6	Outcome1	9.9	7.19	3112.5	Yes		2.71121177802944			888.0	TrialHappiness	Gain
8.0	1	113.289	4.015	161.314	9.9	3.6	14.8	4.45	955.0	3.6	Outcome1	9.9	7.19	3112.5	Yes		2.71121177802944				ISIRate	Gain
9.0	1	117.755	0.016	165.78	-1.0	-1.0	14.675	3.0	955.0	1.2	Certain	-0.1	-2.25	0.0	No	4.0	2.15288788221971	0.612	118.367		GetAnswer	Mixed
9.0	1	118.388	0.021	166.413	-1.0	-1.0	14.675	4.0	955.0	1.2	Certain	-0.1	-2.25	0.0	No		2.15288788221971				ShowChoice	Mixed
9.0	1	122.403	0.015	170.428	-1.0	-1.0	14.675	1.0	955.0	1.2	Certain	-0.1	-2.25	0.0	No		2.15288788221971				ShowResult	Mixed
9.0	1	123.419	0.016	171.444	-1.0	-1.0	14.675	2.0	955.0	1.2	Certain	-0.1	-2.25	0.0	No		2.15288788221971				ISITrial	Mixed
10.0	1	125.435	0.016	173.46	7.9	2.84	15.6625	3.0	955.0	3.6	Outcome1	7.9	5.67	4000.0	Yes	2.0	2.22876557191393	0.727	126.162		GetAnswer	Gain
10.0	1	126.185	0.023	174.21	7.9	2.84	15.6625	4.0	955.0	3.6	Outcome1	7.9	5.67	4000.0	Yes		2.22876557191393				ShowChoice	Gain
10.0	1	130.2	0.015	178.225	7.9	2.84	15.6625	1.0	955.0	3.6	Outcome1	7.9	5.67	4000.0	Yes		2.22876557191393				ShowResult	Gain
10.0	1	131.216	0.016	179.241	7.9	2.84	15.6625	2.0	955.0	3.6	Outcome1	7.9	5.67	4000.0	Yes		2.22876557191393				ISITrial	Gain
10.0	1	137.248	0.016	185.273	7.9	2.84	15.6625	3.906	955.0	3.6	Outcome1	7.9	5.67	4000.0	Yes		2.22876557191393			812.0	TrialHappiness	Gain
10.0	1	141.263	4.015	189.288	7.9	2.84	15.6625	8.0	955.0	3.6	Outcome1	7.9	5.67	4000.0	Yes		2.22876557191393				ISIRate	Gain
11.0	1	149.293	0.03	197.318	1.02	1.0	15.79	3.0	955.0	1.0	Outcome1	1.02	1.7	0.0	No	2.0	-0.6775198187995469	1.064	150.357		GetAnswer	Mixed
11.0	1	150.376	0.019	198.401	1.02	1.0	15.79	4.0	955.0	1.0	Outcome1	1.02	1.7	0.0	No		-0.6775198187995469				ShowChoice	Mixed
11.0	1	154.392	0.016	202.417	1.02	1.0	15.79	1.0	955.0	1.0	Outcome1	1.02	1.7	0.0	No		-0.6775198187995469				ShowResult	Mixed
11.0	1	155.408	0.016	203.433	1.02	1.0	15.79	3.324	955.0	1.0	Outcome1	1.02	1.7	0.0	No		-0.6775198187995469				ISITrial	Mixed
12.0	1	158.757	0.025	206.782	10.1	3.17	17.0525	3.0	955.0	4.2	Outcome1	10.1	6.34	2618.75	Yes	2.0	3.75764439411099	0.893	159.65		GetAnswer	Gain
12.0	1	159.673	0.023	207.698	10.1	3.17	17.0525	4.0	955.0	4.2	Outcome1	10.1	6.34	2618.75	Yes		3.75764439411099				ShowChoice	Gain
12.0	1	163.688	0.015	211.713	10.1	3.17	17.0525	1.0	955.0	4.2	Outcome1	10.1	6.34	2618.75	Yes		3.75764439411099				ShowResult	Gain
12.0	1	164.705	0.017	212.73	10.1	3.17	17.0525	6.642	955.0	4.2	Outcome1	10.1	6.34	2618.75	Yes		3.75764439411099				ISITrial	Gain
12.0	1	174.018	0.03	222.043	10.1	3.17	17.0525	2.176	955.0	4.2	Outcome1	10.1	6.34	2618.75	Yes		3.75764439411099			900.0	TrialHappiness	Gain
12.0	1	178.033	4.015	226.058	10.1	3.17	17.0525	2.475	955.0	4.2	Outcome1	10.1	6.34	2618.75	Yes		3.75764439411099				ISIRate	Gain
13.0	1	180.532	0.024	228.557	2.3	1.0	17.34	3.0	955.0	2.0	Outcome1	2.3	-0.12	0.0	No	2.0	2.4246885617214002	1.192	181.724		GetAnswer	Mixed
13.0	1	181.749	0.025	229.774	2.3	1.0	17.34	4.0	955.0	2.0	Outcome1	2.3	-0.12	0.0	No		2.4246885617214002				ShowChoice	Mixed
13.0	1	185.764	0.015	233.789	2.3	1.0	17.34	1.0	955.0	2.0	Outcome1	2.3	-0.12	0.0	No		2.4246885617214002				ShowResult	Mixed
13.0	1	186.78	0.016	234.805	2.3	1.0	17.34	3.48	955.0	2.0	Outcome1	2.3	-0.12	0.0	No		2.4246885617214002				ISITrial	Mixed
14.0	1	190.279	0.019	238.304	13.5	5.5	19.0275	3.0	955.0	2.8	Outcome2	11.01	13.5	0.0	No	2.0	2.48697621744054	1.131	191.41		GetAnswer	Loss
14.0	1	191.429	0.019	239.454	13.5	5.5	19.0275	4.0	955.0	2.8	Outcome2	11.01	13.5	0.0	No		2.48697621744054				ShowChoice	Loss
14.0	1	195.444	0.015	243.469	13.5	5.5	19.0275	1.0	955.0	2.8	Outcome2	11.01	13.5	0.0	No		2.48697621744054				ShowResult	Loss
14.0	1	196.46	0.016	244.485	13.5	5.5	19.0275	5.019	955.0	2.8	Outcome2	11.01	13.5	0.0	No		2.48697621744054				ISITrial	Loss
15.0	1	201.508	0.029	249.533	7.74	3.87	19.995	3.0	955.0	4.2	Outcome1	7.74	8.1	3348.5	Yes	2.0	-0.357776519441299	0.687	202.195		GetAnswer	Gain
15.0	1	202.208	0.013	250.233	7.74	3.87	19.995	4.0	955.0	4.2	Outcome1	7.74	8.1	3348.5	Yes		-0.357776519441299				ShowChoice	Gain
15.0	1	206.223	0.015	254.248	7.74	3.87	19.995	1.0	955.0	4.2	Outcome1	7.74	8.1	3348.5	Yes		-0.357776519441299				ShowResult	Gain
15.0	1	207.24	0.017	255.265	7.74	3.87	19.995	7.614	955.0	4.2	Outcome1	7.74	8.1	3348.5	Yes		-0.357776519441299				ISITrial	Gain
15.0	1	218.236	0.018	266.261	7.74	3.87	19.995	1.923	955.0	4.2	Outcome1	7.74	8.1	3348.5	Yes		-0.357776519441299			888.0	TrialHappiness	Gain
15.0	1	222.251	4.015	270.276	7.74	3.87	19.995	5.394	955.0	4.2	Outcome1	7.74	8.1	3348.5	Yes		-0.357776519441299				ISIRate	Gain
16.0	1	227.666	0.021	275.691	-1.1	-2.0	19.8575	3.0	955.0	0.4	Outcome1	-1.1	-3.92	0.0	No	2.0	2.8154020385051	0.967	228.633		GetAnswer	Mixed
16.0	1	228.649	0.016	276.674	-1.1	-2.0	19.8575	4.0	955.0	0.4	Outcome1	-1.1	-3.92	0.0	No		2.8154020385051				ShowChoice	Mixed
16.0	1	232.664	0.015	280.689	-1.1	-2.0	19.8575	1.0	955.0	0.4	Outcome1	-1.1	-3.92	0.0	No		2.8154020385051				ShowResult	Mixed
16.0	1	233.68	0.016	281.705	-1.1	-2.0	19.8575	3.008	955.0	0.4	Outcome1	-1.1	-3.92	0.0	No		2.8154020385051				ISITrial	Mixed
17.0	1	236.713	0.025	284.738	12.1	4.61	21.37	3.0	955.0	4.2	Outcome2	9.21	12.1	3041.5	Yes	2.0	2.89127972819932	1.013	237.726		GetAnswer	Loss
17.0	1	237.746	0.02	285.771	12.1	4.61	21.37	4.0	955.0	4.2	Outcome2	9.21	12.1	3041.5	Yes		2.89127972819932				ShowChoice	Loss
17.0	1	241.761	0.015	289.786	12.1	4.61	21.37	1.0	955.0	4.2	Outcome2	9.21	12.1	3041.5	Yes		2.89127972819932				ShowResult	Loss
17.0	1	242.777	0.016	290.802	12.1	4.61	21.37	3.566	955.0	4.2	Outcome2	9.21	12.1	3041.5	Yes		2.89127972819932				ISITrial	Loss
17.0	1	249.425	0.024	297.45	12.1	4.61	21.37	2.489	955.0	4.2	Outcome2	9.21	12.1	3041.5	Yes		2.89127972819932			904.0	TrialHappiness	Loss
17.0	1	253.44	4.015	301.465	12.1	4.61	21.37	4.166	955.0	4.2	Outcome2	9.21	12.1	3041.5	Yes		2.89127972819932				ISIRate	Loss
18.0	1	257.622	0.016	305.647	4.1	0.7	21.8825	3.0	955.0	1.5	Outcome1	4.1	1.4	0.0	No	2.0	2.69535673839185	0.845	258.467		GetAnswer	Mixed
18.0	1	258.488	0.021	306.513	4.1	0.7	21.8825	4.0	955.0	1.5	Outcome1	4.1	1.4	0.0	No		2.69535673839185				ShowChoice	Mixed
18.0	1	262.504	0.016	310.529	4.1	0.7	21.8825	1.0	955.0	1.5	Outcome1	4.1	1.4	0.0	No		2.69535673839185				ShowResult	Mixed
18.0	1	263.52	0.016	311.545	4.1	0.7	21.8825	6.787	955.0	1.5	Outcome1	4.1	1.4	0.0	No		2.69535673839185				ISITrial	Mixed
19.0	1	270.334	0.027	318.359	12.7	4.97	23.47	3.0	955.0	1.82	Outcome1	12.7	9.95	0.0	No	2.0	2.75311438278596	1.057	271.391		GetAnswer	Loss
19.0	1	271.417	0.026	319.442	12.7	4.97	23.47	4.0	955.0	1.82	Outcome1	12.7	9.95	0.0	No		2.75311438278596				ShowChoice	Loss
19.0	1	275.432	0.015	323.457	12.7	4.97	23.47	1.0	955.0	1.82	Outcome1	12.7	9.95	0.0	No		2.75311438278596				ShowResult	Loss
19.0	1	276.449	0.017	324.474	12.7	4.97	23.47	2.0	955.0	1.82	Outcome1	12.7	9.95	0.0	No		2.75311438278596				ISITrial	Loss
20.0	1	278.465	0.016	326.49	8.13	4.07	24.4863	3.0	955.0	1.68	Outcome1	8.13	8.5	2921.25	Yes	2.0	-0.369007172517931	0.862	279.327		GetAnswer	Gain
20.0	1	279.348	0.021	327.373	8.13	4.07	24.4863	4.0	955.0	1.68	Outcome1	8.13	8.5	2921.25	Yes		-0.369007172517931				ShowChoice	Gain
20.0	1	283.363	0.015	331.388	8.13	4.07	24.4863	1.0	955.0	1.68	Outcome1	8.13	8.5	2921.25	Yes		-0.369007172517931				ShowResult	Gain
20.0	1	284.379	0.016	332.404	8.13	4.07	24.4863	8.0	955.0	1.68	Outcome1	8.13	8.5	2921.25	Yes		-0.369007172517931				ISITrial	Gain
20.0	1	295.342	0.028	343.367	8.13	4.07	24.4863	1.956	955.0	1.68	Outcome1	8.13	8.5	2921.25	Yes		-0.369007172517931			928.0	TrialHappiness	Gain
20.0	1	299.357	4.015	347.382	8.13	4.07	24.4863	3.685	955.0	1.68	Outcome1	8.13	8.5	2921.25	Yes		-0.369007172517931				ISIRate	Gain
21.0	1	303.073	0.031	351.098	12.9	5.22	26.0988	3.0	955.0	2.0	Outcome2	10.44	12.9	0.0	No	2.0	2.4609286523216296	0.76	303.833		GetAnswer	Loss
21.0	1	303.856	0.023	351.881	12.9	5.22	26.0988	4.0	955.0	2.0	Outcome2	10.44	12.9	0.0	No		2.4609286523216296				ShowChoice	Loss
21.0	1	307.871	0.015	355.896	12.9	5.22	26.0988	1.0	955.0	2.0	Outcome2	10.44	12.9	0.0	No		2.4609286523216296				ShowResult	Loss
21.0	1	308.887	0.016	356.912	12.9	5.22	26.0988	3.555	955.0	2.0	Outcome2	10.44	12.9	0.0	No		2.4609286523216296				ISITrial	Loss
22.0	1	312.469	0.027	360.494	13.7	5.6	27.8113	3.0	955.0	3.16	Outcome1	13.7	11.21	3219.5	Yes	2.0	2.49150622876557	0.654	313.123		GetAnswer	Loss
22.0	1	313.136	0.013	361.161	13.7	5.6	27.8113	4.0	955.0	3.16	Outcome1	13.7	11.21	3219.5	Yes		2.49150622876557				ShowChoice	Loss
22.0	1	317.151	0.015	365.176	13.7	5.6	27.8113	1.0	955.0	3.16	Outcome1	13.7	11.21	3219.5	Yes		2.49150622876557				ShowResult	Loss
22.0	1	318.167	0.016	366.192	13.7	5.6	27.8113	6.793	955.0	3.16	Outcome1	13.7	11.21	3219.5	Yes		2.49150622876557				ISITrial	Loss
22.0	1	328.23	0.028	376.255	13.7	5.6	27.8113	1.506	955.0	3.16	Outcome1	13.7	11.21	3219.5	Yes		2.49150622876557			936.0	TrialHappiness	Loss
22.0	1	332.246	4.016	380.271	13.7	5.6	27.8113	4.878	955.0	3.16	Outcome1	13.7	11.21	3219.5	Yes		2.49150622876557				ISIRate	Loss
23.0	1	337.144	0.02	385.169	9.1	3.36	28.9488	3.0	955.0	2.22	Outcome1	9.1	6.71	0.0	No	2.0	2.38618346545866	0.716	337.86		GetAnswer	Gain
23.0	1	337.877	0.017	385.902	9.1	3.36	28.9488	4.0	955.0	2.22	Outcome1	9.1	6.71	0.0	No		2.38618346545866				ShowChoice	Gain
23.0	1	341.892	0.015	389.917	9.1	3.36	28.9488	1.0	955.0	2.22	Outcome1	9.1	6.71	0.0	No		2.38618346545866				ShowResult	Gain
23.0	1	342.909	0.017	390.934	9.1	3.36	28.9488	8.0	955.0	2.22	Outcome1	9.1	6.71	0.0	No		2.38618346545866				ISITrial	Gain
24.0	1	350.939	0.03	398.964	3.9	2.0	29.4363	3.0	955.0	1.2	Outcome1	3.9	1.49	3255.0	Yes	2.0	2.4077010192525496	0.61	351.549		GetAnswer	Mixed
24.0	1	351.572	0.023	399.597	3.9	2.0	29.4363	4.0	955.0	1.2	Outcome1	3.9	1.49	3255.0	Yes		2.4077010192525496				ShowChoice	Mixed
24.0	1	355.587	0.015	403.612	3.9	2.0	29.4363	1.0	955.0	1.2	Outcome1	3.9	1.49	3255.0	Yes		2.4077010192525496				ShowResult	Mixed
24.0	1	356.604	0.017	404.629	3.9	2.0	29.4363	2.0	955.0	1.2	Outcome1	3.9	1.49	3255.0	Yes		2.4077010192525496				ISITrial	Mixed
24.0	1	361.902	0.027	409.927	3.9	2.0	29.4363	1.873	955.0	1.2	Outcome1	3.9	1.49	3255.0	Yes		2.4077010192525496			928.0	TrialHappiness	Mixed
24.0	1	365.917	4.015	413.942	3.9	2.0	29.4363	5.02	955.0	1.2	Outcome1	3.9	1.49	3255.0	Yes		2.4077010192525496				ISIRate	Mixed
25.0	1	370.965	0.028	418.99	5.21	2.6	30.0875	3.0	955.0	2.8	Outcome2	5.5	5.21	0.0	No	2.0	-0.285107587768969	1.018	371.983		GetAnswer	Gain
25.0	1	371.998	0.015	420.023	5.21	2.6	30.0875	4.0	955.0	2.8	Outcome2	5.5	5.21	0.0	No		-0.285107587768969				ShowChoice	Gain
25.0	1	376.014	0.016	424.039	5.21	2.6	30.0875	1.0	955.0	2.8	Outcome2	5.5	5.21	0.0	No		-0.285107587768969				ShowResult	Gain
25.0	1	377.03	0.016	425.055	5.21	2.6	30.0875	3.749	955.0	2.8	Outcome2	5.5	5.21	0.0	No		-0.285107587768969				ISITrial	Gain
26.0	1	380.812	0.033	428.837	-1.0	-1.0	29.9625	3.0	955.0	1.5	Certain	-2.5	0.1	0.0	No	4.0	2.59569648924122	0.857	381.669		GetAnswer	Mixed
26.0	1	381.695	0.026	429.72	-1.0	-1.0	29.9625	4.0	955.0	1.5	Certain	-2.5	0.1	0.0	No		2.59569648924122				ShowChoice	Mixed
26.0	1	385.71	0.015	433.735	-1.0	-1.0	29.9625	1.0	955.0	1.5	Certain	-2.5	0.1	0.0	No		2.59569648924122				ShowResult	Mixed
26.0	1	386.726	0.016	434.751	-1.0	-1.0	29.9625	7.834	955.0	1.5	Certain	-2.5	0.1	0.0	No		2.59569648924122				ISITrial	Mixed
27.0	1	394.59	0.03	442.615	6.81	3.4	30.8137	3.0	955.0	2.22	Outcome2	7.1	6.81	2549.75	Yes	2.0	-0.29020385050962605	0.899	395.489		GetAnswer	Gain
27.0	1	395.507	0.018	443.532	6.81	3.4	30.8137	4.0	955.0	2.22	Outcome2	7.1	6.81	2549.75	Yes		-0.29020385050962605				ShowChoice	Gain
27.0	1	399.522	0.015	447.547	6.81	3.4	30.8137	1.0	955.0	2.22	Outcome2	7.1	6.81	2549.75	Yes		-0.29020385050962605				ShowResult	Gain
27.0	1	400.538	0.016	448.563	6.81	3.4	30.8137	4.225	955.0	2.22	Outcome2	7.1	6.81	2549.75	Yes		-0.29020385050962605				ISITrial	Gain
27.0	1	407.353	0.016	455.378	6.81	3.4	30.8137	1.305	955.0	2.22	Outcome2	7.1	6.81	2549.75	Yes		-0.29020385050962605			928.0	TrialHappiness	Gain
27.0	1	411.368	4.015	459.393	6.81	3.4	30.8137	2.199	955.0	2.22	Outcome2	7.1	6.81	2549.75	Yes		-0.29020385050962605				ISIRate	Gain
	1	413.6	0.033	461.625				-0.001								2.0		8.658	422.258		Rest	
	1	422.281	0.022	470.306				4.0													BlockHappyPreview	
	1	426.296	0.015	474.321				3.772												900.0	BlockStartHappiness	
	1	505.851	0.029	553.876				-0.001								5.0		4.607	510.458		ScanWait	
	2	0.025	0.025	558.508				10.0													GetReady	
28.0	2	10.055	0.03	568.538	-5.22	2.0	30.1612	3.0	70.0	2.0	Outcome1	-5.22	8.9	0.0	No	2.0	-14.115646258503402	0.604	10.659		GetAnswer	Gain
28.0	2	10.688	0.029	569.171	-5.22	2.0	30.1612	4.0	70.0	2.0	Outcome1	-5.22	8.9	0.0	No		-14.115646258503402				ShowChoice	Gain
28.0	2	14.703	0.015	573.186	-5.22	2.0	30.1612	1.0	70.0	2.0	Outcome1	-5.22	8.9	0.0	No		-14.115646258503402				ShowResult	Gain
28.0	2	15.719	0.016	574.202	-5.22	2.0	30.1612	3.575	70.0	2.0	Outcome1	-5.22	8.9	0.0	No		-14.115646258503402				ISITrial	Gain
29.0	2	19.318	0.024	577.801	1.88	0.0	30.3962	3.0	70.0	2.8	Outcome1	1.88	-1.57	3529.0	Yes	2.0	3.45049130763416	1.398	20.716		GetAnswer	Gain
29.0	2	20.734	0.018	579.217	1.88	0.0	30.3962	4.0	70.0	2.8	Outcome1	1.88	-1.57	3529.0	Yes		3.45049130763416				ShowChoice	Gain
29.0	2	24.749	0.015	583.232	1.88	0.0	30.3962	1.0	70.0	2.8	Outcome1	1.88	-1.57	3529.0	Yes		3.45049130763416				ShowResult	Gain
29.0	2	25.766	0.017	584.249	1.88	0.0	30.3962	3.955	70.0	2.8	Outcome1	1.88	-1.57	3529.0	Yes		3.45049130763416				ISITrial	Gain
29.0	2	33.296	0.019	591.779	1.88	0.0	30.3962	3.739	70.0	2.8	Outcome1	1.88	-1.57	3529.0	Yes		3.45049130763416			828.0	TrialHappiness	Gain
29.0	2	37.312	4.016	595.795	1.88	0.0	30.3962	6.116	70.0	2.8	Outcome1	1.88	-1.57	3529.0	Yes		3.45049130763416				ISIRate	Gain
30.0	2	43.46	0.032	601.943	3.08	1.0	30.7812	3.0	70.0	5.0	Outcome1	3.08	-0.16	0.0	No	2.0	3.2363945578231297	1.09	44.55		GetAnswer	Loss
30.0	2	44.576	0.026	603.059	3.08	1.0	30.7812	4.0	70.0	5.0	Outcome1	3.08	-0.16	0.0	No		3.2363945578231297				ShowChoice	Loss
30.0	2	48.591	0.015	607.074	3.08	1.0	30.7812	1.0	70.0	5.0	Outcome1	3.08	-0.16	0.0	No		3.2363945578231297				ShowResult	Loss
30.0	2	49.607	0.016	608.09	3.08	1.0	30.7812	4.453	70.0	5.0	Outcome1	3.08	-0.16	0.0	No		3.2363945578231297				ISITrial	Loss
31.0	2	54.089	0.029	612.572	0.0	0.0	30.7812	3.0	70.0	5.0	Certain	-1.73	1.58	2503.25	Yes	4.0	3.3080120937263797	1.378	55.467		GetAnswer	Gain
31.0	2	55.489	0.022	613.972	0.0	0.0	30.7812	4.0	70.0	5.0	Certain	-1.73	1.58	2503.25	Yes		3.3080120937263797				ShowChoice	Gain
31.0	2	59.504	0.015	617.987	0.0	0.0	30.7812	1.0	70.0	5.0	Certain	-1.73	1.58	2503.25	Yes		3.3080120937263797				ShowResult	Gain
31.0	2	60.52	0.016	619.003	0.0	0.0	30.7812	4.786	70.0	5.0	Certain	-1.73	1.58	2503.25	Yes		3.3080120937263797				ISITrial	Gain
31.0	2	67.851	0.029	626.334	0.0	0.0	30.7812	1.072	70.0	5.0	Certain	-1.73	1.58	2503.25	Yes		3.3080120937263797			800.0	TrialHappiness	Gain
31.0	2	71.866	4.015	630.349	0.0	0.0	30.7812	2.013	70.0	5.0	Certain	-1.73	1.58	2503.25	Yes		3.3080120937263797				ISIRate	Gain
32.0	2	73.899	0.02	632.382	-4.52	-2.26	30.2162	3.0	70.0	2.8	Outcome2	11.5	-4.52	0.0	No	2.0	-16.015873015873	1.324	75.223		GetAnswer	Loss
32.0	2	75.248	0.025	633.731	-4.52	-2.26	30.2162	4.0	70.0	2.8	Outcome2	11.5	-4.52	0.0	No		-16.015873015873				ShowChoice	Loss
32.0	2	79.264	0.016	637.747	-4.52	-2.26	30.2162	1.0	70.0	2.8	Outcome2	11.5	-4.52	0.0	No		-16.015873015873				ShowResult	Loss
32.0	2	80.28	0.016	638.763	-4.52	-2.26	30.2162	2.0	70.0	2.8	Outcome2	11.5	-4.52	0.0	No		-16.015873015873				ISITrial	Loss
33.0	2	82.296	0.016	640.779	-2.94	-1.47	29.8487	3.0	70.0	3.6	Outcome1	-2.94	13.9	0.0	No	2.0	-16.843537414966	1.23	83.526		GetAnswer	Loss
33.0	2	83.545	0.019	642.028	-2.94	-1.47	29.8487	4.0	70.0	3.6	Outcome1	-2.94	13.9	0.0	No		-16.843537414966				ShowChoice	Loss
33.0	2	87.561	0.016	646.044	-2.94	-1.47	29.8487	1.0	70.0	3.6	Outcome1	-2.94	13.9	0.0	No		-16.843537414966				ShowResult	Loss
33.0	2	88.577	0.016	647.06	-2.94	-1.47	29.8487	5.099	70.0	3.6	Outcome1	-2.94	13.9	0.0	No		-16.843537414966				ISITrial	Loss
34.0	2	93.709	0.033	652.192	-12.37	-3.0	28.3024	3.0	70.0	2.48	Outcome1	-12.37	5.3	3231.5	Yes	2.0	-17.671201814059	1.414	95.123		GetAnswer	Gain
34.0	2	95.141	0.018	653.624	-12.37	-3.0	28.3024	4.0	70.0	2.48	Outcome1	-12.37	5.3	3231.5	Yes		-17.671201814059				ShowChoice	Gain
34.0	2	99.157	0.016	657.64	-12.37	-3.0	28.3024	1.0	70.0	2.48	Outcome1	-12.37	5.3	3231.5	Yes		-17.671201814059				ShowResult	Gain
34.0	2	100.173	0.016	658.656	-12.37	-3.0	28.3024	4.784	70.0	2.48	Outcome1	-12.37	5.3	3231.5	Yes		-17.671201814059				ISITrial	Gain
34.0	2	108.22	0.017	666.703	-12.37	-3.0	28.3024	2.623	70.0	2.48	Outcome1	-12.37	5.3	3231.5	Yes		-17.671201814059			600.0	TrialHappiness	Gain
34.0	2	112.235	4.015	670.718	-12.37	-3.0	28.3024	4.926	70.0	2.48	Outcome1	-12.37	5.3	3231.5	Yes		-17.671201814059				ISIRate	Gain
35.0	2	117.184	0.023	675.667	-2.0	-1.0	28.0524	3.0	70.0	2.22	Outcome2	13.1	-2.0	0.0	No	2.0	-15.0975056689342	0.984	118.168		GetAnswer	Loss
35.0	2	118.183	0.015	676.666	-2.0	-1.0	28.0524	4.0	70.0	2.22	Outcome2	13.1	-2.0	0.0	No		-15.0975056689342				ShowChoice	Loss
35.0	2	122.198	0.015	680.681	-2.0	-1.0	28.0524	1.0	70.0	2.22	Outcome2	13.1	-2.0	0.0	No		-15.0975056689342				ShowResult	Loss
35.0	2	123.215	0.017	681.698	-2.0	-1.0	28.0524	2.098	70.0	2.22	Outcome2	13.1	-2.0	0.0	No		-15.0975056689342				ISITrial	Loss
36.0	2	125.331	0.018	683.814	-5.0	-5.0	27.4274	3.0	70.0	0.4	Certain	-12.8	2.9	3335.75	Yes	4.0	-15.6984126984127	1.67	127.001		GetAnswer	Mixed
36.0	2	127.013	0.012	685.496	-5.0	-5.0	27.4274	4.0	70.0	0.4	Certain	-12.8	2.9	3335.75	Yes		-15.6984126984127				ShowChoice	Mixed
36.0	2	131.029	0.016	689.512	-5.0	-5.0	27.4274	1.0	70.0	0.4	Certain	-12.8	2.9	3335.75	Yes		-15.6984126984127				ShowResult	Mixed
36.0	2	132.045	0.016	690.528	-5.0	-5.0	27.4274	5.156	70.0	0.4	Certain	-12.8	2.9	3335.75	Yes		-15.6984126984127				ISITrial	Mixed
36.0	2	140.592	0.029	699.075	-5.0	-5.0	27.4274	3.896	70.0	0.4	Certain	-12.8	2.9	3335.75	Yes		-15.6984126984127			616.0	TrialHappiness	Mixed
36.0	2	144.607	4.015	703.09	-5.0	-5.0	27.4274	5.343	70.0	0.4	Certain	-12.8	2.9	3335.75	Yes		-15.6984126984127				ISIRate	Mixed
37.0	2	149.972	0.022	708.455	0.0	0.0	27.4274	3.0	70.0	5.0	Certain	8.3	-8.27	0.0	No	4.0	-16.571428571428598	1.271	151.243		GetAnswer	Gain
37.0	2	151.255	0.012	709.738	0.0	0.0	27.4274	4.0	70.0	5.0	Certain	8.3	-8.27	0.0	No		-16.571428571428598				ShowChoice	Gain
37.0	2	155.27	0.015	713.753	0.0	0.0	27.4274	1.0	70.0	5.0	Certain	8.3	-8.27	0.0	No		-16.571428571428598				ShowResult	Gain
37.0	2	156.286	0.016	714.769	0.0	0.0	27.4274	3.598	70.0	5.0	Certain	8.3	-8.27	0.0	No		-16.571428571428598				ISITrial	Gain
38.0	2	159.902	0.018	718.385	0.92	0.0	27.5424	3.0	70.0	1.0	Outcome2	-1.96	0.92	0.0	No	2.0	2.87698412698413	1.392	161.294		GetAnswer	Mixed
38.0	2	161.318	0.024	719.801	0.92	0.0	27.5424	4.0	70.0	1.0	Outcome2	-1.96	0.92	0.0	No		2.87698412698413				ShowChoice	Mixed
38.0	2	165.333	0.015	723.816	0.92	0.0	27.5424	1.0	70.0	1.0	Outcome2	-1.96	0.92	0.0	No		2.87698412698413				ShowResult	Mixed
38.0	2	166.35	0.017	724.833	0.92	0.0	27.5424	4.787	70.0	1.0	Outcome2	-1.96	0.92	0.0	No		2.87698412698413				ISITrial	Mixed
39.0	2	171.165	0.028	729.648	-7.31	1.0	26.6286	3.0	70.0	1.68	Outcome2	10.5	-7.31	2864.25	Yes	2.0	-17.809523809523803	1.191	172.356		GetAnswer	Loss
39.0	2	172.381	0.025	730.864	-7.31	1.0	26.6286	4.0	70.0	1.68	Outcome2	10.5	-7.31	2864.25	Yes		-17.809523809523803				ShowChoice	Loss
39.0	2	176.396	0.015	734.879	-7.31	1.0	26.6286	1.0	70.0	1.68	Outcome2	10.5	-7.31	2864.25	Yes		-17.809523809523803				ShowResult	Loss
39.0	2	177.412	0.016	735.895	-7.31	1.0	26.6286	2.348	70.0	1.68	Outcome2	10.5	-7.31	2864.25	Yes		-17.809523809523803				ISITrial	Loss
39.0	2	182.661	0.019	741.144	-7.31	1.0	26.6286	0.856	70.0	1.68	Outcome2	10.5	-7.31	2864.25	Yes		-17.809523809523803			440.0	TrialHappiness	Loss
39.0	2	186.676	4.015	745.159	-7.31	1.0	26.6286	3.457	70.0	1.68	Outcome2	10.5	-7.31	2864.25	Yes		-17.809523809523803				ISIRate	Loss
40.0	2	190.158	0.025	748.641	1.18	0.0	26.7761	3.0	70.0	1.82	Outcome2	-1.09	1.18	0.0	No	2.0	2.2651171579743	1.295	191.453		GetAnswer	Gain
40.0	2	191.474	0.021	749.957	1.18	0.0	26.7761	4.0	70.0	1.82	Outcome2	-1.09	1.18	0.0	No		2.2651171579743				ShowChoice	Gain
40.0	2	195.489	0.015	753.972	1.18	0.0	26.7761	1.0	70.0	1.82	Outcome2	-1.09	1.18	0.0	No		2.2651171579743				ShowResult	Gain
40.0	2	196.506	0.017	754.989	1.18	0.0	26.7761	3.158	70.0	1.82	Outcome2	-1.09	1.18	0.0	No		2.2651171579743				ISITrial	Gain
41.0	2	199.688	0.024	758.171	-2.0	-2.0	26.5261	3.0	70.0	3.6	Certain	5.9	-9.95	4000.0	Yes	4.0	-15.854875283446699	1.353	201.041		GetAnswer	Gain
41.0	2	201.054	0.013	759.537	-2.0	-2.0	26.5261	4.0	70.0	3.6	Certain	5.9	-9.95	4000.0	Yes		-15.854875283446699				ShowChoice	Gain
41.0	2	205.069	0.015	763.552	-2.0	-2.0	26.5261	1.0	70.0	3.6	Certain	5.9	-9.95	4000.0	Yes		-15.854875283446699				ShowResult	Gain
41.0	2	206.086	0.017	764.569	-2.0	-2.0	26.5261	4.506	70.0	3.6	Certain	5.9	-9.95	4000.0	Yes		-15.854875283446699				ISITrial	Gain
41.0	2	214.633	0.016	773.116	-2.0	-2.0	26.5261	3.492	70.0	3.6	Certain	5.9	-9.95	4000.0	Yes		-15.854875283446699			384.0	TrialHappiness	Gain
41.0	2	218.648	4.015	777.131	-2.0	-2.0	26.5261	8.0	70.0	3.6	Certain	5.9	-9.95	4000.0	Yes		-15.854875283446699				ISIRate	Gain
42.0	2	226.678	0.03	785.161	-9.0	-9.0	25.4011	3.0	70.0	0.3	Certain	-1.3	-16.62	0.0	No	4.0	-15.3219954648526	1.154	227.832		GetAnswer	Mixed
42.0	2	227.845	0.013	786.328	-9.0	-9.0	25.4011	4.0	70.0	0.3	Certain	-1.3	-16.62	0.0	No		-15.3219954648526				ShowChoice	Mixed
42.0	2	231.86	0.015	790.343	-9.0	-9.0	25.4011	1.0	70.0	0.3	Certain	-1.3	-16.62	0.0	No		-15.3219954648526				ShowResult	Mixed
42.0	2	232.876	0.016	791.359	-9.0	-9.0	25.4011	6.248	70.0	0.3	Certain	-1.3	-16.62	0.0	No		-15.3219954648526				ISITrial	Mixed
43.0	2	239.141	0.017	797.624	-10.58	-2.0	24.0786	3.0	70.0	2.22	Outcome1	-10.58	5.1	2775.75	Yes	2.0	-15.6780045351474	1.233	240.374		GetAnswer	Gain
43.0	2	240.39	0.016	798.873	-10.58	-2.0	24.0786	4.0	70.0	2.22	Outcome1	-10.58	5.1	2775.75	Yes		-15.6780045351474				ShowChoice	Gain
43.0	2	244.405	0.015	802.888	-10.58	-2.0	24.0786	1.0	70.0	2.22	Outcome1	-10.58	5.1	2775.75	Yes		-15.6780045351474				ShowResult	Gain
43.0	2	245.422	0.017	803.905	-10.58	-2.0	24.0786	4.596	70.0	2.22	Outcome1	-10.58	5.1	2775.75	Yes		-15.6780045351474				ISITrial	Gain
43.0	2	252.836	0.023	811.319	-10.58	-2.0	24.0786	3.179	70.0	2.22	Outcome1	-10.58	5.1	2775.75	Yes		-15.6780045351474			204.0	TrialHappiness	Gain
43.0	2	256.851	4.015	815.334	-10.58	-2.0	24.0786	3.103	70.0	2.22	Outcome1	-10.58	5.1	2775.75	Yes		-15.6780045351474				ISIRate	Gain
44.0	2	259.983	0.029	818.466	-6.0	-6.0	23.3286	3.0	70.0	0.3	Certain	0.7	-12.27	0.0	No	4.0	-12.9727891156463	1.57	261.553		GetAnswer	Mixed
44.0	2	261.566	0.013	820.049	-6.0	-6.0	23.3286	4.0	70.0	0.3	Certain	0.7	-12.27	0.0	No		-12.9727891156463				ShowChoice	Mixed
44.0	2	265.581	0.015	824.064	-6.0	-6.0	23.3286	1.0	70.0	0.3	Certain	0.7	-12.27	0.0	No		-12.9727891156463				ShowResult	Mixed
44.0	2	266.598	0.017	825.081	-6.0	-6.0	23.3286	2.42	70.0	0.3	Certain	0.7	-12.27	0.0	No		-12.9727891156463				ISITrial	Mixed
45.0	2	269.047	0.029	827.53	-1.0	-1.0	23.2036	3.0	70.0	0.82	Certain	-1.57	-0.12	0.0	No	4.0	1.44822373393802	1.339	270.386		GetAnswer	Mixed
45.0	2	270.413	0.027	828.896	-1.0	-1.0	23.2036	4.0	70.0	0.82	Certain	-1.57	-0.12	0.0	No		1.44822373393802				ShowChoice	Mixed
45.0	2	274.428	0.015	832.911	-1.0	-1.0	23.2036	1.0	70.0	0.82	Certain	-1.57	-0.12	0.0	No		1.44822373393802				ShowResult	Mixed
45.0	2	275.444	0.016	833.927	-1.0	-1.0	23.2036	3.144	70.0	0.82	Certain	-1.57	-0.12	0.0	No		1.44822373393802				ISITrial	Mixed
46.0	2	278.61	0.022	837.093	0.0	0.0	23.2036	3.0	70.0	0.2	Certain	-0.84	0.62	3841.25	Yes	4.0	1.4608843537415002	1.48	280.09		GetAnswer	Mixed
46.0	2	280.11	0.02	838.593	0.0	0.0	23.2036	4.0	70.0	0.2	Certain	-0.84	0.62	3841.25	Yes		1.4608843537415002				ShowChoice	Mixed
46.0	2	284.125	0.015	842.608	0.0	0.0	23.2036	1.0	70.0	0.2	Certain	-0.84	0.62	3841.25	Yes		1.4608843537415002				ShowResult	Mixed
46.0	2	285.141	0.016	843.624	0.0	0.0	23.2036	2.246	70.0	0.2	Certain	-0.84	0.62	3841.25	Yes		1.4608843537415002				ISITrial	Mixed
46.0	2	291.272	0.024	849.755	0.0	0.0	23.2036	3.117	70.0	0.2	Certain	-0.84	0.62	3841.25	Yes	4{-4}4{-4}4{-4}2{-2}	1.4608843537415002	3.117	294.389	332.0	TrialHappiness	Mixed
46.0	2	295.288	4.016	853.771	0.0	0.0	23.2036	7.365	70.0	0.2	Certain	-0.84	0.62	3841.25	Yes		1.4608843537415002				ISIRate	Mixed
47.0	2	302.668	0.015	861.151	-6.0	-6.0	22.4536	3.0	70.0	0.52	Certain	-14.51	1.1	0.0	No	4.0	-15.6054421768707	1.405	304.073		GetAnswer	Mixed
47.0	2	304.084	0.011	862.567	-6.0	-6.0	22.4536	4.0	70.0	0.52	Certain	-14.51	1.1	0.0	No		-15.6054421768707				ShowChoice	Mixed
47.0	2	308.1	0.016	866.583	-6.0	-6.0	22.4536	1.0	70.0	0.52	Certain	-14.51	1.1	0.0	No		-15.6054421768707				ShowResult	Mixed
47.0	2	309.116	0.016	867.599	-6.0	-6.0	22.4536	2.0	70.0	0.52	Certain	-14.51	1.1	0.0	No		-15.6054421768707				ISITrial	Mixed
48.0	2	311.132	0.016	869.615	-5.6	2.0	21.7536	3.0	70.0	5.0	Outcome1	-5.6	10.3	2831.75	Yes	2.0	-15.9024943310658	1.258	312.39		GetAnswer	Gain
48.0	2	312.415	0.025	870.898	-5.6	2.0	21.7536	4.0	70.0	5.0	Outcome1	-5.6	10.3	2831.75	Yes		-15.9024943310658				ShowChoice	Gain
48.0	2	316.43	0.015	874.913	-5.6	2.0	21.7536	1.0	70.0	5.0	Outcome1	-5.6	10.3	2831.75	Yes		-15.9024943310658				ShowResult	Gain
48.0	2	317.446	0.016	875.929	-5.6	2.0	21.7536	3.692	70.0	5.0	Outcome1	-5.6	10.3	2831.75	Yes		-15.9024943310658				ISITrial	Gain
48.0	2	324.011	0.017	882.494	-5.6	2.0	21.7536	3.258	70.0	5.0	Outcome1	-5.6	10.3	2831.75	Yes		-15.9024943310658			148.0	TrialHappiness	Gain
48.0	2	328.026	4.015	886.509	-5.6	2.0	21.7536	3.327	70.0	5.0	Outcome1	-5.6	10.3	2831.75	Yes		-15.9024943310658				ISIRate	Gain
49.0	2	331.375	0.022	889.858	-6.57	0.0	20.9324	3.0	70.0	1.68	Outcome1	-6.57	6.5	0.0	No	2.0	-13.0702947845805	1.405	332.78		GetAnswer	Gain
49.0	2	332.791	0.011	891.274	-6.57	0.0	20.9324	4.0	70.0	1.68	Outcome1	-6.57	6.5	0.0	No		-13.0702947845805				ShowChoice	Gain
49.0	2	336.806	0.015	895.289	-6.57	0.0	20.9324	1.0	70.0	1.68	Outcome1	-6.57	6.5	0.0	No		-13.0702947845805				ShowResult	Gain
49.0	2	337.823	0.017	896.306	-6.57	0.0	20.9324	8.0	70.0	1.68	Outcome1	-6.57	6.5	0.0	No		-13.0702947845805				ISITrial	Gain
50.0	2	345.853	0.03	904.336	1.12	0.0	21.0724	3.0	70.0	1.68	Outcome2	-0.18	1.12	3547.25	Yes	2.0	1.30291005291005	1.233	347.086		GetAnswer	Gain
50.0	2	347.103	0.017	905.586	1.12	0.0	21.0724	4.0	70.0	1.68	Outcome2	-0.18	1.12	3547.25	Yes		1.30291005291005				ShowChoice	Gain
50.0	2	351.118	0.015	909.601	1.12	0.0	21.0724	1.0	70.0	1.68	Outcome2	-0.18	1.12	3547.25	Yes		1.30291005291005				ShowResult	Gain
50.0	2	352.134	0.016	910.617	1.12	0.0	21.0724	7.537	70.0	1.68	Outcome2	-0.18	1.12	3547.25	Yes		1.30291005291005				ISITrial	Gain
50.0	2	363.247	0.019	921.73	1.12	0.0	21.0724	3.683	70.0	1.68	Outcome2	-0.18	1.12	3547.25	Yes		1.30291005291005			300.0	TrialHappiness	Gain
50.0	2	367.262	4.015	925.745	1.12	0.0	21.0724	6.189	70.0	1.68	Outcome2	-0.18	1.12	3547.25	Yes		1.30291005291005				ISIRate	Gain
51.0	2	373.477	0.026	931.96	-6.13	2.0	20.3062	3.0	70.0	3.16	Outcome1	-6.13	9.7	0.0	No	2.0	-15.8321995464853	1.073	374.55		GetAnswer	Gain
51.0	2	374.576	0.026	933.059	-6.13	2.0	20.3062	4.0	70.0	3.16	Outcome1	-6.13	9.7	0.0	No		-15.8321995464853				ShowChoice	Gain
51.0	2	378.591	0.015	937.074	-6.13	2.0	20.3062	1.0	70.0	3.16	Outcome1	-6.13	9.7	0.0	No		-15.8321995464853				ShowResult	Gain
51.0	2	379.608	0.017	938.091	-6.13	2.0	20.3062	5.508	70.0	3.16	Outcome1	-6.13	9.7	0.0	No		-15.8321995464853				ISITrial	Gain
52.0	2	385.139	0.023	943.622	2.17	1.0	20.5774	3.0	70.0	1.82	Outcome2	0.22	2.17	0.0	No	2.0	1.94954648526077	1.06	386.199		GetAnswer	Gain
52.0	2	386.222	0.023	944.705	2.17	1.0	20.5774	4.0	70.0	1.82	Outcome2	0.22	2.17	0.0	No		1.94954648526077				ShowChoice	Gain
52.0	2	390.237	0.015	948.72	2.17	1.0	20.5774	1.0	70.0	1.82	Outcome2	0.22	2.17	0.0	No		1.94954648526077				ShowResult	Gain
52.0	2	391.254	0.017	949.737	2.17	1.0	20.5774	5.913	70.0	1.82	Outcome2	0.22	2.17	0.0	No		1.94954648526077				ISITrial	Gain
53.0	2	397.185	0.018	955.668	-4.0	-4.0	20.0774	3.0	70.0	2.0	Certain	-12.05	4.3	2996.75	Yes	4.0	-16.353741496598598	1.538	398.723		GetAnswer	Mixed
53.0	2	398.734	0.011	957.217	-4.0	-4.0	20.0774	4.0	70.0	2.0	Certain	-12.05	4.3	2996.75	Yes		-16.353741496598598				ShowChoice	Mixed
53.0	2	402.75	0.016	961.233	-4.0	-4.0	20.0774	1.0	70.0	2.0	Certain	-12.05	4.3	2996.75	Yes		-16.353741496598598				ShowResult	Mixed
53.0	2	403.766	0.016	962.249	-4.0	-4.0	20.0774	3.66	70.0	2.0	Certain	-12.05	4.3	2996.75	Yes		-16.353741496598598				ISITrial	Mixed
53.0	2	410.464	0.019	968.947	-4.0	-4.0	20.0774	2.739	70.0	2.0	Certain	-12.05	4.3	2996.75	Yes		-16.353741496598598			472.0	TrialHappiness	Mixed
53.0	2	414.479	4.015	972.962	-4.0	-4.0	20.0774	3.987	70.0	2.0	Certain	-12.05	4.3	2996.75	Yes		-16.353741496598598				ISIRate	Mixed
54.0	2	418.494	0.028	976.977	2.92	1.0	20.4424	3.0	70.0	3.16	Outcome1	2.92	0.23	0.0	No	2.0	2.6917989417989396	1.119	419.613		GetAnswer	Loss
54.0	2	419.627	0.014	978.11	2.92	1.0	20.4424	4.0	70.0	3.16	Outcome1	2.92	0.23	0.0	No		2.6917989417989396				ShowChoice	Loss
54.0	2	423.642	0.015	982.125	2.92	1.0	20.4424	1.0	70.0	3.16	Outcome1	2.92	0.23	0.0	No		2.6917989417989396				ShowResult	Loss
54.0	2	424.659	0.017	983.142	2.92	1.0	20.4424	8.0	70.0	3.16	Outcome1	2.92	0.23	0.0	No		2.6917989417989396				ISITrial	Loss
	2	432.689	0.03	991.172				-0.001								2.0		4.37	437.059		Rest	
	2	437.071	0.012	995.554				4.0													BlockHappyPreview	
	2	441.086	0.015	999.569				0.645												504.0	BlockStartHappiness	
	2	498.733	0.021	1057.216				-0.001								5.0		7.391	506.124		ScanWait	
	3	0.023	0.023	1064.63				10.0													GetReady	
55.0	3	10.036	0.013	1074.643	-0.33	0.0	20.4012	3.0	955.0	0.82	Outcome1	-0.33	1.5	2533.25	Yes	2.0	-1.8302189505473798	1.176	11.212		GetAnswer	Mixed
55.0	3	11.235	0.023	1075.842	-0.33	0.0	20.4012	4.0	955.0	0.82	Outcome1	-0.33	1.5	2533.25	Yes		-1.8302189505473798				ShowChoice	Mixed
55.0	3	15.251	0.016	1079.858	-0.33	0.0	20.4012	1.0	955.0	0.82	Outcome1	-0.33	1.5	2533.25	Yes		-1.8302189505473798				ShowResult	Mixed
55.0	3	16.267	0.016	1080.874	-0.33	0.0	20.4012	7.709	955.0	0.82	Outcome1	-0.33	1.5	2533.25	Yes		-1.8302189505473798				ISITrial	Mixed
55.0	3	26.547	0.017	1091.154	-0.33	0.0	20.4012	3.884	955.0	0.82	Outcome1	-0.33	1.5	2533.25	Yes		-1.8302189505473798			320.0	TrialHappiness	Mixed
55.0	3	30.562	4.015	1095.169	-0.33	0.0	20.4012	2.133	955.0	0.82	Outcome1	-0.33	1.5	2533.25	Yes		-1.8302189505473798				ISIRate	Mixed
56.0	3	32.711	0.016	1097.318	-2.0	-2.0	20.1512	3.0	955.0	0.66	Certain	-8.0	3.3	0.0	No	4.0	11.2978482446206	1.307	34.018		GetAnswer	Mixed
56.0	3	34.044	0.026	1098.651	-2.0	-2.0	20.1512	4.0	955.0	0.66	Certain	-8.0	3.3	0.0	No		11.2978482446206				ShowChoice	Mixed
56.0	3	38.059	0.015	1102.666	-2.0	-2.0	20.1512	1.0	955.0	0.66	Certain	-8.0	3.3	0.0	No		11.2978482446206				ShowResult	Mixed
56.0	3	39.075	0.016	1103.682	-2.0	-2.0	20.1512	4.697	955.0	0.66	Certain	-8.0	3.3	0.0	No		11.2978482446206				ISITrial	Mixed
57.0	3	43.79	0.018	1108.397	8.22	4.11	21.1787	3.0	955.0	2.0	Outcome2	10.9	8.22	0.0	No	2.0	-2.6794073235183102	0.961	44.751		GetAnswer	Loss
57.0	3	44.773	0.022	1109.38	8.22	4.11	21.1787	4.0	955.0	2.0	Outcome2	10.9	8.22	0.0	No		-2.6794073235183102				ShowChoice	Loss
57.0	3	48.789	0.016	1113.396	8.22	4.11	21.1787	1.0	955.0	2.0	Outcome2	10.9	8.22	0.0	No		-2.6794073235183102				ShowResult	Loss
57.0	3	49.805	0.016	1114.412	8.22	4.11	21.1787	4.291	955.0	2.0	Outcome2	10.9	8.22	0.0	No		-2.6794073235183102				ISITrial	Loss
58.0	3	54.12	0.024	1118.727	-7.0	-7.0	20.3037	3.0	955.0	0.52	Certain	-0.9	-13.64	3045.75	Yes	4.0	12.7361268403171	1.349	55.469		GetAnswer	Mixed
58.0	3	55.486	0.017	1120.093	-7.0	-7.0	20.3037	4.0	955.0	0.52	Certain	-0.9	-13.64	3045.75	Yes		12.7361268403171				ShowChoice	Mixed
58.0	3	59.502	0.016	1124.109	-7.0	-7.0	20.3037	1.0	955.0	0.52	Certain	-0.9	-13.64	3045.75	Yes		12.7361268403171				ShowResult	Mixed
58.0	3	60.518	0.016	1125.125	-7.0	-7.0	20.3037	2.037	955.0	0.52	Certain	-0.9	-13.64	3045.75	Yes		12.7361268403171				ISITrial	Mixed
58.0	3	65.633	0.02	1130.24	-7.0	-7.0	20.3037	1.206	955.0	0.52	Certain	-0.9	-13.64	3045.75	Yes		12.7361268403171			344.0	TrialHappiness	Mixed
58.0	3	69.648	4.015	1134.255	-7.0	-7.0	20.3037	4.183	955.0	0.52	Certain	-0.9	-13.64	3045.75	Yes		12.7361268403171				ISIRate	Mixed
59.0	3	73.847	0.016	1138.454	4.9	-1.0	20.9162	3.0	955.0	2.0	Outcome1	4.9	-8.15	0.0	No	2.0	13.047565118912802	1.117	74.964		GetAnswer	Gain
59.0	3	74.979	0.015	1139.586	4.9	-1.0	20.9162	4.0	955.0	2.0	Outcome1	4.9	-8.15	0.0	No		13.047565118912802				ShowChoice	Gain
59.0	3	78.995	0.016	1143.602	4.9	-1.0	20.9162	1.0	955.0	2.0	Outcome1	4.9	-8.15	0.0	No		13.047565118912802				ShowResult	Gain
59.0	3	80.011	0.016	1144.618	4.9	-1.0	20.9162	5.064	955.0	2.0	Outcome1	4.9	-8.15	0.0	No		13.047565118912802				ISITrial	Gain
60.0	3	85.093	0.018	1149.7	-5.0	-5.0	20.2912	3.0	955.0	0.66	Certain	-12.44	1.3	3562.5	Yes	4.0	13.7395243488109	1.466	86.559		GetAnswer	Mixed
60.0	3	86.575	0.016	1151.182	-5.0	-5.0	20.2912	4.0	955.0	0.66	Certain	-12.44	1.3	3562.5	Yes		13.7395243488109				ShowChoice	Mixed
60.0	3	90.591	0.016	1155.198	-5.0	-5.0	20.2912	1.0	955.0	0.66	Certain	-12.44	1.3	3562.5	Yes		13.7395243488109				ShowResult	Mixed
60.0	3	91.607	0.016	1156.214	-5.0	-5.0	20.2912	8.0	955.0	0.66	Certain	-12.44	1.3	3562.5	Yes		13.7395243488109				ISITrial	Mixed
60.0	3	103.203	0.02	1167.81	-5.0	-5.0	20.2912	2.549	955.0	0.66	Certain	-12.44	1.3	3562.5	Yes		13.7395243488109			348.0	TrialHappiness	Mixed
60.0	3	107.218	4.015	1171.825	-5.0	-5.0	20.2912	6.25	955.0	0.66	Certain	-12.44	1.3	3562.5	Yes		13.7395243488109				ISIRate	Mixed
61.0	3	113.499	0.031	1178.106	7.9	3.95	21.2787	3.0	955.0	1.82	Outcome2	10.7	7.9	0.0	No	2.0	-2.8009626274065695	0.815	114.314		GetAnswer	Loss
61.0	3	114.332	0.018	1178.939	7.9	3.95	21.2787	4.0	955.0	1.82	Outcome2	10.7	7.9	0.0	No		-2.8009626274065695				ShowChoice	Loss
61.0	3	118.348	0.016	1182.955	7.9	3.95	21.2787	1.0	955.0	1.82	Outcome2	10.7	7.9	0.0	No		-2.8009626274065695				ShowResult	Loss
61.0	3	119.364	0.016	1183.971	7.9	3.95	21.2787	4.586	955.0	1.82	Outcome2	10.7	7.9	0.0	No		-2.8009626274065695				ISITrial	Loss
62.0	3	123.979	0.029	1188.586	11.3	-1.88	22.6912	3.0	955.0	2.48	Outcome1	11.3	-3.75	3748.75	Yes	2.0	15.0509626274066	1.182	125.161		GetAnswer	Loss
62.0	3	125.178	0.017	1189.785	11.3	-1.88	22.6912	4.0	955.0	2.48	Outcome1	11.3	-3.75	3748.75	Yes		15.0509626274066				ShowChoice	Loss
62.0	3	129.194	0.016	1193.801	11.3	-1.88	22.6912	1.0	955.0	2.48	Outcome1	11.3	-3.75	3748.75	Yes		15.0509626274066				ShowResult	Loss
62.0	3	130.21	0.016	1194.817	11.3	-1.88	22.6912	5.212	955.0	2.48	Outcome1	11.3	-3.75	3748.75	Yes		15.0509626274066				ISITrial	Loss
62.0	3	139.207	0.016	1203.814	11.3	-1.88	22.6912	3.983	955.0	2.48	Outcome1	11.3	-3.75	3748.75	Yes		15.0509626274066			372.0	TrialHappiness	Loss
62.0	3	143.222	4.015	1207.829	11.3	-1.88	22.6912	6.995	955.0	2.48	Outcome1	11.3	-3.75	3748.75	Yes		15.0509626274066				ISIRate	Loss
63.0	3	150.236	0.019	1214.843	-1.0	-1.0	22.5662	3.0	955.0	4.2	Certain	-9.23	6.1	0.0	No	4.0	15.3306908267271	1.167	151.403		GetAnswer	Gain
63.0	3	151.419	0.016	1216.026	-1.0	-1.0	22.5662	4.0	955.0	4.2	Certain	-9.23	6.1	0.0	No		15.3306908267271				ShowChoice	Gain
63.0	3	155.434	0.015	1220.041	-1.0	-1.0	22.5662	1.0	955.0	4.2	Certain	-9.23	6.1	0.0	No		15.3306908267271				ShowResult	Gain
63.0	3	156.451	0.017	1221.058	-1.0	-1.0	22.5662	5.595	955.0	4.2	Certain	-9.23	6.1	0.0	No		15.3306908267271				ISITrial	Gain
64.0	3	162.065	0.019	1226.672	11.1	-2.44	23.9537	3.0	955.0	2.22	Outcome2	-4.89	11.1	0.0	No	2.0	15.990939977349901	1.147	163.212		GetAnswer	Loss
64.0	3	163.232	0.02	1227.839	11.1	-2.44	23.9537	4.0	955.0	2.22	Outcome2	-4.89	11.1	0.0	No		15.990939977349901				ShowChoice	Loss
64.0	3	167.247	0.015	1231.854	11.1	-2.44	23.9537	1.0	955.0	2.22	Outcome2	-4.89	11.1	0.0	No		15.990939977349901				ShowResult	Loss
64.0	3	168.263	0.016	1232.87	11.1	-2.44	23.9537	5.47	955.0	2.22	Outcome2	-4.89	11.1	0.0	No		15.990939977349901				ISITrial	Loss
65.0	3	173.761	0.028	1238.368	-6.0	-6.0	23.2037	3.0	955.0	1.2	Certain	-14.75	1.9	2996.75	Yes	4.0	16.6511891279728	1.347	175.108		GetAnswer	Mixed
65.0	3	175.128	0.02	1239.735	-6.0	-6.0	23.2037	4.0	955.0	1.2	Certain	-14.75	1.9	2996.75	Yes		16.6511891279728				ShowChoice	Mixed
65.0	3	179.143	0.015	1243.75	-6.0	-6.0	23.2037	1.0	955.0	1.2	Certain	-14.75	1.9	2996.75	Yes		16.6511891279728				ShowResult	Mixed
65.0	3	180.159	0.016	1244.766	-6.0	-6.0	23.2037	3.344	955.0	1.2	Certain	-14.75	1.9	2996.75	Yes		16.6511891279728				ISITrial	Mixed
65.0	3	186.54	0.018	1251.147	-6.0	-6.0	23.2037	3.82	955.0	1.2	Certain	-14.75	1.9	2996.75	Yes		16.6511891279728			512.0	TrialHappiness	Mixed
65.0	3	190.555	4.015	1255.162	-6.0	-6.0	23.2037	3.987	955.0	1.2	Certain	-14.75	1.9	2996.75	Yes		16.6511891279728				ISIRate	Mixed
66.0	3	194.571	0.029	1259.178	-1.52	0.0	23.0137	3.0	955.0	0.4	Outcome2	0.9	-1.52	0.0	No	2.0	-2.41506228765572	1.287	195.858		GetAnswer	Mixed
66.0	3	195.87	0.012	1260.477	-1.52	0.0	23.0137	4.0	955.0	0.4	Outcome2	0.9	-1.52	0.0	No		-2.41506228765572				ShowChoice	Mixed
66.0	3	199.885	0.015	1264.492	-1.52	0.0	23.0137	1.0	955.0	0.4	Outcome2	0.9	-1.52	0.0	No		-2.41506228765572				ShowResult	Mixed
66.0	3	200.902	0.017	1265.509	-1.52	0.0	23.0137	3.959	955.0	0.4	Outcome2	0.9	-1.52	0.0	No		-2.41506228765572				ISITrial	Mixed
67.0	3	204.884	0.023	1269.491	3.5	-4.0	23.4512	3.0	955.0	0.82	Outcome2	-11.93	3.5	2918.5	Yes	2.0	15.4348810872027	1.435	206.319		GetAnswer	Mixed
67.0	3	206.333	0.014	1270.94	3.5	-4.0	23.4512	4.0	955.0	0.82	Outcome2	-11.93	3.5	2918.5	Yes		15.4348810872027				ShowChoice	Mixed
67.0	3	210.348	0.015	1274.955	3.5	-4.0	23.4512	1.0	955.0	0.82	Outcome2	-11.93	3.5	2918.5	Yes		15.4348810872027				ShowResult	Mixed
67.0	3	211.365	0.017	1275.972	3.5	-4.0	23.4512	4.199	955.0	0.82	Outcome2	-11.93	3.5	2918.5	Yes		15.4348810872027				ISITrial	Mixed
67.0	3	218.512	0.014	1283.119	3.5	-4.0	23.4512	3.011	955.0	0.82	Outcome2	-11.93	3.5	2918.5	Yes		15.4348810872027			464.0	TrialHappiness	Mixed
67.0	3	222.528	4.016	1287.135	3.5	-4.0	23.4512	3.674	955.0	0.82	Outcome2	-11.93	3.5	2918.5	Yes		15.4348810872027				ISIRate	Mixed
68.0	3	226.226	0.024	1290.833	-1.0	-1.0	23.3262	3.0	955.0	1.82	Certain	6.7	-10.05	0.0	No	4.0	16.7519818799547	1.353	227.579		GetAnswer	Gain
68.0	3	227.592	0.013	1292.199	-1.0	-1.0	23.3262	4.0	955.0	1.82	Certain	6.7	-10.05	0.0	No		16.7519818799547				ShowChoice	Gain
68.0	3	231.608	0.016	1296.215	-1.0	-1.0	23.3262	1.0	955.0	1.82	Certain	6.7	-10.05	0.0	No		16.7519818799547				ShowResult	Gain
68.0	3	232.624	0.016	1297.231	-1.0	-1.0	23.3262	2.185	955.0	1.82	Certain	6.7	-10.05	0.0	No		16.7519818799547				ISITrial	Gain
69.0	3	234.84	0.031	1299.447	1.0	1.0	23.4512	3.0	955.0	2.8	Certain	9.5	-7.81	0.0	No	4.0	17.3080407701019	1.159	235.999		GetAnswer	Gain
69.0	3	236.023	0.024	1300.63	1.0	1.0	23.4512	4.0	955.0	2.8	Certain	9.5	-7.81	0.0	No		17.3080407701019				ShowChoice	Gain
69.0	3	240.038	0.015	1304.645	1.0	1.0	23.4512	1.0	955.0	2.8	Certain	9.5	-7.81	0.0	No		17.3080407701019				ShowResult	Gain
69.0	3	241.054	0.016	1305.661	1.0	1.0	23.4512	2.0	955.0	2.8	Certain	9.5	-7.81	0.0	No		17.3080407701019				ISITrial	Gain
70.0	3	243.07	0.016	1307.677	-1.5	-10.0	23.2637	3.0	955.0	0.2	Outcome1	-1.5	-19.36	3651.25	Yes	2.0	17.864099660249103	1.773	244.843		GetAnswer	Mixed
70.0	3	244.87	0.027	1309.477	-1.5	-10.0	23.2637	4.0	955.0	0.2	Outcome1	-1.5	-19.36	3651.25	Yes		17.864099660249103				ShowChoice	Mixed
70.0	3	248.885	0.015	1313.492	-1.5	-10.0	23.2637	1.0	955.0	0.2	Outcome1	-1.5	-19.36	3651.25	Yes		17.864099660249103				ShowResult	Mixed
70.0	3	249.901	0.016	1314.508	-1.5	-10.0	23.2637	2.623	955.0	0.2	Outcome1	-1.5	-19.36	3651.25	Yes		17.864099660249103				ISITrial	Mixed
70.0	3	256.232	0.031	1320.839	-1.5	-10.0	23.2637	2.953	955.0	0.2	Outcome1	-1.5	-19.36	3651.25	Yes		17.864099660249103			572.0	TrialHappiness	Mixed
70.0	3	260.248	4.016	1324.855	-1.5	-10.0	23.2637	6.605	955.0	0.2	Outcome1	-1.5	-19.36	3651.25	Yes		17.864099660249103				ISIRate	Mixed
71.0	3	266.879	0.026	1331.486	10.91	5.46	24.6275	3.0	955.0	2.48	Outcome2	13.3	10.91	0.0	No	2.0	-2.3942053605134	1.201	268.08		GetAnswer	Loss
71.0	3	268.095	0.015	1332.702	10.91	5.46	24.6275	4.0	955.0	2.48	Outcome2	13.3	10.91	0.0	No		-2.3942053605134				ShowChoice	Loss
71.0	3	272.11	0.015	1336.717	10.91	5.46	24.6275	1.0	955.0	2.48	Outcome2	13.3	10.91	0.0	No		-2.3942053605134				ShowResult	Loss
71.0	3	273.126	0.016	1337.733	10.91	5.46	24.6275	5.499	955.0	2.48	Outcome2	13.3	10.91	0.0	No		-2.3942053605134				ISITrial	Loss
72.0	3	278.658	0.033	1343.265	7.7	-1.0	25.59	3.0	955.0	3.16	Outcome1	7.7	-9.32	3080.5	Yes	2.0	17.0192525481314	1.544	280.202		GetAnswer	Gain
72.0	3	280.224	0.022	1344.831	7.7	-1.0	25.59	4.0	955.0	3.16	Outcome1	7.7	-9.32	3080.5	Yes		17.0192525481314				ShowChoice	Gain
72.0	3	284.239	0.015	1348.846	7.7	-1.0	25.59	1.0	955.0	3.16	Outcome1	7.7	-9.32	3080.5	Yes		17.0192525481314				ShowResult	Gain
72.0	3	285.255	0.016	1349.862	7.7	-1.0	25.59	5.672	955.0	3.16	Outcome1	7.7	-9.32	3080.5	Yes		17.0192525481314				ISITrial	Gain
72.0	3	294.052	0.019	1358.659	7.7	-1.0	25.59	2.486	955.0	3.16	Outcome1	7.7	-9.32	3080.5	Yes		17.0192525481314			660.0	TrialHappiness	Gain
72.0	3	298.068	4.016	1362.675	7.7	-1.0	25.59	4.322	955.0	3.16	Outcome1	7.7	-9.32	3080.5	Yes		17.0192525481314				ISIRate	Gain
73.0	3	302.416	0.026	1367.023	-8.0	-8.0	24.59	3.0	955.0	0.66	Certain	-0.7	-16.66	0.0	No	4.0	15.958097395243499	1.924	304.34		GetAnswer	Mixed
73.0	3	304.365	0.025	1368.972	-8.0	-8.0	24.59	4.0	955.0	0.66	Certain	-0.7	-16.66	0.0	No		15.958097395243499				ShowChoice	Mixed
73.0	3	308.381	0.016	1372.988	-8.0	-8.0	24.59	1.0	955.0	0.66	Certain	-0.7	-16.66	0.0	No		15.958097395243499				ShowResult	Mixed
73.0	3	309.397	0.016	1374.004	-8.0	-8.0	24.59	4.616	955.0	0.66	Certain	-0.7	-16.66	0.0	No		15.958097395243499				ISITrial	Mixed
74.0	3	314.029	0.016	1378.636	7.16	3.58	25.485	3.0	955.0	2.48	Outcome2	9.3	7.16	3056.25	Yes	2.0	-2.13722159305398	1.007	315.036		GetAnswer	Gain
74.0	3	315.062	0.026	1379.669	7.16	3.58	25.485	4.0	955.0	2.48	Outcome2	9.3	7.16	3056.25	Yes		-2.13722159305398				ShowChoice	Gain
74.0	3	319.077	0.015	1383.684	7.16	3.58	25.485	1.0	955.0	2.48	Outcome2	9.3	7.16	3056.25	Yes		-2.13722159305398				ShowResult	Gain
74.0	3	320.093	0.016	1384.7	7.16	3.58	25.485	3.909	955.0	2.48	Outcome2	9.3	7.16	3056.25	Yes		-2.13722159305398				ISITrial	Gain
74.0	3	327.107	0.026	1391.714	7.16	3.58	25.485	2.045	955.0	2.48	Outcome2	9.3	7.16	3056.25	Yes		-2.13722159305398			420.0	TrialHappiness	Gain
74.0	3	331.123	4.016	1395.73	7.16	3.58	25.485	4.225	955.0	2.48	Outcome2	9.3	7.16	3056.25	Yes		-2.13722159305398				ISIRate	Gain
75.0	3	335.371	0.023	1399.978	2.0	2.0	25.735	3.0	955.0	1.68	Certain	-8.2	12.5	0.0	No	4.0	20.7032842582106	1.244	336.615		GetAnswer	Loss
75.0	3	336.637	0.022	1401.244	2.0	2.0	25.735	4.0	955.0	1.68	Certain	-8.2	12.5	0.0	No		20.7032842582106				ShowChoice	Loss
75.0	3	340.653	0.016	1405.26	2.0	2.0	25.735	1.0	955.0	1.68	Certain	-8.2	12.5	0.0	No		20.7032842582106				ShowResult	Loss
75.0	3	341.669	0.016	1406.276	2.0	2.0	25.735	4.979	955.0	1.68	Certain	-8.2	12.5	0.0	No		20.7032842582106				ISITrial	Loss
76.0	3	346.667	0.019	1411.274	0.5	-10.0	25.7975	3.0	955.0	0.2	Outcome2	-20.81	0.5	0.0	No	2.0	21.3091732729332	1.79	348.457		GetAnswer	Mixed
76.0	3	348.483	0.026	1413.09	0.5	-10.0	25.7975	4.0	955.0	0.2	Outcome2	-20.81	0.5	0.0	No		21.3091732729332				ShowChoice	Mixed
76.0	3	352.498	0.015	1417.105	0.5	-10.0	25.7975	1.0	955.0	0.2	Outcome2	-20.81	0.5	0.0	No		21.3091732729332				ShowResult	Mixed
76.0	3	353.515	0.017	1418.122	0.5	-10.0	25.7975	3.931	955.0	0.2	Outcome2	-20.81	0.5	0.0	No		21.3091732729332				ISITrial	Mixed
77.0	3	357.463	0.017	1422.07	-0.54	1.0	25.73	3.0	955.0	0.3	Outcome1	-0.54	2.7	4000.0	Yes	2.0	-3.2399962249905596	1.337	358.8		GetAnswer	Mixed
77.0	3	358.813	0.013	1423.42	-0.54	1.0	25.73	4.0	955.0	0.3	Outcome1	-0.54	2.7	4000.0	Yes		-3.2399962249905596				ShowChoice	Mixed
77.0	3	362.828	0.015	1427.435	-0.54	1.0	25.73	1.0	955.0	0.3	Outcome1	-0.54	2.7	4000.0	Yes		-3.2399962249905596				ShowResult	Mixed
77.0	3	363.844	0.016	1428.451	-0.54	1.0	25.73	7.022	955.0	0.3	Outcome1	-0.54	2.7	4000.0	Yes		-3.2399962249905596				ISITrial	Mixed
77.0	3	374.907	0.015	1439.514	-0.54	1.0	25.73	3.106	955.0	0.3	Outcome1	-0.54	2.7	4000.0	Yes	2{-2}2{-2}	-3.2399962249905596	3.106	378.013	544.0	TrialHappiness	Mixed
77.0	3	378.922	4.015	1443.529	-0.54	1.0	25.73	8.0	955.0	0.3	Outcome1	-0.54	2.7	4000.0	Yes		-3.2399962249905596				ISIRate	Mixed
78.0	3	386.953	0.031	1451.56	-3.0	-3.0	25.355	3.0	955.0	2.0	Certain	6.9	-13.51	0.0	No	4.0	20.414496036240102	1.552	388.505		GetAnswer	Gain
78.0	3	388.519	0.014	1453.126	-3.0	-3.0	25.355	4.0	955.0	2.0	Certain	6.9	-13.51	0.0	No		20.414496036240102				ShowChoice	Gain
78.0	3	392.534	0.015	1457.141	-3.0	-3.0	25.355	1.0	955.0	2.0	Certain	6.9	-13.51	0.0	No		20.414496036240102				ShowResult	Gain
78.0	3	393.551	0.017	1458.158	-3.0	-3.0	25.355	2.078	955.0	2.0	Certain	6.9	-13.51	0.0	No		20.414496036240102				ISITrial	Gain
79.0	3	395.65	0.021	1460.257	-2.0	-2.0	25.105	3.0	955.0	0.4	Certain	-1.1	-3.93	2729.5	Yes	4.0	-2.8260664401661004	1.708	397.358		GetAnswer	Mixed
79.0	3	397.383	0.024	1461.99	-2.0	-2.0	25.105	4.0	955.0	0.4	Certain	-1.1	-3.93	2729.5	Yes		-2.8260664401661004				ShowChoice	Mixed
79.0	3	401.398	0.015	1466.005	-2.0	-2.0	25.105	1.0	955.0	0.4	Certain	-1.1	-3.93	2729.5	Yes		-2.8260664401661004				ShowResult	Mixed
79.0	3	402.414	0.016	1467.021	-2.0	-2.0	25.105	3.829	955.0	0.4	Certain	-1.1	-3.93	2729.5	Yes		-2.8260664401661004				ISITrial	Mixed
79.0	3	409.012	0.019	1473.619	-2.0	-2.0	25.105	3.779	955.0	0.4	Certain	-1.1	-3.93	2729.5	Yes		-2.8260664401661004			496.0	TrialHappiness	Mixed
79.0	3	413.027	4.015	1477.634	-2.0	-2.0	25.105	2.918	955.0	0.4	Certain	-1.1	-3.93	2729.5	Yes		-2.8260664401661004				ISIRate	Mixed
80.0	3	415.976	0.031	1480.583	8.24	4.12	26.135	3.0	955.0	2.48	Outcome1	8.24	11.3	0.0	No	2.0	-3.05964514911287	1.303	417.279		GetAnswer	Loss
80.0	3	417.292	0.013	1481.899	8.24	4.12	26.135	4.0	955.0	2.48	Outcome1	8.24	11.3	0.0	No		-3.05964514911287				ShowChoice	Loss
80.0	3	421.307	0.015	1485.914	8.24	4.12	26.135	1.0	955.0	2.48	Outcome1	8.24	11.3	0.0	No		-3.05964514911287				ShowResult	Loss
80.0	3	422.324	0.017	1486.931	8.24	4.12	26.135	3.336	955.0	2.48	Outcome1	8.24	11.3	0.0	No		-3.05964514911287				ISITrial	Loss
81.0	3	425.689	0.029	1490.296	8.3	-3.0	27.1725	3.0	955.0	5.0	Outcome1	8.3	-14.38	3923.75	Yes	2.0	22.680634201585498	1.757	427.446		GetAnswer	Gain
81.0	3	427.472	0.026	1492.079	8.3	-3.0	27.1725	4.0	955.0	5.0	Outcome1	8.3	-14.38	3923.75	Yes		22.680634201585498				ShowChoice	Gain
81.0	3	431.487	0.015	1496.094	8.3	-3.0	27.1725	1.0	955.0	5.0	Outcome1	8.3	-14.38	3923.75	Yes		22.680634201585498				ShowResult	Gain
81.0	3	432.504	0.017	1497.111	8.3	-3.0	27.1725	3.919	955.0	5.0	Outcome1	8.3	-14.38	3923.75	Yes		22.680634201585498				ISITrial	Gain
81.0	3	440.384	0.025	1504.991	8.3	-3.0	27.1725	3.939	955.0	5.0	Outcome1	8.3	-14.38	3923.75	Yes		22.680634201585498			692.0	TrialHappiness	Gain
81.0	3	444.399	4.015	1509.006	8.3	-3.0	27.1725	7.695	955.0	5.0	Outcome1	8.3	-14.38	3923.75	Yes		22.680634201585498				ISIRate	Gain
	3	452.113	0.019	1516.72				3.0													CurrentEarnings	
	3	455.129	0.016	1519.736				-0.001								{SPACE}		4.04	459.169		Goodbye	
