trial_number	block	onset	onset_delay	onset_unadjusted	amount_change	certain_amount	current_amount	duration	mood_target	multiplier	outcome	outcome1_amount	outcome2_amount	question_duration	rating	response	rpe	rt	rt_time	slider_response	trial_phase	trial_type
	0	-30.95	0.017	19.91				-0.001								{SPACE}		3.385	-27.565		Welcome	
	0	-27.552	0.013	23.308				5.0													LifeHappyPreview	
	0	-22.521	0.031	28.339				1.495												872.0	LifeHappiness	
	0	-17.422	0.015	33.438				4.0													BlockHappyPreview	
	0	-13.41	0.012	37.45				1.109												720.0	BlockStartHappiness	
	0	-1.742	0.015	49.118				-0.001								5.0					ScanWait	
	1	0.014	0.014	50.874				10.0													GetReady	
1.0	1	10.044	0.03	60.904	12.5	4.26	11.5625	3.0	955.0	1.68	Outcome2	8.51	12.5	0.0	No	2.0	3.9920724801812	1.293	11.337		GetAnswer	Loss
1.0	1	11.364	0.027	62.224	12.5	4.26	11.5625	4.0	955.0	1.68	Outcome2	8.51	12.5	0.0	No		3.9920724801812				ShowChoice	Loss
1.0	1	15.376	0.012	66.236	12.5	4.26	11.5625	1.0	955.0	1.68	Outcome2	8.51	12.5	0.0	No		3.9920724801812				ShowResult	Loss
1.0	1	16.396	0.02	67.256	12.5	4.26	11.5625	2.431	955.0	1.68	Outcome2	8.51	12.5	0.0	No		3.9920724801812				ISITrial	Loss
2.0	1	18.854	0.027	69.714	2.72	1.36	11.9025	3.0	955.0	1.0	Outcome1	2.72	3.7	0.0	No	2.0	-0.9758399395998492	1.223	20.077		GetAnswer	Mixed
2.0	1	20.107	0.029	70.967	2.72	1.36	11.9025	4.0	955.0	1.0	Outcome1	2.72	3.7	0.0	No		-0.9758399395998492				ShowChoice	Mixed
2.0	1	24.119	0.012	74.979	2.72	1.36	11.9025	1.0	955.0	1.0	Outcome1	2.72	3.7	0.0	No		-0.9758399395998492				ShowResult	Mixed
2.0	1	25.139	0.02	75.999	2.72	1.36	11.9025	4.568	955.0	1.0	Outcome1	2.72	3.7	0.0	No		-0.9758399395998492				ISITrial	Mixed
3.0	1	29.736	0.029	80.596	11.5	3.49	13.34	3.0	955.0	2.8	Outcome1	11.5	6.98	2868.0	Yes	2.0	4.524348810872031	1.258	30.994		GetAnswer	Loss
3.0	1	31.023	0.029	81.883	11.5	3.49	13.34	4.0	955.0	2.8	Outcome1	11.5	6.98	2868.0	Yes		4.524348810872031				ShowChoice	Loss
3.0	1	35.035	0.012	85.895	11.5	3.49	13.34	1.0	955.0	2.8	Outcome1	11.5	6.98	2868.0	Yes		4.524348810872031				ShowResult	Loss
3.0	1	36.055	0.02	86.915	11.5	3.49	13.34	3.243	955.0	2.8	Outcome1	11.5	6.98	2868.0	Yes		4.524348810872031				ISITrial	Loss
3.0	1	42.207	0.024	93.067	11.5	3.49	13.34	0.891	955.0	2.8	Outcome1	11.5	6.98	2868.0	Yes		4.524348810872031			664.0	TrialHappiness	Loss
3.0	1	46.236	4.029	97.096	11.5	3.49	13.34	3.472	955.0	2.8	Outcome1	11.5	6.98	2868.0	Yes		4.524348810872031				ISIRate	Loss
4.0	1	49.729	0.021	100.589	0.0	0.0	13.34	3.0	955.0	0.4	Certain	-2.84	2.9	0.0	No	4.0	5.741789354473389	2.942	52.671		GetAnswer	Mixed
4.0	1	52.688	0.017	103.548	0.0	0.0	13.34	4.0	955.0	0.4	Certain	-2.84	2.9	0.0	No		5.741789354473389				ShowChoice	Mixed
4.0	1	56.717	0.029	107.577	0.0	0.0	13.34	1.0	955.0	0.4	Certain	-2.84	2.9	0.0	No		5.741789354473389				ShowResult	Mixed
4.0	1	57.737	0.02	108.597	0.0	0.0	13.34	2.011	955.0	0.4	Certain	-2.84	2.9	0.0	No		5.741789354473389				ISITrial	Mixed
5.0	1	59.776	0.028	110.636	-0.9	-4.0	13.2275	3.0	955.0	0.52	Outcome1	-0.9	-6.97	2582.5	Yes		6.0713476783692				GetAnswer	Mixed
5.0	1	62.802	0.026	113.662	-0.9	-4.0	13.2275	4.0	955.0	0.52	Outcome1	-0.9	-6.97	2582.5	Yes		6.0713476783692				ShowChoice	Mixed
5.0	1	66.831	0.029	117.691	-0.9	-4.0	13.2275	1.0	955.0	0.52	Outcome1	-0.9	-6.97	2582.5	Yes		6.0713476783692				ShowResult	Mixed
5.0	1	67.85	0.019	118.71	-0.9	-4.0	13.2275	5.129	955.0	0.52	Outcome1	-0.9	-6.97	2582.5	Yes		6.0713476783692				ISITrial	Mixed
5.0	1	75.607	0.026	126.467	-0.9	-4.0	13.2275	1.244	955.0	0.52	Outcome1	-0.9	-6.97	2582.5	Yes		6.0713476783692			584.0	TrialHappiness	Mixed
5.0	1	79.619	4.012	130.479	-0.9	-4.0	13.2275	2.33	955.0	0.52	Outcome1	-0.9	-6.97	2582.5	Yes		6.0713476783692				ISIRate	Mixed
6.0	1	81.976	0.027	132.836	-2.0	-2.0	12.9775	3.0	955.0	1.0	Certain	1.7	-6.06	0.0	No	4.0	7.7599093997735	1.79	83.766		GetAnswer	Mixed
6.0	1	83.782	0.016	134.642	-2.0	-2.0	12.9775	4.0	955.0	1.0	Certain	1.7	-6.06	0.0	No		7.7599093997735				ShowChoice	Mixed
6.0	1	87.81	0.028	138.67	-2.0	-2.0	12.9775	1.0	955.0	1.0	Certain	1.7	-6.06	0.0	No		7.7599093997735				ShowResult	Mixed
6.0	1	88.83	0.02	139.69	-2.0	-2.0	12.9775	6.232	955.0	1.0	Certain	1.7	-6.06	0.0	No		7.7599093997735				ISITrial	Mixed
7.0	1	95.082	0.02	145.942	4.1	0.0	13.49	3.0	955.0	1.5	Outcome1	4.1	-4.08	0.0	No	2.0	8.18006795016988	1.23	96.312		GetAnswer	Mixed
7.0	1	96.336	0.023	147.196	4.1	0.0	13.49	4.0	955.0	1.5	Outcome1	4.1	-4.08	0.0	No		8.18006795016988				ShowChoice	Mixed
7.0	1	100.365	0.029	151.225	4.1	0.0	13.49	1.0	955.0	1.5	Outcome1	4.1	-4.08	0.0	No		8.18006795016988				ShowResult	Mixed
7.0	1	101.384	0.019	152.244	4.1	0.0	13.49	2.305	955.0	1.5	Outcome1	4.1	-4.08	0.0	No		8.18006795016988				ISITrial	Mixed
8.0	1	103.708	0.019	154.568	-5.0	-5.0	12.865	3.0	955.0	0.66	Certain	-9.3	-0.7	3112.5	Yes	4.0	8.60022650056625	2.02	105.728		GetAnswer	Mixed
8.0	1	105.748	0.02	156.608	-5.0	-5.0	12.865	4.0	955.0	0.66	Certain	-9.3	-0.7	3112.5	Yes		8.60022650056625				ShowChoice	Mixed
8.0	1	109.776	0.028	160.636	-5.0	-5.0	12.865	1.0	955.0	0.66	Certain	-9.3	-0.7	3112.5	Yes		8.60022650056625				ShowResult	Mixed
8.0	1	110.796	0.02	161.656	-5.0	-5.0	12.865	3.506	955.0	0.66	Certain	-9.3	-0.7	3112.5	Yes		8.60022650056625				ISITrial	Mixed
8.0	1	117.466	0.031	168.326	-5.0	-5.0	12.865	1.239	955.0	0.66	Certain	-9.3	-0.7	3112.5	Yes		8.60022650056625			532.0	TrialHappiness	Mixed
8.0	1	121.495	4.029	172.355	-5.0	-5.0	12.865	4.45	955.0	0.66	Certain	-9.3	-0.7	3112.5	Yes		8.60022650056625				ISIRate	Mixed
9.0	1	125.975	0.03	176.835	13.7	1.9	14.5775	3.0	955.0	3.16	Outcome1	13.7	3.8	0.0	No	2.0	9.903737259343151	0.995	126.97		GetAnswer	Loss
9.0	1	126.995	0.025	177.855	13.7	1.9	14.5775	4.0	955.0	3.16	Outcome1	13.7	3.8	0.0	No		9.903737259343151				ShowChoice	Loss
9.0	1	131.023	0.028	181.883	13.7	1.9	14.5775	1.0	955.0	3.16	Outcome1	13.7	3.8	0.0	No		9.903737259343151				ShowResult	Loss
9.0	1	132.043	0.02	182.903	13.7	1.9	14.5775	2.0	955.0	3.16	Outcome1	13.7	3.8	0.0	No		9.903737259343151				ISITrial	Loss
10.0	1	134.066	0.023	184.926	9.32	4.66	15.7425	3.0	955.0	2.48	Outcome1	9.32	11.3	4000.0	Yes	2.0	-1.9830124575311399	1.177	135.243		GetAnswer	Loss
10.0	1	135.269	0.026	186.129	9.32	4.66	15.7425	4.0	955.0	2.48	Outcome1	9.32	11.3	4000.0	Yes		-1.9830124575311399				ShowChoice	Loss
10.0	1	139.281	0.012	190.141	9.32	4.66	15.7425	1.0	955.0	2.48	Outcome1	9.32	11.3	4000.0	Yes		-1.9830124575311399				ShowResult	Loss
10.0	1	140.301	0.02	191.161	9.32	4.66	15.7425	2.0	955.0	2.48	Outcome1	9.32	11.3	4000.0	Yes		-1.9830124575311399				ISITrial	Loss
10.0	1	146.353	0.029	197.213	9.32	4.66	15.7425	1.125	955.0	2.48	Outcome1	9.32	11.3	4000.0	Yes		-1.9830124575311399			832.0	TrialHappiness	Loss
10.0	1	150.381	4.028	201.241	9.32	4.66	15.7425	8.0	955.0	2.48	Outcome1	9.32	11.3	4000.0	Yes		-1.9830124575311399				ISIRate	Loss
11.0	1	158.405	0.024	209.265	7.9	1.06	16.73	3.0	955.0	3.6	Outcome1	7.9	2.13	0.0	No	2.0	5.76557191392978	0.936	159.341		GetAnswer	Gain
11.0	1	159.358	0.017	210.218	7.9	1.06	16.73	4.0	955.0	3.6	Outcome1	7.9	2.13	0.0	No		5.76557191392978				ShowChoice	Gain
11.0	1	163.37	0.012	214.23	7.9	1.06	16.73	1.0	955.0	3.6	Outcome1	7.9	2.13	0.0	No		5.76557191392978				ShowResult	Gain
11.0	1	164.39	0.02	215.25	7.9	1.06	16.73	3.324	955.0	3.6	Outcome1	7.9	2.13	0.0	No		5.76557191392978				ISITrial	Gain
12.0	1	167.733	0.019	218.593	12.9	3.5	18.3425	3.0	955.0	2.0	Outcome2	7.0	12.9	2618.75	Yes	2.0	5.9048697621744095	1.096	168.829		GetAnswer	Loss
12.0	1	168.853	0.024	219.713	12.9	3.5	18.3425	4.0	955.0	2.0	Outcome2	7.0	12.9	2618.75	Yes		5.9048697621744095				ShowChoice	Loss
12.0	1	172.866	0.013	223.726	12.9	3.5	18.3425	1.0	955.0	2.0	Outcome2	7.0	12.9	2618.75	Yes		5.9048697621744095				ShowResult	Loss
12.0	1	173.885	0.019	224.745	12.9	3.5	18.3425	6.642	955.0	2.0	Outcome2	7.0	12.9	2618.75	Yes		5.9048697621744095				ISITrial	Loss
12.0	1	183.197	0.023	234.057	12.9	3.5	18.3425	2.136	955.0	2.0	Outcome2	7.0	12.9	2618.75	Yes		5.9048697621744095			884.0	TrialHappiness	Loss
12.0	1	187.225	4.028	238.085	12.9	3.5	18.3425	2.475	955.0	2.0	Outcome2	7.0	12.9	2618.75	Yes		5.9048697621744095				ISIRate	Loss
13.0	1	189.733	0.033	240.593	-0.3	-3.0	18.305	3.0	955.0	1.0	Outcome2	-5.46	-0.3	0.0	No	2.0	5.1608154020385095	2.707	192.44		GetAnswer	Mixed
13.0	1	192.458	0.018	243.318	-0.3	-3.0	18.305	4.0	955.0	1.0	Outcome2	-5.46	-0.3	0.0	No		5.1608154020385095				ShowChoice	Mixed
13.0	1	196.486	0.028	247.346	-0.3	-3.0	18.305	1.0	955.0	1.0	Outcome2	-5.46	-0.3	0.0	No		5.1608154020385095				ShowResult	Mixed
13.0	1	197.506	0.02	248.366	-0.3	-3.0	18.305	3.48	955.0	1.0	Outcome2	-5.46	-0.3	0.0	No		5.1608154020385095				ISITrial	Mixed
14.0	1	201.017	0.031	251.877	11.48	5.74	19.74	3.0	955.0	4.2	Outcome2	12.1	11.48	0.0	No	2.0	-0.624386560966402	1.26	202.277		GetAnswer	Loss
14.0	1	202.304	0.027	253.164	11.48	5.74	19.74	4.0	955.0	4.2	Outcome2	12.1	11.48	0.0	No		-0.624386560966402				ShowChoice	Loss
14.0	1	206.316	0.012	257.176	11.48	5.74	19.74	1.0	955.0	4.2	Outcome2	12.1	11.48	0.0	No		-0.624386560966402				ShowResult	Loss
14.0	1	207.336	0.02	258.196	11.48	5.74	19.74	5.019	955.0	4.2	Outcome2	12.1	11.48	0.0	No		-0.624386560966402				ISITrial	Loss
15.0	1	212.384	0.029	263.244	7.3	0.99	20.6525	3.0	955.0	2.48	Outcome1	7.3	1.98	3348.5	Yes	2.0	5.321630804077009	1.196	213.58		GetAnswer	Gain
15.0	1	213.604	0.024	264.464	7.3	0.99	20.6525	4.0	955.0	2.48	Outcome1	7.3	1.98	3348.5	Yes		5.321630804077009				ShowChoice	Gain
15.0	1	217.616	0.012	268.476	7.3	0.99	20.6525	1.0	955.0	2.48	Outcome1	7.3	1.98	3348.5	Yes		5.321630804077009				ShowResult	Gain
15.0	1	218.636	0.02	269.496	7.3	0.99	20.6525	7.614	955.0	2.48	Outcome1	7.3	1.98	3348.5	Yes		5.321630804077009				ISITrial	Gain
15.0	1	229.653	0.029	280.513	7.3	0.99	20.6525	1.777	955.0	2.48	Outcome1	7.3	1.98	3348.5	Yes		5.321630804077009			952.0	TrialHappiness	Gain
15.0	1	233.665	4.012	284.525	7.3	0.99	20.6525	5.394	955.0	2.48	Outcome1	7.3	1.98	3348.5	Yes		5.321630804077009				ISIRate	Gain
16.0	1	239.081	0.022	289.941	-1.0	-1.0	20.5275	3.0	955.0	0.3	Certain	0.7	-3.55	0.0	No	4.0	4.246885617214041	2.63	241.711		GetAnswer	Mixed
16.0	1	241.722	0.011	292.582	-1.0	-1.0	20.5275	4.0	955.0	0.3	Certain	0.7	-3.55	0.0	No		4.246885617214041				ShowChoice	Mixed
16.0	1	245.734	0.012	296.594	-1.0	-1.0	20.5275	1.0	955.0	0.3	Certain	0.7	-3.55	0.0	No		4.246885617214041				ShowResult	Mixed
16.0	1	246.754	0.02	297.614	-1.0	-1.0	20.5275	3.008	955.0	0.3	Certain	0.7	-3.55	0.0	No		4.246885617214041				ISITrial	Mixed
17.0	1	249.78	0.018	300.64	5.5	0.62	21.215	3.0	955.0	2.8	Outcome2	1.25	5.5	3041.5	Yes	2.0	4.25028312570781	1.177	250.957		GetAnswer	Gain
17.0	1	250.983	0.026	301.843	5.5	0.62	21.215	4.0	955.0	2.8	Outcome2	1.25	5.5	3041.5	Yes		4.25028312570781				ShowChoice	Gain
17.0	1	254.995	0.012	305.855	5.5	0.62	21.215	1.0	955.0	2.8	Outcome2	1.25	5.5	3041.5	Yes		4.25028312570781				ShowResult	Gain
17.0	1	256.015	0.02	306.875	5.5	0.62	21.215	3.566	955.0	2.8	Outcome2	1.25	5.5	3041.5	Yes		4.25028312570781				ISITrial	Gain
17.0	1	262.652	0.018	313.512	5.5	0.62	21.215	1.861	955.0	2.8	Outcome2	1.25	5.5	3041.5	Yes		4.25028312570781			920.0	TrialHappiness	Gain
17.0	1	266.664	4.012	317.524	5.5	0.62	21.215	4.166	955.0	2.8	Outcome2	1.25	5.5	3041.5	Yes		4.25028312570781				ISIRate	Gain
18.0	1	270.859	0.029	321.719	3.5	1.0	21.6525	3.0	955.0	0.82	Outcome1	3.5	-1.3	0.0	No	2.0	4.79728199320498	1.363	272.222		GetAnswer	Mixed
18.0	1	272.247	0.025	323.107	3.5	1.0	21.6525	4.0	955.0	0.82	Outcome1	3.5	-1.3	0.0	No		4.79728199320498				ShowChoice	Mixed
18.0	1	276.259	0.012	327.119	3.5	1.0	21.6525	1.0	955.0	0.82	Outcome1	3.5	-1.3	0.0	No		4.79728199320498				ShowResult	Mixed
18.0	1	277.279	0.02	328.139	3.5	1.0	21.6525	6.787	955.0	0.82	Outcome1	3.5	-1.3	0.0	No		4.79728199320498				ISITrial	Mixed
19.0	1	284.082	0.016	334.942	-1.0	-1.0	21.5275	3.0	955.0	0.82	Certain	1.5	-3.34	0.0	No	4.0	4.8369195922989805	1.823	285.905		GetAnswer	Mixed
19.0	1	285.921	0.016	336.781	-1.0	-1.0	21.5275	4.0	955.0	0.82	Certain	1.5	-3.34	0.0	No		4.8369195922989805				ShowChoice	Mixed
19.0	1	289.933	0.012	340.793	-1.0	-1.0	21.5275	1.0	955.0	0.82	Certain	1.5	-3.34	0.0	No		4.8369195922989805				ShowResult	Mixed
19.0	1	290.953	0.02	341.813	-1.0	-1.0	21.5275	2.0	955.0	0.82	Certain	1.5	-3.34	0.0	No		4.8369195922989805				ISITrial	Mixed
20.0	1	292.976	0.023	343.836	0.0	0.0	21.5275	3.0	955.0	0.3	Certain	2.7	-2.18	2921.25	Yes	4.0	4.876557191392981	1.873	294.849		GetAnswer	Mixed
20.0	1	294.865	0.016	345.725	0.0	0.0	21.5275	4.0	955.0	0.3	Certain	2.7	-2.18	2921.25	Yes		4.876557191392981				ShowChoice	Mixed
20.0	1	298.877	0.012	349.737	0.0	0.0	21.5275	1.0	955.0	0.3	Certain	2.7	-2.18	2921.25	Yes		4.876557191392981				ShowResult	Mixed
20.0	1	299.897	0.02	350.757	0.0	0.0	21.5275	8.0	955.0	0.3	Certain	2.7	-2.18	2921.25	Yes		4.876557191392981				ISITrial	Mixed
20.0	1	310.863	0.021	361.723	0.0	0.0	21.5275	0.958	955.0	0.3	Certain	2.7	-2.18	2921.25	Yes		4.876557191392981			648.0	TrialHappiness	Mixed
20.0	1	314.892	4.029	365.752	0.0	0.0	21.5275	3.685	955.0	0.3	Certain	2.7	-2.18	2921.25	Yes		4.876557191392981				ISIRate	Mixed
21.0	1	318.603	0.026	369.463	-3.0	-3.0	21.1525	3.0	955.0	0.66	Certain	1.3	-8.24	0.0	No	4.0	9.536806342015849	1.583	320.186		GetAnswer	Mixed
21.0	1	320.208	0.022	371.068	-3.0	-3.0	21.1525	4.0	955.0	0.66	Certain	1.3	-8.24	0.0	No		9.536806342015849				ShowChoice	Mixed
21.0	1	324.22	0.012	375.08	-3.0	-3.0	21.1525	1.0	955.0	0.66	Certain	1.3	-8.24	0.0	No		9.536806342015849				ShowResult	Mixed
21.0	1	325.239	0.019	376.099	-3.0	-3.0	21.1525	3.555	955.0	0.66	Certain	1.3	-8.24	0.0	No		9.536806342015849				ISITrial	Mixed
22.0	1	328.817	0.023	379.677	-3.14	-2.0	20.76	3.0	955.0	0.2	Outcome1	-3.14	-1.5	3219.5	Yes	2.0	-1.63495658739147	1.779	330.596		GetAnswer	Mixed
22.0	1	330.622	0.026	381.482	-3.14	-2.0	20.76	4.0	955.0	0.2	Outcome1	-3.14	-1.5	3219.5	Yes		-1.63495658739147				ShowChoice	Mixed
22.0	1	334.634	0.012	385.494	-3.14	-2.0	20.76	1.0	955.0	0.2	Outcome1	-3.14	-1.5	3219.5	Yes		-1.63495658739147				ShowResult	Mixed
22.0	1	335.654	0.02	386.514	-3.14	-2.0	20.76	6.793	955.0	0.2	Outcome1	-3.14	-1.5	3219.5	Yes		-1.63495658739147				ISITrial	Mixed
22.0	1	345.701	0.023	396.561	-3.14	-2.0	20.76	2.046	955.0	0.2	Outcome1	-3.14	-1.5	3219.5	Yes		-1.63495658739147			552.0	TrialHappiness	Mixed
22.0	1	349.713	4.012	400.573	-3.14	-2.0	20.76	4.878	955.0	0.2	Outcome1	-3.14	-1.5	3219.5	Yes		-1.63495658739147				ISIRate	Mixed
23.0	1	354.611	0.02	405.471	-4.0	-4.0	20.26	3.0	955.0	1.5	Certain	-9.76	2.1	0.0	No	4.0	11.8629671574179	2.1	356.711		GetAnswer	Mixed
23.0	1	356.734	0.023	407.594	-4.0	-4.0	20.26	4.0	955.0	1.5	Certain	-9.76	2.1	0.0	No		11.8629671574179				ShowChoice	Mixed
23.0	1	360.746	0.012	411.606	-4.0	-4.0	20.26	1.0	955.0	1.5	Certain	-9.76	2.1	0.0	No		11.8629671574179				ShowResult	Mixed
23.0	1	361.766	0.02	412.626	-4.0	-4.0	20.26	8.0	955.0	1.5	Certain	-9.76	2.1	0.0	No		11.8629671574179				ISITrial	Mixed
24.0	1	369.79	0.024	420.65	-3.0	-3.0	19.885	3.0	955.0	0.2	Certain	-9.82	2.5	3255.0	Yes	4.0	12.3193657984145	2.043	371.833		GetAnswer	Mixed
24.0	1	371.846	0.013	422.706	-3.0	-3.0	19.885	4.0	955.0	0.2	Certain	-9.82	2.5	3255.0	Yes		12.3193657984145				ShowChoice	Mixed
24.0	1	375.858	0.012	426.718	-3.0	-3.0	19.885	1.0	955.0	0.2	Certain	-9.82	2.5	3255.0	Yes		12.3193657984145				ShowResult	Mixed
24.0	1	376.878	0.02	427.738	-3.0	-3.0	19.885	2.0	955.0	0.2	Certain	-9.82	2.5	3255.0	Yes		12.3193657984145				ISITrial	Mixed
24.0	1	382.177	0.022	433.037	-3.0	-3.0	19.885	0.676	955.0	0.2	Certain	-9.82	2.5	3255.0	Yes		12.3193657984145			480.0	TrialHappiness	Mixed
24.0	1	386.189	4.012	437.049	-3.0	-3.0	19.885	5.02	955.0	0.2	Certain	-9.82	2.5	3255.0	Yes		12.3193657984145				ISIRate	Mixed
25.0	1	391.237	0.028	442.097	4.68	2.34	20.47	3.0	955.0	2.22	Outcome1	4.68	7.1	0.0	No	2.0	-2.4217629294073197	0.975	392.212		GetAnswer	Gain
25.0	1	392.224	0.012	443.084	4.68	2.34	20.47	4.0	955.0	2.22	Outcome1	4.68	7.1	0.0	No		-2.4217629294073197				ShowChoice	Gain
25.0	1	396.252	0.028	447.112	4.68	2.34	20.47	1.0	955.0	2.22	Outcome1	4.68	7.1	0.0	No		-2.4217629294073197				ShowResult	Gain
25.0	1	397.272	0.02	448.132	4.68	2.34	20.47	3.749	955.0	2.22	Outcome1	4.68	7.1	0.0	No		-2.4217629294073197				ISITrial	Gain
26.0	1	401.05	0.029	451.91	9.23	4.62	21.6238	3.0	955.0	3.16	Outcome1	9.23	11.7	0.0	No	2.0	-2.4665911664779196	0.943	401.993		GetAnswer	Loss
26.0	1	402.02	0.027	452.88	9.23	4.62	21.6238	4.0	955.0	3.16	Outcome1	9.23	11.7	0.0	No		-2.4665911664779196				ShowChoice	Loss
26.0	1	406.032	0.012	456.892	9.23	4.62	21.6238	1.0	955.0	3.16	Outcome1	9.23	11.7	0.0	No		-2.4665911664779196				ShowResult	Loss
26.0	1	407.051	0.019	457.911	9.23	4.62	21.6238	7.834	955.0	3.16	Outcome1	9.23	11.7	0.0	No		-2.4665911664779196				ISITrial	Loss
27.0	1	414.908	0.023	465.768	8.5	1.0	22.6863	3.0	955.0	1.68	Outcome2	-6.57	8.5	2549.75	Yes	2.0	15.074745186863	2.191	417.099		GetAnswer	Gain
27.0	1	417.115	0.016	467.975	8.5	1.0	22.6863	4.0	955.0	1.68	Outcome2	-6.57	8.5	2549.75	Yes		15.074745186863				ShowChoice	Gain
27.0	1	421.127	0.012	471.987	8.5	1.0	22.6863	1.0	955.0	1.68	Outcome2	-6.57	8.5	2549.75	Yes		15.074745186863				ShowResult	Gain
27.0	1	422.147	0.02	473.007	8.5	1.0	22.6863	4.225	955.0	1.68	Outcome2	-6.57	8.5	2549.75	Yes		15.074745186863				ISITrial	Gain
27.0	1	428.967	0.024	479.827	8.5	1.0	22.6863	1.761	955.0	1.68	Outcome2	-6.57	8.5	2549.75	Yes		15.074745186863			672.0	TrialHappiness	Gain
27.0	1	432.979	4.012	483.839	8.5	1.0	22.6863	2.199	955.0	1.68	Outcome2	-6.57	8.5	2549.75	Yes		15.074745186863				ISIRate	Gain
	1	435.202	0.024	486.062				-0.001								{SPACE}		31.227	466.429		Rest	
	1	466.446	0.017	517.306				4.0													BlockHappyPreview	
	1	470.458	0.012	521.318				3.818								2{-2}2{-2}		3.818	474.276	720.0	BlockStartHappiness	
	1	476.326	0.026	527.186				-0.001								5.0		1.713	478.039		ScanWait	
	2	0.024	0.024	528.924				10.0													GetReady	
28.0	2	10.038	0.014	538.938	-0.28	-1.0	22.6513	3.0	70.0	0.4	Outcome1	-0.28	-2.92	0.0	No	2.0	2.64077853363568	2.246	12.284		GetAnswer	Mixed
28.0	2	12.311	0.027	541.211	-0.28	-1.0	22.6513	4.0	70.0	0.4	Outcome1	-0.28	-2.92	0.0	No		2.64077853363568				ShowChoice	Mixed
28.0	2	16.323	0.012	545.223	-0.28	-1.0	22.6513	1.0	70.0	0.4	Outcome1	-0.28	-2.92	0.0	No		2.64077853363568				ShowResult	Mixed
28.0	2	17.343	0.02	546.243	-0.28	-1.0	22.6513	3.575	70.0	0.4	Outcome1	-0.28	-2.92	0.0	No		2.64077853363568				ISITrial	Mixed
29.0	2	20.937	0.019	549.837	-5.89	0.0	21.915	3.0	70.0	3.6	Outcome2	5.9	-5.89	3529.0	Yes	2.0	-11.7913832199546	1.77	22.707		GetAnswer	Gain
29.0	2	22.726	0.019	551.626	-5.89	0.0	21.915	4.0	70.0	3.6	Outcome2	5.9	-5.89	3529.0	Yes		-11.7913832199546				ShowChoice	Gain
29.0	2	26.738	0.012	555.638	-5.89	0.0	21.915	1.0	70.0	3.6	Outcome2	5.9	-5.89	3529.0	Yes		-11.7913832199546				ShowResult	Gain
29.0	2	27.758	0.02	556.658	-5.89	0.0	21.915	3.955	70.0	3.6	Outcome2	5.9	-5.89	3529.0	Yes		-11.7913832199546				ISITrial	Gain
29.0	2	35.28	0.015	564.18	-5.89	0.0	21.915	0.96	70.0	3.6	Outcome2	5.9	-5.89	3529.0	Yes	4{-4}4{-4}	-11.7913832199546	0.96	36.24	464.0	TrialHappiness	Gain
29.0	2	39.292	4.012	568.192	-5.89	0.0	21.915	6.116	70.0	3.6	Outcome2	5.9	-5.89	3529.0	Yes		-11.7913832199546				ISIRate	Gain
30.0	2	45.427	0.019	574.327	5.33	2.66	22.5812	3.0	70.0	2.8	Outcome2	13.5	5.33	0.0	No	2.0	-8.17460317460317	1.341	46.768		GetAnswer	Loss
30.0	2	46.781	0.013	575.681	5.33	2.66	22.5812	4.0	70.0	2.8	Outcome2	13.5	5.33	0.0	No		-8.17460317460317				ShowChoice	Loss
30.0	2	50.793	0.012	579.693	5.33	2.66	22.5812	1.0	70.0	2.8	Outcome2	13.5	5.33	0.0	No		-8.17460317460317				ShowResult	Loss
30.0	2	51.813	0.02	580.713	5.33	2.66	22.5812	4.453	70.0	2.8	Outcome2	13.5	5.33	0.0	No		-8.17460317460317				ISITrial	Loss
31.0	2	56.293	0.027	585.193	0.12	-1.0	22.5962	3.0	70.0	0.2	Outcome1	0.12	-1.64	2503.25	Yes	2.0	1.76077097505669	1.972	58.265		GetAnswer	Mixed
31.0	2	58.282	0.017	587.182	0.12	-1.0	22.5962	4.0	70.0	0.2	Outcome1	0.12	-1.64	2503.25	Yes		1.76077097505669				ShowChoice	Mixed
31.0	2	62.295	0.013	591.195	0.12	-1.0	22.5962	1.0	70.0	0.2	Outcome1	0.12	-1.64	2503.25	Yes		1.76077097505669				ShowResult	Mixed
31.0	2	63.314	0.019	592.214	0.12	-1.0	22.5962	4.786	70.0	0.2	Outcome1	0.12	-1.64	2503.25	Yes		1.76077097505669				ISITrial	Mixed
31.0	2	70.636	0.021	599.536	0.12	-1.0	22.5962	0.0	70.0	0.2	Outcome1	0.12	-1.64	2503.25	Yes		1.76077097505669			512.0	TrialHappiness	Mixed
31.0	2	74.648	4.012	603.548	0.12	-1.0	22.5962	2.013	70.0	0.2	Outcome1	0.12	-1.64	2503.25	Yes		1.76077097505669				ISIRate	Mixed
32.0	2	76.688	0.027	605.588	2.58	1.0	22.9187	3.0	70.0	5.0	Outcome1	2.58	0.59	0.0	No	2.0	1.99300831443689	1.239	77.927		GetAnswer	Gain
32.0	2	77.941	0.014	606.841	2.58	1.0	22.9187	4.0	70.0	5.0	Outcome1	2.58	0.59	0.0	No		1.99300831443689				ShowChoice	Gain
32.0	2	81.954	0.013	610.854	2.58	1.0	22.9187	1.0	70.0	5.0	Outcome1	2.58	0.59	0.0	No		1.99300831443689				ShowResult	Gain
32.0	2	82.973	0.019	611.873	2.58	1.0	22.9187	2.0	70.0	5.0	Outcome1	2.58	0.59	0.0	No		1.99300831443689				ISITrial	Gain
33.0	2	84.996	0.023	613.896	-2.69	2.0	22.5825	3.0	70.0	3.16	Outcome1	-2.69	7.7	0.0	No	2.0	-10.385487528344699	2.303	87.299		GetAnswer	Gain
33.0	2	87.32	0.021	616.22	-2.69	2.0	22.5825	4.0	70.0	3.16	Outcome1	-2.69	7.7	0.0	No		-10.385487528344699				ShowChoice	Gain
33.0	2	91.332	0.012	620.232	-2.69	2.0	22.5825	1.0	70.0	3.16	Outcome1	-2.69	7.7	0.0	No		-10.385487528344699				ShowResult	Gain
33.0	2	92.351	0.019	621.251	-2.69	2.0	22.5825	5.099	70.0	3.16	Outcome1	-2.69	7.7	0.0	No		-10.385487528344699				ISITrial	Gain
34.0	2	97.467	0.017	626.367	2.41	1.2	22.8837	3.0	70.0	2.48	Outcome2	13.3	2.41	3231.5	Yes	2.0	-10.8866213151927	1.276	98.743		GetAnswer	Loss
34.0	2	98.771	0.028	627.671	2.41	1.2	22.8837	4.0	70.0	2.48	Outcome2	13.3	2.41	3231.5	Yes		-10.8866213151927				ShowChoice	Loss
34.0	2	102.783	0.012	631.683	2.41	1.2	22.8837	1.0	70.0	2.48	Outcome2	13.3	2.41	3231.5	Yes		-10.8866213151927				ShowResult	Loss
34.0	2	103.802	0.019	632.702	2.41	1.2	22.8837	4.784	70.0	2.48	Outcome2	13.3	2.41	3231.5	Yes		-10.8866213151927				ISITrial	Loss
34.0	2	111.86	0.028	640.76	2.41	1.2	22.8837	1.477	70.0	2.48	Outcome2	13.3	2.41	3231.5	Yes		-10.8866213151927			492.0	TrialHappiness	Loss
34.0	2	115.872	4.012	644.772	2.41	1.2	22.8837	4.926	70.0	2.48	Outcome2	13.3	2.41	3231.5	Yes		-10.8866213151927				ISIRate	Loss
35.0	2	120.82	0.022	649.72	-1.35	-0.68	22.7149	3.0	70.0	3.16	Outcome1	-1.35	9.7	0.0	No	2.0	-11.047619047619	0.747	121.567		GetAnswer	Gain
35.0	2	121.589	0.022	650.489	-1.35	-0.68	22.7149	4.0	70.0	3.16	Outcome1	-1.35	9.7	0.0	No		-11.047619047619				ShowChoice	Gain
35.0	2	125.601	0.012	654.501	-1.35	-0.68	22.7149	1.0	70.0	3.16	Outcome1	-1.35	9.7	0.0	No		-11.047619047619				ShowResult	Gain
35.0	2	126.621	0.02	655.521	-1.35	-0.68	22.7149	2.098	70.0	3.16	Outcome1	-1.35	9.7	0.0	No		-11.047619047619				ISITrial	Gain
36.0	2	128.744	0.025	657.644	-1.0	-1.0	22.5899	3.0	70.0	1.5	Certain	0.02	-2.06	3335.75	Yes	4.0	2.07690854119426	2.776	131.52		GetAnswer	Mixed
36.0	2	131.536	0.016	660.436	-1.0	-1.0	22.5899	4.0	70.0	1.5	Certain	0.02	-2.06	3335.75	Yes		2.07690854119426				ShowChoice	Mixed
36.0	2	135.548	0.012	664.448	-1.0	-1.0	22.5899	1.0	70.0	1.5	Certain	0.02	-2.06	3335.75	Yes		2.07690854119426				ShowResult	Mixed
36.0	2	136.567	0.019	665.467	-1.0	-1.0	22.5899	5.156	70.0	1.5	Certain	0.02	-2.06	3335.75	Yes		2.07690854119426				ISITrial	Mixed
36.0	2	145.11	0.024	674.01	-1.0	-1.0	22.5899	0.864	70.0	1.5	Certain	0.02	-2.06	3335.75	Yes		2.07690854119426			472.0	TrialHappiness	Mixed
36.0	2	149.122	4.012	678.022	-1.0	-1.0	22.5899	5.343	70.0	1.5	Certain	0.02	-2.06	3335.75	Yes		2.07690854119426				ISIRate	Mixed
37.0	2	154.488	0.023	683.388	-2.96	-1.48	22.2199	3.0	70.0	1.82	Outcome2	8.7	-2.96	0.0	No	2.0	-11.6643990929705	1.096	155.584		GetAnswer	Gain
37.0	2	155.608	0.024	684.508	-2.96	-1.48	22.2199	4.0	70.0	1.82	Outcome2	8.7	-2.96	0.0	No		-11.6643990929705				ShowChoice	Gain
37.0	2	159.62	0.012	688.52	-2.96	-1.48	22.2199	1.0	70.0	1.82	Outcome2	8.7	-2.96	0.0	No		-11.6643990929705				ShowResult	Gain
37.0	2	160.64	0.02	689.54	-2.96	-1.48	22.2199	3.598	70.0	1.82	Outcome2	8.7	-2.96	0.0	No		-11.6643990929705				ISITrial	Gain
38.0	2	164.267	0.029	693.167	-2.82	-1.41	21.8674	3.0	70.0	2.48	Outcome2	9.3	-2.82	0.0	No	2.0	-12.120181405895698	2.744	167.011		GetAnswer	Gain
38.0	2	167.025	0.014	695.925	-2.82	-1.41	21.8674	4.0	70.0	2.48	Outcome2	9.3	-2.82	0.0	No		-12.120181405895698				ShowChoice	Gain
38.0	2	171.037	0.012	699.937	-2.82	-1.41	21.8674	1.0	70.0	2.48	Outcome2	9.3	-2.82	0.0	No		-12.120181405895698				ShowResult	Gain
38.0	2	172.057	0.02	700.957	-2.82	-1.41	21.8674	4.787	70.0	2.48	Outcome2	9.3	-2.82	0.0	No		-12.120181405895698				ISITrial	Gain
39.0	2	176.872	0.028	705.772	0.0	0.0	21.8674	3.0	70.0	2.0	Certain	0.57	-1.54	2864.25	Yes	4.0	2.1114890400604702	2.131	179.003		GetAnswer	Mixed
39.0	2	179.028	0.025	707.928	0.0	0.0	21.8674	4.0	70.0	2.0	Certain	0.57	-1.54	2864.25	Yes		2.1114890400604702				ShowChoice	Mixed
39.0	2	183.057	0.029	711.957	0.0	0.0	21.8674	1.0	70.0	2.0	Certain	0.57	-1.54	2864.25	Yes		2.1114890400604702				ShowResult	Mixed
39.0	2	184.077	0.02	712.977	0.0	0.0	21.8674	2.348	70.0	2.0	Certain	0.57	-1.54	2864.25	Yes		2.1114890400604702				ISITrial	Mixed
39.0	2	189.342	0.028	718.242	0.0	0.0	21.8674	3.167	70.0	2.0	Certain	0.57	-1.54	2864.25	Yes		2.1114890400604702			448.0	TrialHappiness	Mixed
39.0	2	193.354	4.012	722.254	0.0	0.0	21.8674	3.457	70.0	2.0	Certain	0.57	-1.54	2864.25	Yes		2.1114890400604702				ISIRate	Mixed
40.0	2	196.831	0.02	725.731	-4.52	2.0	21.3024	3.0	70.0	4.2	Outcome1	-4.52	8.1	0.0	No	2.0	-12.6235827664399	1.705	198.536		GetAnswer	Gain
40.0	2	198.553	0.017	727.453	-4.52	2.0	21.3024	4.0	70.0	4.2	Outcome1	-4.52	8.1	0.0	No		-12.6235827664399				ShowChoice	Gain
40.0	2	202.565	0.012	731.465	-4.52	2.0	21.3024	1.0	70.0	4.2	Outcome1	-4.52	8.1	0.0	No		-12.6235827664399				ShowResult	Gain
40.0	2	203.585	0.02	732.485	-4.52	2.0	21.3024	3.158	70.0	4.2	Outcome1	-4.52	8.1	0.0	No		-12.6235827664399				ISITrial	Gain
41.0	2	206.761	0.018	735.661	-6.35	0.0	20.5086	3.0	70.0	1.82	Outcome2	6.7	-6.35	4000.0	Yes	2.0	-13.052154195011301	2.009	208.77		GetAnswer	Gain
41.0	2	208.784	0.014	737.684	-6.35	0.0	20.5086	4.0	70.0	1.82	Outcome2	6.7	-6.35	4000.0	Yes		-13.052154195011301				ShowChoice	Gain
41.0	2	212.796	0.012	741.696	-6.35	0.0	20.5086	1.0	70.0	1.82	Outcome2	6.7	-6.35	4000.0	Yes		-13.052154195011301				ShowResult	Gain
41.0	2	213.816	0.02	742.716	-6.35	0.0	20.5086	4.506	70.0	1.82	Outcome2	6.7	-6.35	4000.0	Yes		-13.052154195011301				ISITrial	Gain
41.0	2	222.375	0.029	751.275	-6.35	0.0	20.5086	0.858	70.0	1.82	Outcome2	6.7	-6.35	4000.0	Yes		-13.052154195011301			376.0	TrialHappiness	Gain
41.0	2	226.387	4.012	755.287	-6.35	0.0	20.5086	8.0	70.0	1.82	Outcome2	6.7	-6.35	4000.0	Yes		-13.052154195011301				ISIRate	Gain
42.0	2	234.411	0.024	763.311	1.23	0.0	20.6624	3.0	70.0	2.0	Outcome2	-0.6	1.23	0.0	No	2.0	1.83087679516251	2.269	236.68		GetAnswer	Gain
42.0	2	236.701	0.021	765.601	1.23	0.0	20.6624	4.0	70.0	2.0	Outcome2	-0.6	1.23	0.0	No		1.83087679516251				ShowChoice	Gain
42.0	2	240.713	0.012	769.613	1.23	0.0	20.6624	1.0	70.0	2.0	Outcome2	-0.6	1.23	0.0	No		1.83087679516251				ShowResult	Gain
42.0	2	241.733	0.02	770.633	1.23	0.0	20.6624	6.248	70.0	2.0	Outcome2	-0.6	1.23	0.0	No		1.83087679516251				ISITrial	Gain
43.0	2	248.002	0.021	776.902	-0.35	-0.35	20.6186	3.0	70.0	3.6	Certain	-0.7	11.9	2775.75	Yes	4.0	-12.603174603174601	2.955	250.957		GetAnswer	Loss
43.0	2	250.977	0.02	779.877	-0.35	-0.35	20.6186	4.0	70.0	3.6	Certain	-0.7	11.9	2775.75	Yes		-12.603174603174601				ShowChoice	Loss
43.0	2	254.989	0.012	783.889	-0.35	-0.35	20.6186	1.0	70.0	3.6	Certain	-0.7	11.9	2775.75	Yes		-12.603174603174601				ShowResult	Loss
43.0	2	256.009	0.02	784.909	-0.35	-0.35	20.6186	4.596	70.0	3.6	Certain	-0.7	11.9	2775.75	Yes		-12.603174603174601				ISITrial	Loss
43.0	2	263.415	0.016	792.315	-0.35	-0.35	20.6186	0.0	70.0	3.6	Certain	-0.7	11.9	2775.75	Yes		-12.603174603174601			512.0	TrialHappiness	Loss
43.0	2	267.427	4.012	796.327	-0.35	-0.35	20.6186	3.103	70.0	3.6	Certain	-0.7	11.9	2775.75	Yes		-12.603174603174601				ISIRate	Loss
44.0	2	270.553	0.023	799.453	-1.0	-1.0	20.4936	3.0	70.0	0.3	Certain	-2.76	-0.32	0.0	No	4.0	2.44123204837491	1.973	272.526		GetAnswer	Mixed
44.0	2	272.542	0.016	801.442	-1.0	-1.0	20.4936	4.0	70.0	0.3	Certain	-2.76	-0.32	0.0	No		2.44123204837491				ShowChoice	Mixed
44.0	2	276.554	0.012	805.454	-1.0	-1.0	20.4936	1.0	70.0	0.3	Certain	-2.76	-0.32	0.0	No		2.44123204837491				ShowResult	Mixed
44.0	2	277.574	0.02	806.474	-1.0	-1.0	20.4936	2.42	70.0	0.3	Certain	-2.76	-0.32	0.0	No		2.44123204837491				ISITrial	Mixed
45.0	2	280.014	0.02	808.914	2.28	1.0	20.7786	3.0	70.0	2.22	Outcome1	2.28	-0.2	0.0	No	2.0	2.48299319727891	1.759	281.773		GetAnswer	Gain
45.0	2	281.786	0.013	810.686	2.28	1.0	20.7786	4.0	70.0	2.22	Outcome1	2.28	-0.2	0.0	No		2.48299319727891				ShowChoice	Gain
45.0	2	285.798	0.012	814.698	2.28	1.0	20.7786	1.0	70.0	2.22	Outcome1	2.28	-0.2	0.0	No		2.48299319727891				ShowResult	Gain
45.0	2	286.818	0.02	815.718	2.28	1.0	20.7786	3.144	70.0	2.22	Outcome1	2.28	-0.2	0.0	No		2.48299319727891				ISITrial	Gain
46.0	2	289.978	0.016	818.878	1.27	0.0	20.9374	3.0	70.0	2.22	Outcome2	-1.25	1.27	3841.25	Yes	2.0	2.52475434618292	1.965	291.943		GetAnswer	Gain
46.0	2	291.967	0.023	820.867	1.27	0.0	20.9374	4.0	70.0	2.22	Outcome2	-1.25	1.27	3841.25	Yes		2.52475434618292				ShowChoice	Gain
46.0	2	295.979	0.012	824.879	1.27	0.0	20.9374	1.0	70.0	2.22	Outcome2	-1.25	1.27	3841.25	Yes		2.52475434618292				ShowResult	Gain
46.0	2	296.999	0.02	825.899	1.27	0.0	20.9374	2.246	70.0	2.22	Outcome2	-1.25	1.27	3841.25	Yes		2.52475434618292				ISITrial	Gain
46.0	2	303.117	0.021	832.017	1.27	0.0	20.9374	2.614	70.0	2.22	Outcome2	-1.25	1.27	3841.25	Yes		2.52475434618292			568.0	TrialHappiness	Gain
46.0	2	307.129	4.012	836.029	1.27	0.0	20.9374	7.365	70.0	2.22	Outcome2	-1.25	1.27	3841.25	Yes		2.52475434618292				ISIRate	Gain
47.0	2	314.518	0.024	843.418	-3.0	-3.0	20.5624	3.0	70.0	2.48	Certain	-12.42	5.3	0.0	No	4.0	-17.718820861678	1.939	316.457		GetAnswer	Gain
47.0	2	316.474	0.017	845.374	-3.0	-3.0	20.5624	4.0	70.0	2.48	Certain	-12.42	5.3	0.0	No		-17.718820861678				ShowChoice	Gain
47.0	2	320.486	0.012	849.386	-3.0	-3.0	20.5624	1.0	70.0	2.48	Certain	-12.42	5.3	0.0	No		-17.718820861678				ShowResult	Gain
47.0	2	321.505	0.019	850.405	-3.0	-3.0	20.5624	2.0	70.0	2.48	Certain	-12.42	5.3	0.0	No		-17.718820861678				ISITrial	Gain
48.0	2	323.528	0.023	852.428	-7.78	1.0	19.5899	3.0	70.0	1.68	Outcome2	10.5	-7.78	2831.75	Yes		-18.2834467120181				GetAnswer	Loss
48.0	2	326.554	0.026	855.454	-7.78	1.0	19.5899	4.0	70.0	1.68	Outcome2	10.5	-7.78	2831.75	Yes		-18.2834467120181				ShowChoice	Loss
48.0	2	330.566	0.012	859.466	-7.78	1.0	19.5899	1.0	70.0	1.68	Outcome2	10.5	-7.78	2831.75	Yes		-18.2834467120181				ShowResult	Loss
48.0	2	331.586	0.02	860.486	-7.78	1.0	19.5899	3.692	70.0	1.68	Outcome2	10.5	-7.78	2831.75	Yes		-18.2834467120181				ISITrial	Loss
48.0	2	338.155	0.026	867.055	-7.78	1.0	19.5899	1.696	70.0	1.68	Outcome2	10.5	-7.78	2831.75	Yes		-18.2834467120181			448.0	TrialHappiness	Loss
48.0	2	342.167	4.012	871.067	-7.78	1.0	19.5899	3.327	70.0	1.68	Outcome2	10.5	-7.78	2831.75	Yes		-18.2834467120181				ISIRate	Loss
49.0	2	345.511	0.017	874.411	-6.11	2.0	18.8261	3.0	70.0	1.82	Outcome2	10.7	-6.11	0.0	No	2.0	-16.807256235827698	2.381	347.892		GetAnswer	Loss
49.0	2	347.918	0.026	876.818	-6.11	2.0	18.8261	4.0	70.0	1.82	Outcome2	10.7	-6.11	0.0	No		-16.807256235827698				ShowChoice	Loss
49.0	2	351.93	0.012	880.83	-6.11	2.0	18.8261	1.0	70.0	1.82	Outcome2	10.7	-6.11	0.0	No		-16.807256235827698				ShowResult	Loss
49.0	2	352.95	0.02	881.85	-6.11	2.0	18.8261	8.0	70.0	1.82	Outcome2	10.7	-6.11	0.0	No		-16.807256235827698				ISITrial	Loss
50.0	2	360.974	0.024	889.874	2.0	2.0	19.0761	3.0	70.0	2.22	Certain	11.1	-6.14	3547.25	Yes	4.0	-17.2358276643991	2.473	363.447		GetAnswer	Loss
50.0	2	363.465	0.018	892.365	2.0	2.0	19.0761	4.0	70.0	2.22	Certain	11.1	-6.14	3547.25	Yes		-17.2358276643991				ShowChoice	Loss
50.0	2	367.477	0.012	896.377	2.0	2.0	19.0761	1.0	70.0	2.22	Certain	11.1	-6.14	3547.25	Yes		-17.2358276643991				ShowResult	Loss
50.0	2	368.496	0.019	897.396	2.0	2.0	19.0761	7.537	70.0	2.22	Certain	11.1	-6.14	3547.25	Yes		-17.2358276643991				ISITrial	Loss
50.0	2	379.613	0.014	908.513	2.0	2.0	19.0761	0.608	70.0	2.22	Certain	11.1	-6.14	3547.25	Yes	4{-4}	-17.2358276643991	0.608	380.221	408.0	TrialHappiness	Loss
50.0	2	383.625	4.012	912.525	2.0	2.0	19.0761	6.189	70.0	2.22	Certain	11.1	-6.14	3547.25	Yes		-17.2358276643991				ISIRate	Loss
51.0	2	389.844	0.03	918.744	-4.0	-4.0	18.5761	3.0	70.0	1.2	Certain	3.9	-13.08	0.0	No	4.0	-16.984126984127	1.736	391.58		GetAnswer	Mixed
51.0	2	391.599	0.019	920.499	-4.0	-4.0	18.5761	4.0	70.0	1.2	Certain	3.9	-13.08	0.0	No		-16.984126984127				ShowChoice	Mixed
51.0	2	395.611	0.012	924.511	-4.0	-4.0	18.5761	1.0	70.0	1.2	Certain	3.9	-13.08	0.0	No		-16.984126984127				ShowResult	Mixed
51.0	2	396.631	0.02	925.531	-4.0	-4.0	18.5761	5.508	70.0	1.2	Certain	3.9	-13.08	0.0	No		-16.984126984127				ISITrial	Mixed
52.0	2	402.164	0.025	931.064	-8.0	-8.0	17.5761	3.0	70.0	0.4	Certain	0.9	-16.47	0.0	No	4.0	-17.367346938775498	2.896	405.06		GetAnswer	Mixed
52.0	2	405.073	0.013	933.973	-8.0	-8.0	17.5761	4.0	70.0	0.4	Certain	0.9	-16.47	0.0	No		-17.367346938775498				ShowChoice	Mixed
52.0	2	409.085	0.012	937.985	-8.0	-8.0	17.5761	1.0	70.0	0.4	Certain	0.9	-16.47	0.0	No		-17.367346938775498				ShowResult	Mixed
52.0	2	410.105	0.02	939.005	-8.0	-8.0	17.5761	5.913	70.0	0.4	Certain	0.9	-16.47	0.0	No		-17.367346938775498				ISITrial	Mixed
53.0	2	416.039	0.021	944.939	-13.25	-4.0	15.9199	3.0	70.0	1.68	Outcome1	-13.25	4.5	2996.75	Yes		-17.750566893424				GetAnswer	Gain
53.0	2	419.065	0.026	947.965	-13.25	-4.0	15.9199	4.0	70.0	1.68	Outcome1	-13.25	4.5	2996.75	Yes		-17.750566893424				ShowChoice	Gain
53.0	2	423.077	0.012	951.977	-13.25	-4.0	15.9199	1.0	70.0	1.68	Outcome1	-13.25	4.5	2996.75	Yes		-17.750566893424				ShowResult	Gain
53.0	2	424.097	0.02	952.997	-13.25	-4.0	15.9199	3.66	70.0	1.68	Outcome1	-13.25	4.5	2996.75	Yes		-17.750566893424				ISITrial	Gain
53.0	2	430.8	0.029	959.7	-13.25	-4.0	15.9199	0.741	70.0	1.68	Outcome1	-13.25	4.5	2996.75	Yes		-17.750566893424			376.0	TrialHappiness	Gain
53.0	2	434.812	4.012	963.712	-13.25	-4.0	15.9199	3.987	70.0	1.68	Outcome1	-13.25	4.5	2996.75	Yes		-17.750566893424				ISIRate	Gain
54.0	2	438.824	0.025	967.724	-1.0	-1.0	15.7949	3.0	70.0	0.82	Certain	-0.12	-2.4	0.0	No	4.0	2.27532123960695	2.372	441.196		GetAnswer	Mixed
54.0	2	441.215	0.018	970.115	-1.0	-1.0	15.7949	4.0	70.0	0.82	Certain	-0.12	-2.4	0.0	No		2.27532123960695				ShowChoice	Mixed
54.0	2	445.227	0.012	974.127	-1.0	-1.0	15.7949	1.0	70.0	0.82	Certain	-0.12	-2.4	0.0	No		2.27532123960695				ShowResult	Mixed
54.0	2	446.246	0.019	975.146	-1.0	-1.0	15.7949	8.0	70.0	0.82	Certain	-0.12	-2.4	0.0	No		2.27532123960695				ISITrial	Mixed
	2	454.27	0.024	983.17				-0.001								{SPACE}		36.304	490.574		Rest	
	2	490.596	0.022	1019.496				4.0													BlockHappyPreview	
	2	494.608	0.012	1023.508				0.908												584.0	BlockStartHappiness	
	2	500.71	0.024	1029.61				-0.001								5.0		2.702	503.412		ScanWait	
	3	0.023	0.023	1032.335				10.0													GetReady	
55.0	3	10.053	0.03	1042.365	4.99	2.5	16.4187	3.0	955.0	1.68	Outcome1	4.99	6.5	2533.25	Yes	2.0	-1.5055681389203501	1.075	11.128		GetAnswer	Gain
55.0	3	11.156	0.028	1043.468	4.99	2.5	16.4187	4.0	955.0	1.68	Outcome1	4.99	6.5	2533.25	Yes		-1.5055681389203501				ShowChoice	Gain
55.0	3	15.185	0.029	1047.497	4.99	2.5	16.4187	1.0	955.0	1.68	Outcome1	4.99	6.5	2533.25	Yes		-1.5055681389203501				ShowResult	Gain
55.0	3	16.204	0.019	1048.516	4.99	2.5	16.4187	7.709	955.0	1.68	Outcome1	4.99	6.5	2533.25	Yes		-1.5055681389203501				ISITrial	Gain
55.0	3	26.485	0.024	1058.797	4.99	2.5	16.4187	2.949	955.0	1.68	Outcome1	4.99	6.5	2533.25	Yes		-1.5055681389203501			584.0	TrialHappiness	Gain
55.0	3	30.514	4.029	1062.826	4.99	2.5	16.4187	2.133	955.0	1.68	Outcome1	4.99	6.5	2533.25	Yes		-1.5055681389203501				ISIRate	Gain
56.0	3	32.67	0.023	1064.982	12.3	2.79	17.9562	3.0	955.0	5.0	Outcome2	5.58	12.3	0.0	No	2.0	6.72253680634202	0.892	33.562		GetAnswer	Loss
56.0	3	33.59	0.028	1065.902	12.3	2.79	17.9562	4.0	955.0	5.0	Outcome2	5.58	12.3	0.0	No		6.72253680634202				ShowChoice	Loss
56.0	3	37.602	0.012	1069.914	12.3	2.79	17.9562	1.0	955.0	5.0	Outcome2	5.58	12.3	0.0	No		6.72253680634202				ShowResult	Loss
56.0	3	38.622	0.02	1070.934	12.3	2.79	17.9562	4.697	955.0	5.0	Outcome2	5.58	12.3	0.0	No		6.72253680634202				ISITrial	Loss
57.0	3	43.353	0.034	1075.665	6.3	2.0	18.7437	3.0	955.0	5.0	Outcome2	-0.84	6.3	0.0	No	2.0	7.14269535673839	1.871	45.224		GetAnswer	Gain
57.0	3	45.242	0.018	1077.554	6.3	2.0	18.7437	4.0	955.0	5.0	Outcome2	-0.84	6.3	0.0	No		7.14269535673839				ShowChoice	Gain
57.0	3	49.254	0.012	1081.566	6.3	2.0	18.7437	1.0	955.0	5.0	Outcome2	-0.84	6.3	0.0	No		7.14269535673839				ShowResult	Gain
57.0	3	50.273	0.019	1082.585	6.3	2.0	18.7437	4.291	955.0	5.0	Outcome2	-0.84	6.3	0.0	No		7.14269535673839				ISITrial	Gain
58.0	3	54.586	0.022	1086.898	5.29	2.64	19.4049	3.0	955.0	2.0	Outcome1	5.29	6.9	3045.75	Yes	2.0	-1.6106077765194398	1.03	55.616		GetAnswer	Gain
58.0	3	55.639	0.023	1087.951	5.29	2.64	19.4049	4.0	955.0	2.0	Outcome1	5.29	6.9	3045.75	Yes		-1.6106077765194398				ShowChoice	Gain
58.0	3	59.651	0.012	1091.963	5.29	2.64	19.4049	1.0	955.0	2.0	Outcome1	5.29	6.9	3045.75	Yes		-1.6106077765194398				ShowResult	Gain
58.0	3	60.671	0.02	1092.983	5.29	2.64	19.4049	2.037	955.0	2.0	Outcome1	5.29	6.9	3045.75	Yes		-1.6106077765194398				ISITrial	Gain
58.0	3	65.803	0.03	1098.115	5.29	2.64	19.4049	1.699	955.0	2.0	Outcome1	5.29	6.9	3045.75	Yes		-1.6106077765194398			656.0	TrialHappiness	Gain
58.0	3	69.815	4.012	1102.127	5.29	2.64	19.4049	4.183	955.0	2.0	Outcome1	5.29	6.9	3045.75	Yes		-1.6106077765194398				ISIRate	Gain
59.0	3	74.028	0.03	1106.34	-0.25	0.0	19.3737	3.0	955.0	0.52	Outcome2	1.1	-0.25	0.0	No	2.0	-1.35343525858815	1.75	75.778		GetAnswer	Mixed
59.0	3	75.8	0.022	1108.112	-0.25	0.0	19.3737	4.0	955.0	0.52	Outcome2	1.1	-0.25	0.0	No		-1.35343525858815				ShowChoice	Mixed
59.0	3	79.812	0.012	1112.124	-0.25	0.0	19.3737	1.0	955.0	0.52	Outcome2	1.1	-0.25	0.0	No		-1.35343525858815				ShowResult	Mixed
59.0	3	80.832	0.02	1113.144	-0.25	0.0	19.3737	5.064	955.0	0.52	Outcome2	1.1	-0.25	0.0	No		-1.35343525858815				ISITrial	Mixed
60.0	3	85.914	0.018	1118.226	7.5	0.2	20.3112	3.0	955.0	2.8	Outcome1	7.5	0.4	3562.5	Yes	2.0	7.098527746319371	1.622	87.536		GetAnswer	Gain
60.0	3	87.552	0.015	1119.864	7.5	0.2	20.3112	4.0	955.0	2.8	Outcome1	7.5	0.4	3562.5	Yes		7.098527746319371				ShowChoice	Gain
60.0	3	91.564	0.012	1123.876	7.5	0.2	20.3112	1.0	955.0	2.8	Outcome1	7.5	0.4	3562.5	Yes		7.098527746319371				ShowResult	Gain
60.0	3	92.584	0.02	1124.896	7.5	0.2	20.3112	8.0	955.0	2.8	Outcome1	7.5	0.4	3562.5	Yes		7.098527746319371				ISITrial	Gain
60.0	3	104.185	0.015	1136.497	7.5	0.2	20.3112	3.964	955.0	2.8	Outcome1	7.5	0.4	3562.5	Yes		7.098527746319371			684.0	TrialHappiness	Gain
60.0	3	108.197	4.012	1140.509	7.5	0.2	20.3112	6.25	955.0	2.8	Outcome1	7.5	0.4	3562.5	Yes		7.098527746319371				ISIRate	Gain
61.0	3	114.466	0.019	1146.778	1.0	1.0	20.4362	3.0	955.0	1.82	Certain	4.7	-2.26	0.0	No	4.0	6.96149490373726	2.063	116.529		GetAnswer	Gain
61.0	3	116.555	0.026	1148.867	1.0	1.0	20.4362	4.0	955.0	1.82	Certain	4.7	-2.26	0.0	No		6.96149490373726				ShowChoice	Gain
61.0	3	120.567	0.012	1152.879	1.0	1.0	20.4362	1.0	955.0	1.82	Certain	4.7	-2.26	0.0	No		6.96149490373726				ShowResult	Gain
61.0	3	121.587	0.02	1153.899	1.0	1.0	20.4362	4.586	955.0	1.82	Certain	4.7	-2.26	0.0	No		6.96149490373726				ISITrial	Gain
62.0	3	126.201	0.028	1158.513	4.3	0.0	20.9737	3.0	955.0	2.0	Outcome2	-2.97	4.3	3748.75	Yes	2.0	7.26840317100793	2.562	128.763		GetAnswer	Mixed
62.0	3	128.775	0.012	1161.087	4.3	0.0	20.9737	4.0	955.0	2.0	Outcome2	-2.97	4.3	3748.75	Yes		7.26840317100793				ShowChoice	Mixed
62.0	3	132.787	0.012	1165.099	4.3	0.0	20.9737	1.0	955.0	2.0	Outcome2	-2.97	4.3	3748.75	Yes		7.26840317100793				ShowResult	Mixed
62.0	3	133.807	0.02	1166.119	4.3	0.0	20.9737	5.212	955.0	2.0	Outcome2	-2.97	4.3	3748.75	Yes		7.26840317100793				ISITrial	Mixed
62.0	3	142.818	0.029	1175.13	4.3	0.0	20.9737	1.711	955.0	2.0	Outcome2	-2.97	4.3	3748.75	Yes	2{-2}2{-2}2{-2}	7.26840317100793	1.711	144.529	608.0	TrialHappiness	Mixed
62.0	3	146.83	4.012	1179.142	4.3	0.0	20.9737	6.995	955.0	2.0	Outcome2	-2.97	4.3	3748.75	Yes		7.26840317100793				ISIRate	Mixed
63.0	3	153.851	0.026	1186.163	-1.0	-1.0	20.8487	3.0	955.0	0.66	Certain	-5.57	3.3	0.0	No	4.0	8.86636466591166	1.802	155.653		GetAnswer	Mixed
63.0	3	155.673	0.02	1187.985	-1.0	-1.0	20.8487	4.0	955.0	0.66	Certain	-5.57	3.3	0.0	No		8.86636466591166				ShowChoice	Mixed
63.0	3	159.685	0.012	1191.997	-1.0	-1.0	20.8487	1.0	955.0	0.66	Certain	-5.57	3.3	0.0	No		8.86636466591166				ShowResult	Mixed
63.0	3	160.705	0.02	1193.017	-1.0	-1.0	20.8487	5.595	955.0	0.66	Certain	-5.57	3.3	0.0	No		8.86636466591166				ISITrial	Mixed
64.0	3	166.321	0.021	1198.633	-1.0	-1.0	20.7237	3.0	955.0	0.52	Certain	-6.16	3.1	0.0	No	4.0	9.25934314835787	2.01	168.331		GetAnswer	Mixed
64.0	3	168.344	0.013	1200.656	-1.0	-1.0	20.7237	4.0	955.0	0.52	Certain	-6.16	3.1	0.0	No		9.25934314835787				ShowChoice	Mixed
64.0	3	172.356	0.012	1204.668	-1.0	-1.0	20.7237	1.0	955.0	0.52	Certain	-6.16	3.1	0.0	No		9.25934314835787				ShowResult	Mixed
64.0	3	173.376	0.02	1205.688	-1.0	-1.0	20.7237	5.47	955.0	0.52	Certain	-6.16	3.1	0.0	No		9.25934314835787				ISITrial	Mixed
65.0	3	178.876	0.03	1211.188	10.1	0.22	21.9862	3.0	955.0	4.2	Outcome2	0.45	10.1	2996.75	Yes	2.0	9.65232163080408	1.859	180.735		GetAnswer	Gain
65.0	3	180.748	0.013	1213.06	10.1	0.22	21.9862	4.0	955.0	4.2	Outcome2	0.45	10.1	2996.75	Yes		9.65232163080408				ShowChoice	Gain
65.0	3	184.76	0.012	1217.072	10.1	0.22	21.9862	1.0	955.0	4.2	Outcome2	0.45	10.1	2996.75	Yes		9.65232163080408				ShowResult	Gain
65.0	3	185.78	0.02	1218.092	10.1	0.22	21.9862	3.344	955.0	4.2	Outcome2	0.45	10.1	2996.75	Yes		9.65232163080408				ISITrial	Gain
65.0	3	192.166	0.029	1224.478	10.1	0.22	21.9862	1.794	955.0	4.2	Outcome2	0.45	10.1	2996.75	Yes		9.65232163080408			712.0	TrialHappiness	Gain
65.0	3	196.178	4.012	1228.49	10.1	0.22	21.9862	3.987	955.0	4.2	Outcome2	0.45	10.1	2996.75	Yes		9.65232163080408				ISIRate	Gain
66.0	3	200.19	0.025	1232.502	-4.0	-4.0	21.4862	3.0	955.0	1.2	Certain	-0.1	-8.38	0.0	No	4.0	8.27859569648924	1.452	201.642		GetAnswer	Mixed
66.0	3	201.661	0.019	1233.973	-4.0	-4.0	21.4862	4.0	955.0	1.2	Certain	-0.1	-8.38	0.0	No		8.27859569648924				ShowChoice	Mixed
66.0	3	205.673	0.012	1237.985	-4.0	-4.0	21.4862	1.0	955.0	1.2	Certain	-0.1	-8.38	0.0	No		8.27859569648924				ShowResult	Mixed
66.0	3	206.692	0.019	1239.004	-4.0	-4.0	21.4862	3.959	955.0	1.2	Certain	-0.1	-8.38	0.0	No		8.27859569648924				ISITrial	Mixed
67.0	3	210.671	0.02	1242.983	9.5	0.48	22.6737	3.0	955.0	2.8	Outcome1	9.5	0.95	2918.5	Yes	2.0	8.55379388448471	1.678	212.349		GetAnswer	Gain
67.0	3	212.376	0.027	1244.688	9.5	0.48	22.6737	4.0	955.0	2.8	Outcome1	9.5	0.95	2918.5	Yes		8.55379388448471				ShowChoice	Gain
67.0	3	216.388	0.012	1248.7	9.5	0.48	22.6737	1.0	955.0	2.8	Outcome1	9.5	0.95	2918.5	Yes		8.55379388448471				ShowResult	Gain
67.0	3	217.408	0.02	1249.72	9.5	0.48	22.6737	4.199	955.0	2.8	Outcome1	9.5	0.95	2918.5	Yes		8.55379388448471				ISITrial	Gain
67.0	3	224.563	0.024	1256.875	9.5	0.48	22.6737	2.45	955.0	2.8	Outcome1	9.5	0.95	2918.5	Yes		8.55379388448471			660.0	TrialHappiness	Gain
67.0	3	228.575	4.012	1260.887	9.5	0.48	22.6737	3.674	955.0	2.8	Outcome1	9.5	0.95	2918.5	Yes		8.55379388448471				ISIRate	Gain
68.0	3	232.269	0.02	1264.581	9.31	4.66	23.8375	3.0	955.0	2.0	Outcome1	9.31	10.9	0.0	No	2.0	-1.5889014722536798	1.062	233.331		GetAnswer	Loss
68.0	3	233.356	0.025	1265.668	9.31	4.66	23.8375	4.0	955.0	2.0	Outcome1	9.31	10.9	0.0	No		-1.5889014722536798				ShowChoice	Loss
68.0	3	237.368	0.012	1269.68	9.31	4.66	23.8375	1.0	955.0	2.0	Outcome1	9.31	10.9	0.0	No		-1.5889014722536798				ShowResult	Loss
68.0	3	238.388	0.02	1270.7	9.31	4.66	23.8375	2.185	955.0	2.0	Outcome1	9.31	10.9	0.0	No		-1.5889014722536798				ISITrial	Loss
69.0	3	240.594	0.021	1272.906	13.9	1.92	25.575	3.0	955.0	3.6	Outcome1	13.9	3.85	0.0	No	2.0	10.0464326160815	0.888	241.482		GetAnswer	Loss
69.0	3	241.497	0.014	1273.809	13.9	1.92	25.575	4.0	955.0	3.6	Outcome1	13.9	3.85	0.0	No		10.0464326160815				ShowChoice	Loss
69.0	3	245.509	0.012	1277.821	13.9	1.92	25.575	1.0	955.0	3.6	Outcome1	13.9	3.85	0.0	No		10.0464326160815				ShowResult	Loss
69.0	3	246.529	0.02	1278.841	13.9	1.92	25.575	2.0	955.0	3.6	Outcome1	13.9	3.85	0.0	No		10.0464326160815				ISITrial	Loss
70.0	3	248.551	0.022	1280.863	-3.0	-3.0	25.2	3.0	955.0	1.2	Certain	-8.48	1.9	3651.25	Yes	4.0	10.380520951302401	2.396	250.947		GetAnswer	Mixed
70.0	3	250.959	0.012	1283.271	-3.0	-3.0	25.2	4.0	955.0	1.2	Certain	-8.48	1.9	3651.25	Yes		10.380520951302401				ShowChoice	Mixed
70.0	3	254.971	0.012	1287.283	-3.0	-3.0	25.2	1.0	955.0	1.2	Certain	-8.48	1.9	3651.25	Yes		10.380520951302401				ShowResult	Mixed
70.0	3	255.99	0.019	1288.302	-3.0	-3.0	25.2	2.623	955.0	1.2	Certain	-8.48	1.9	3651.25	Yes		10.380520951302401				ISITrial	Mixed
70.0	3	262.309	0.026	1294.621	-3.0	-3.0	25.2	3.552	955.0	1.2	Certain	-8.48	1.9	3651.25	Yes		10.380520951302401			684.0	TrialHappiness	Mixed
70.0	3	266.321	4.012	1298.633	-3.0	-3.0	25.2	6.605	955.0	1.2	Certain	-8.48	1.9	3651.25	Yes		10.380520951302401				ISIRate	Mixed
71.0	3	272.941	0.015	1305.253	-5.0	-5.0	24.575	3.0	955.0	2.0	Certain	-10.01	0.3	0.0	No	4.0	10.3069082672707	1.573	274.514		GetAnswer	Mixed
71.0	3	274.529	0.015	1306.841	-5.0	-5.0	24.575	4.0	955.0	2.0	Certain	-10.01	0.3	0.0	No		10.3069082672707				ShowChoice	Mixed
71.0	3	278.541	0.012	1310.853	-5.0	-5.0	24.575	1.0	955.0	2.0	Certain	-10.01	0.3	0.0	No		10.3069082672707				ShowResult	Mixed
71.0	3	279.561	0.02	1311.873	-5.0	-5.0	24.575	5.499	955.0	2.0	Certain	-10.01	0.3	0.0	No		10.3069082672707				ISITrial	Mixed
72.0	3	285.078	0.018	1317.39	6.1	1.0	25.3375	3.0	955.0	4.2	Outcome1	6.1	-4.51	3080.5	Yes	2.0	10.6138165345413	1.904	286.982		GetAnswer	Gain
72.0	3	287.0	0.018	1319.312	6.1	1.0	25.3375	4.0	955.0	4.2	Outcome1	6.1	-4.51	3080.5	Yes		10.6138165345413				ShowChoice	Gain
72.0	3	291.012	0.012	1323.324	6.1	1.0	25.3375	1.0	955.0	4.2	Outcome1	6.1	-4.51	3080.5	Yes		10.6138165345413				ShowResult	Gain
72.0	3	292.032	0.02	1324.344	6.1	1.0	25.3375	5.672	955.0	4.2	Outcome1	6.1	-4.51	3080.5	Yes		10.6138165345413				ISITrial	Gain
72.0	3	300.825	0.029	1333.137	6.1	1.0	25.3375	3.014	955.0	4.2	Outcome1	6.1	-4.51	3080.5	Yes		10.6138165345413			656.0	TrialHappiness	Gain
72.0	3	304.837	4.012	1337.149	6.1	1.0	25.3375	4.322	955.0	4.2	Outcome1	6.1	-4.51	3080.5	Yes		10.6138165345413				ISIRate	Gain
73.0	3	309.183	0.024	1341.495	-0.75	-0.75	25.2437	3.0	955.0	3.6	Certain	9.9	-1.5	0.0	No	4.0	11.39637599094	2.165	311.348		GetAnswer	Gain
73.0	3	311.373	0.024	1343.685	-0.75	-0.75	25.2437	4.0	955.0	3.6	Certain	9.9	-1.5	0.0	No		11.39637599094				ShowChoice	Gain
73.0	3	315.385	0.012	1347.697	-0.75	-0.75	25.2437	1.0	955.0	3.6	Certain	9.9	-1.5	0.0	No		11.39637599094				ShowResult	Gain
73.0	3	316.405	0.02	1348.717	-0.75	-0.75	25.2437	4.616	955.0	3.6	Certain	9.9	-1.5	0.0	No		11.39637599094				ISITrial	Gain
74.0	3	321.052	0.031	1353.364	11.33	5.66	26.6599	3.0	955.0	2.22	Outcome2	13.1	11.33	3056.25	Yes	2.0	-1.7680256700641799	0.892	321.944		GetAnswer	Loss
74.0	3	321.972	0.028	1354.284	11.33	5.66	26.6599	4.0	955.0	2.22	Outcome2	13.1	11.33	3056.25	Yes		-1.7680256700641799				ShowChoice	Loss
74.0	3	325.984	0.012	1358.296	11.33	5.66	26.6599	1.0	955.0	2.22	Outcome2	13.1	11.33	3056.25	Yes		-1.7680256700641799				ShowResult	Loss
74.0	3	327.003	0.019	1359.315	11.33	5.66	26.6599	3.909	955.0	2.22	Outcome2	13.1	11.33	3056.25	Yes		-1.7680256700641799				ISITrial	Loss
74.0	3	334.008	0.02	1366.32	11.33	5.66	26.6599	0.759	955.0	2.22	Outcome2	13.1	11.33	3056.25	Yes		-1.7680256700641799			608.0	TrialHappiness	Loss
74.0	3	338.02	4.012	1370.332	11.33	5.66	26.6599	4.225	955.0	2.22	Outcome2	13.1	11.33	3056.25	Yes		-1.7680256700641799				ISIRate	Loss
75.0	3	342.266	0.021	1374.578	6.91	3.46	27.5237	3.0	955.0	2.0	Outcome2	8.9	6.91	0.0	No	2.0	-1.9910343525858798	1.067	343.333		GetAnswer	Gain
75.0	3	343.352	0.019	1375.664	6.91	3.46	27.5237	4.0	955.0	2.0	Outcome2	8.9	6.91	0.0	No		-1.9910343525858798				ShowChoice	Gain
75.0	3	347.364	0.012	1379.676	6.91	3.46	27.5237	1.0	955.0	2.0	Outcome2	8.9	6.91	0.0	No		-1.9910343525858798				ShowResult	Gain
75.0	3	348.384	0.02	1380.696	6.91	3.46	27.5237	4.979	955.0	2.0	Outcome2	8.9	6.91	0.0	No		-1.9910343525858798				ISITrial	Gain
76.0	3	353.383	0.02	1385.695	-1.0	-1.0	27.3987	3.0	955.0	3.16	Certain	-7.58	5.7	0.0	No	4.0	13.281993204983001	1.993	355.376		GetAnswer	Gain
76.0	3	355.389	0.013	1387.701	-1.0	-1.0	27.3987	4.0	955.0	3.16	Certain	-7.58	5.7	0.0	No		13.281993204983001				ShowChoice	Gain
76.0	3	359.401	0.012	1391.713	-1.0	-1.0	27.3987	1.0	955.0	3.16	Certain	-7.58	5.7	0.0	No		13.281993204983001				ShowResult	Gain
76.0	3	360.42	0.019	1392.732	-1.0	-1.0	27.3987	3.931	955.0	3.16	Certain	-7.58	5.7	0.0	No		13.281993204983001				ISITrial	Gain
77.0	3	364.382	0.031	1396.694	12.7	-0.49	28.9862	3.0	955.0	1.82	Outcome2	-0.98	12.7	4000.0	Yes	2.0	13.674971687429199	1.49	365.872		GetAnswer	Loss
77.0	3	365.887	0.015	1398.199	12.7	-0.49	28.9862	4.0	955.0	1.82	Outcome2	-0.98	12.7	4000.0	Yes		13.674971687429199				ShowChoice	Loss
77.0	3	369.899	0.012	1402.211	12.7	-0.49	28.9862	1.0	955.0	1.82	Outcome2	-0.98	12.7	4000.0	Yes		13.674971687429199				ShowResult	Loss
77.0	3	370.918	0.019	1403.23	12.7	-0.49	28.9862	7.022	955.0	1.82	Outcome2	-0.98	12.7	4000.0	Yes		13.674971687429199				ISITrial	Loss
77.0	3	381.985	0.029	1414.297	12.7	-0.49	28.9862	2.13	955.0	1.82	Outcome2	-0.98	12.7	4000.0	Yes		13.674971687429199			728.0	TrialHappiness	Loss
77.0	3	385.997	4.012	1418.309	12.7	-0.49	28.9862	8.0	955.0	1.82	Outcome2	-0.98	12.7	4000.0	Yes		13.674971687429199				ISIRate	Loss
78.0	3	394.021	0.024	1426.333	8.3	2.0	30.0237	3.0	955.0	5.0	Outcome2	-3.73	8.3	0.0	No	2.0	12.029445073612699	0.84	394.861		GetAnswer	Gain
78.0	3	394.874	0.013	1427.186	8.3	2.0	30.0237	4.0	955.0	5.0	Outcome2	-3.73	8.3	0.0	No		12.029445073612699				ShowChoice	Gain
78.0	3	398.886	0.012	1431.198	8.3	2.0	30.0237	1.0	955.0	5.0	Outcome2	-3.73	8.3	0.0	No		12.029445073612699				ShowResult	Gain
78.0	3	399.905	0.019	1432.217	8.3	2.0	30.0237	2.078	955.0	5.0	Outcome2	-3.73	8.3	0.0	No		12.029445073612699				ISITrial	Gain
79.0	3	402.012	0.029	1434.324	13.7	0.7	31.7362	3.0	955.0	3.16	Outcome1	13.7	1.41	2729.5	Yes	2.0	12.286523216308	1.113	403.125		GetAnswer	Loss
79.0	3	403.148	0.023	1435.46	13.7	0.7	31.7362	4.0	955.0	3.16	Outcome1	13.7	1.41	2729.5	Yes		12.286523216308				ShowChoice	Loss
79.0	3	407.161	0.013	1439.473	13.7	0.7	31.7362	1.0	955.0	3.16	Outcome1	13.7	1.41	2729.5	Yes		12.286523216308				ShowResult	Loss
79.0	3	408.18	0.019	1440.492	13.7	0.7	31.7362	3.829	955.0	3.16	Outcome1	13.7	1.41	2729.5	Yes		12.286523216308				ISITrial	Loss
79.0	3	414.783	0.028	1447.095	13.7	0.7	31.7362	1.21	955.0	3.16	Outcome1	13.7	1.41	2729.5	Yes		12.286523216308			824.0	TrialHappiness	Loss
79.0	3	418.795	4.012	1451.107	13.7	0.7	31.7362	2.918	955.0	3.16	Outcome1	13.7	1.41	2729.5	Yes		12.286523216308				ISIRate	Loss
80.0	3	421.738	0.025	1454.05	7.9	2.0	32.7237	3.0	955.0	3.6	Outcome1	7.9	-3.01	0.0	No	2.0	10.912797281993198	1.505	423.243		GetAnswer	Gain
80.0	3	423.259	0.016	1455.571	7.9	2.0	32.7237	4.0	955.0	3.6	Outcome1	7.9	-3.01	0.0	No		10.912797281993198				ShowChoice	Gain
80.0	3	427.271	0.012	1459.583	7.9	2.0	32.7237	1.0	955.0	3.6	Outcome1	7.9	-3.01	0.0	No		10.912797281993198				ShowResult	Gain
80.0	3	428.291	0.02	1460.603	7.9	2.0	32.7237	3.336	955.0	3.6	Outcome1	7.9	-3.01	0.0	No		10.912797281993198				ISITrial	Gain
81.0	3	431.651	0.024	1463.963	5.3	0.0	33.3862	3.0	955.0	2.48	Outcome2	-5.76	5.3	3923.75	Yes	2.0	11.061155152887899	2.745	434.396		GetAnswer	Gain
81.0	3	434.409	0.013	1466.721	5.3	0.0	33.3862	4.0	955.0	2.48	Outcome2	-5.76	5.3	3923.75	Yes		11.061155152887899				ShowChoice	Gain
81.0	3	438.421	0.012	1470.733	5.3	0.0	33.3862	1.0	955.0	2.48	Outcome2	-5.76	5.3	3923.75	Yes		11.061155152887899				ShowResult	Gain
81.0	3	439.441	0.02	1471.753	5.3	0.0	33.3862	3.919	955.0	2.48	Outcome2	-5.76	5.3	3923.75	Yes		11.061155152887899				ISITrial	Gain
81.0	3	447.331	0.021	1479.643	5.3	0.0	33.3862	1.411	955.0	2.48	Outcome2	-5.76	5.3	3923.75	Yes		11.061155152887899			752.0	TrialHappiness	Gain
81.0	3	451.343	4.012	1483.655	5.3	0.0	33.3862	7.695	955.0	2.48	Outcome2	-5.76	5.3	3923.75	Yes		11.061155152887899				ISIRate	Gain
	3	459.066	0.028	1491.378				3.0													CurrentEarnings	
	3	462.092	0.026	1494.404				-0.001								{SPACE}		105.094	567.186		Goodbye	
