trial_number	block	onset	onset_delay	onset_unadjusted	amount_change	certain_amount	current_amount	duration	mood_target	multiplier	outcome	outcome1_amount	outcome2_amount	question_duration	rating	response	rpe	rt	rt_time	slider_response	trial_phase	trial_type
	0	-36.374	0.027	22.265				-0.001								4.0		1.121	-35.253		Welcome	
	0	-35.224	0.029	23.415				5.0													LifeHappyPreview	
	0	-30.193	0.031	28.446				3.057												368.0	LifeHappiness	
	0	-22.812	0.017	35.827				4.0													BlockHappyPreview	
	0	-18.797	0.015	39.842				2.206												352.0	BlockStartHappiness	
	0	-1.686	0.022	56.953				-0.001								5.0					ScanWait	
	1	0.014	0.014	58.653				10.0													GetReady	
1.0	1	10.044	0.03	68.683	2.12	2.12	10.265	3.0	955.0	1.82	Certain	6.7	4.25	0.0	No	4.0	-2.44705549263873	0.756	10.8		GetAnswer	Gain
1.0	1	10.827	0.027	69.466	2.12	2.12	10.265	4.0	955.0	1.82	Certain	6.7	4.25	0.0	No		-2.44705549263873				ShowChoice	Gain
1.0	1	14.842	0.015	73.481	2.12	2.12	10.265	1.0	955.0	1.82	Certain	6.7	4.25	0.0	No		-2.44705549263873				ShowResult	Gain
1.0	1	15.858	0.016	74.497	2.12	2.12	10.265	2.431	955.0	1.82	Certain	6.7	4.25	0.0	No		-2.44705549263873				ISITrial	Gain
2.0	1	18.307	0.018	76.946	3.8	3.8	10.74	3.0	955.0	4.2	Certain	7.6	10.1	0.0	No	4.0	-2.5039637599094	1.221	19.528		GetAnswer	Gain
2.0	1	19.54	0.012	78.179	3.8	3.8	10.74	4.0	955.0	4.2	Certain	7.6	10.1	0.0	No		-2.5039637599094				ShowChoice	Gain
2.0	1	23.556	0.016	82.195	3.8	3.8	10.74	1.0	955.0	4.2	Certain	7.6	10.1	0.0	No		-2.5039637599094				ShowResult	Gain
2.0	1	24.572	0.016	83.211	3.8	3.8	10.74	4.568	955.0	4.2	Certain	7.6	10.1	0.0	No		-2.5039637599094				ISITrial	Gain
3.0	1	29.17	0.03	87.809	2.17	2.17	11.0112	3.0	955.0	2.0	Certain	6.9	4.34	2868.0	Yes	4.0	-2.5608720271800696	1.371	30.541		GetAnswer	Gain
3.0	1	30.553	0.012	89.192	2.17	2.17	11.0112	4.0	955.0	2.0	Certain	6.9	4.34	2868.0	Yes		-2.5608720271800696				ShowChoice	Gain
3.0	1	34.568	0.015	93.207	2.17	2.17	11.0112	1.0	955.0	2.0	Certain	6.9	4.34	2868.0	Yes		-2.5608720271800696				ShowResult	Gain
3.0	1	35.585	0.017	94.224	2.17	2.17	11.0112	3.243	955.0	2.0	Certain	6.9	4.34	2868.0	Yes		-2.5608720271800696				ISITrial	Gain
3.0	1	41.749	0.031	100.388	2.17	2.17	11.0112	3.004	955.0	2.0	Certain	6.9	4.34	2868.0	Yes		-2.5608720271800696			304.0	TrialHappiness	Gain
3.0	1	45.765	4.016	104.404	2.17	2.17	11.0112	3.472	955.0	2.0	Certain	6.9	4.34	2868.0	Yes		-2.5608720271800696				ISIRate	Gain
4.0	1	49.263	0.026	107.902	-1.0	-1.0	10.8862	3.0	955.0	2.22	Certain	11.1	-2.01	0.0	No	4.0	13.1075877689694	1.079	50.342		GetAnswer	Loss
4.0	1	50.363	0.021	109.002	-1.0	-1.0	10.8862	4.0	955.0	2.22	Certain	11.1	-2.01	0.0	No		13.1075877689694				ShowChoice	Loss
4.0	1	54.378	0.015	113.017	-1.0	-1.0	10.8862	1.0	955.0	2.22	Certain	11.1	-2.01	0.0	No		13.1075877689694				ShowResult	Loss
4.0	1	55.395	0.017	114.034	-1.0	-1.0	10.8862	2.011	955.0	2.22	Certain	11.1	-2.01	0.0	No		13.1075877689694				ISITrial	Loss
5.0	1	57.427	0.021	116.066	-2.0	-2.0	10.6362	3.0	955.0	1.82	Certain	-9.14	4.7	2582.5	Yes	4.0	13.844847112117801	0.684	58.111		GetAnswer	Gain
5.0	1	58.127	0.015	116.766	-2.0	-2.0	10.6362	4.0	955.0	1.82	Certain	-9.14	4.7	2582.5	Yes		13.844847112117801				ShowChoice	Gain
5.0	1	62.142	0.015	120.781	-2.0	-2.0	10.6362	1.0	955.0	1.82	Certain	-9.14	4.7	2582.5	Yes		13.844847112117801				ShowResult	Gain
5.0	1	63.159	0.017	121.798	-2.0	-2.0	10.6362	5.129	955.0	1.82	Certain	-9.14	4.7	2582.5	Yes		13.844847112117801				ISITrial	Gain
5.0	1	70.906	0.017	129.545	-2.0	-2.0	10.6362	1.554	955.0	1.82	Certain	-9.14	4.7	2582.5	Yes		13.844847112117801			336.0	TrialHappiness	Gain
5.0	1	74.921	4.015	133.56	-2.0	-2.0	10.6362	2.33	955.0	1.82	Certain	-9.14	4.7	2582.5	Yes		13.844847112117801				ISIRate	Gain
6.0	1	77.271	0.02	135.91	-0.67	-0.67	10.5524	3.0	955.0	1.82	Certain	-1.34	12.7	0.0	No	4.0	14.038505096262698	0.826	78.097		GetAnswer	Loss
6.0	1	78.12	0.023	136.759	-0.67	-0.67	10.5524	4.0	955.0	1.82	Certain	-1.34	12.7	0.0	No		14.038505096262698				ShowChoice	Loss
6.0	1	82.136	0.016	140.775	-0.67	-0.67	10.5524	1.0	955.0	1.82	Certain	-1.34	12.7	0.0	No		14.038505096262698				ShowResult	Loss
6.0	1	83.152	0.016	141.791	-0.67	-0.67	10.5524	6.232	955.0	1.82	Certain	-1.34	12.7	0.0	No		14.038505096262698				ISITrial	Loss
7.0	1	89.416	0.032	148.055	-8.0	-8.0	9.5524	3.0	955.0	0.66	Certain	-0.7	-15.44	0.0	No	4.0	14.7395243488109	0.31	89.726		GetAnswer	Mixed
7.0	1	89.75	0.024	148.389	-8.0	-8.0	9.5524	4.0	955.0	0.66	Certain	-0.7	-15.44	0.0	No		14.7395243488109				ShowChoice	Mixed
7.0	1	93.765	0.015	152.404	-8.0	-8.0	9.5524	1.0	955.0	0.66	Certain	-0.7	-15.44	0.0	No		14.7395243488109				ShowResult	Mixed
7.0	1	94.781	0.016	153.42	-8.0	-8.0	9.5524	2.305	955.0	0.66	Certain	-0.7	-15.44	0.0	No		14.7395243488109				ISITrial	Mixed
8.0	1	97.114	0.028	155.753	-1.0	-1.0	9.4274	3.0	955.0	4.2	Certain	-9.34	6.1	3112.5	Yes	4.0	15.440543601359	0.679	97.793		GetAnswer	Gain
8.0	1	97.814	0.021	156.453	-1.0	-1.0	9.4274	4.0	955.0	4.2	Certain	-9.34	6.1	3112.5	Yes		15.440543601359				ShowChoice	Gain
8.0	1	101.829	0.015	160.468	-1.0	-1.0	9.4274	1.0	955.0	4.2	Certain	-9.34	6.1	3112.5	Yes		15.440543601359				ShowResult	Gain
8.0	1	102.845	0.016	161.484	-1.0	-1.0	9.4274	3.506	955.0	4.2	Certain	-9.34	6.1	3112.5	Yes		15.440543601359				ISITrial	Gain
8.0	1	109.51	0.021	168.149	-1.0	-1.0	9.4274	0.0	955.0	4.2	Certain	-9.34	6.1	3112.5	Yes		15.440543601359			512.0	TrialHappiness	Gain
8.0	1	113.525	4.015	172.164	-1.0	-1.0	9.4274	4.45	955.0	4.2	Certain	-9.34	6.1	3112.5	Yes		15.440543601359				ISIRate	Gain
9.0	1	118.007	0.032	176.646	-1.0	-1.0	9.3024	3.0	955.0	1.0	Certain	-0.3	-2.57	0.0	No	4.0	-2.2666100415251003	0.388	118.395		GetAnswer	Mixed
9.0	1	118.423	0.028	177.062	-1.0	-1.0	9.3024	4.0	955.0	1.0	Certain	-0.3	-2.57	0.0	No		-2.2666100415251003				ShowChoice	Mixed
9.0	1	122.438	0.015	181.077	-1.0	-1.0	9.3024	1.0	955.0	1.0	Certain	-0.3	-2.57	0.0	No		-2.2666100415251003				ShowResult	Mixed
9.0	1	123.455	0.017	182.094	-1.0	-1.0	9.3024	2.0	955.0	1.0	Certain	-0.3	-2.57	0.0	No		-2.2666100415251003				ISITrial	Mixed
10.0	1	125.487	0.032	184.126	-4.0	-4.0	8.8024	3.0	955.0	1.5	Certain	-11.55	2.1	4000.0	Yes	4.0	13.653454133635302	1.813	127.3		GetAnswer	Mixed
10.0	1	127.32	0.02	185.959	-4.0	-4.0	8.8024	4.0	955.0	1.5	Certain	-11.55	2.1	4000.0	Yes		13.653454133635302				ShowChoice	Mixed
10.0	1	131.335	0.015	189.974	-4.0	-4.0	8.8024	1.0	955.0	1.5	Certain	-11.55	2.1	4000.0	Yes		13.653454133635302				ShowResult	Mixed
10.0	1	132.352	0.017	190.991	-4.0	-4.0	8.8024	2.0	955.0	1.5	Certain	-11.55	2.1	4000.0	Yes		13.653454133635302				ISITrial	Mixed
10.0	1	138.4	0.032	197.039	-4.0	-4.0	8.8024	3.503	955.0	1.5	Certain	-11.55	2.1	4000.0	Yes		13.653454133635302			384.0	TrialHappiness	Mixed
10.0	1	142.415	4.015	201.054	-4.0	-4.0	8.8024	8.0	955.0	1.5	Certain	-11.55	2.1	4000.0	Yes		13.653454133635302				ISIRate	Mixed
11.0	1	150.445	0.03	209.084	2.72	2.72	9.1424	3.0	955.0	5.0	Certain	8.3	5.43	0.0	No	4.0	-2.8696677991694997	0.948	151.393		GetAnswer	Gain
11.0	1	151.412	0.019	210.051	2.72	2.72	9.1424	4.0	955.0	5.0	Certain	8.3	5.43	0.0	No		-2.8696677991694997				ShowChoice	Gain
11.0	1	155.427	0.015	214.066	2.72	2.72	9.1424	1.0	955.0	5.0	Certain	8.3	5.43	0.0	No		-2.8696677991694997				ShowResult	Gain
11.0	1	156.443	0.016	215.082	2.72	2.72	9.1424	3.324	955.0	5.0	Certain	8.3	5.43	0.0	No		-2.8696677991694997				ISITrial	Gain
12.0	1	159.792	0.025	218.431	-9.0	-9.0	8.0174	3.0	955.0	0.52	Certain	-0.9	-17.88	2618.75	Yes	4.0	16.9762174405436	0.916	160.708		GetAnswer	Mixed
12.0	1	160.725	0.017	219.364	-9.0	-9.0	8.0174	4.0	955.0	0.52	Certain	-0.9	-17.88	2618.75	Yes		16.9762174405436				ShowChoice	Mixed
12.0	1	164.741	0.016	223.38	-9.0	-9.0	8.0174	1.0	955.0	0.52	Certain	-0.9	-17.88	2618.75	Yes		16.9762174405436				ShowResult	Mixed
12.0	1	165.757	0.016	224.396	-9.0	-9.0	8.0174	6.642	955.0	0.52	Certain	-0.9	-17.88	2618.75	Yes		16.9762174405436				ISITrial	Mixed
12.0	1	175.054	0.014	233.693	-9.0	-9.0	8.0174	1.589	955.0	0.52	Certain	-0.9	-17.88	2618.75	Yes		16.9762174405436			304.0	TrialHappiness	Mixed
12.0	1	179.069	4.015	237.708	-9.0	-9.0	8.0174	2.475	955.0	0.52	Certain	-0.9	-17.88	2618.75	Yes		16.9762174405436				ISIRate	Mixed
13.0	1	181.568	0.024	240.207	3.5	3.5	8.4549	3.0	955.0	5.0	Certain	10.3	7.0	0.0	No	4.0	-3.3020951302378303	0.828	182.396		GetAnswer	Gain
13.0	1	182.418	0.022	241.057	3.5	3.5	8.4549	4.0	955.0	5.0	Certain	10.3	7.0	0.0	No		-3.3020951302378303				ShowChoice	Gain
13.0	1	186.433	0.015	245.072	3.5	3.5	8.4549	1.0	955.0	5.0	Certain	10.3	7.0	0.0	No		-3.3020951302378303				ShowResult	Gain
13.0	1	187.449	0.016	246.088	3.5	3.5	8.4549	3.48	955.0	5.0	Certain	10.3	7.0	0.0	No		-3.3020951302378303				ISITrial	Gain
14.0	1	190.948	0.019	249.587	-3.21	-3.21	8.0537	3.0	955.0	2.48	Certain	-6.42	13.3	0.0	No	4.0	19.719139297848198	0.737	191.685		GetAnswer	Loss
14.0	1	191.698	0.013	250.337	-3.21	-3.21	8.0537	4.0	955.0	2.48	Certain	-6.42	13.3	0.0	No		19.719139297848198				ShowChoice	Loss
14.0	1	195.713	0.015	254.352	-3.21	-3.21	8.0537	1.0	955.0	2.48	Certain	-6.42	13.3	0.0	No		19.719139297848198				ShowResult	Loss
14.0	1	196.73	0.017	255.369	-3.21	-3.21	8.0537	5.019	955.0	2.48	Certain	-6.42	13.3	0.0	No		19.719139297848198				ISITrial	Loss
15.0	1	201.778	0.029	260.417	-4.0	-4.0	7.5537	3.0	955.0	2.8	Certain	5.5	-14.96	3348.5	Yes	4.0	20.4563986409966	1.6	203.378		GetAnswer	Gain
15.0	1	203.394	0.016	262.033	-4.0	-4.0	7.5537	4.0	955.0	2.8	Certain	5.5	-14.96	3348.5	Yes		20.4563986409966				ShowChoice	Gain
15.0	1	207.409	0.015	266.048	-4.0	-4.0	7.5537	1.0	955.0	2.8	Certain	5.5	-14.96	3348.5	Yes		20.4563986409966				ShowResult	Gain
15.0	1	208.426	0.017	267.065	-4.0	-4.0	7.5537	7.614	955.0	2.8	Certain	5.5	-14.96	3348.5	Yes		20.4563986409966				ISITrial	Gain
15.0	1	219.422	0.018	278.061	-4.0	-4.0	7.5537	0.0	955.0	2.8	Certain	5.5	-14.96	3348.5	Yes		20.4563986409966			512.0	TrialHappiness	Gain
15.0	1	223.437	4.015	282.076	-4.0	-4.0	7.5537	5.394	955.0	2.8	Certain	5.5	-14.96	3348.5	Yes		20.4563986409966				ISIRate	Gain
16.0	1	228.852	0.021	287.491	0.0	0.0	7.5537	3.0	955.0	2.22	Certain	-8.56	9.1	0.0	No	4.0	17.6602491506229	0.422	229.274		GetAnswer	Gain
16.0	1	229.285	0.011	287.924	0.0	0.0	7.5537	4.0	955.0	2.22	Certain	-8.56	9.1	0.0	No		17.6602491506229				ShowChoice	Gain
16.0	1	233.3	0.015	291.939	0.0	0.0	7.5537	1.0	955.0	2.22	Certain	-8.56	9.1	0.0	No		17.6602491506229				ShowResult	Gain
16.0	1	234.317	0.017	292.956	0.0	0.0	7.5537	3.008	955.0	2.22	Certain	-8.56	9.1	0.0	No		17.6602491506229				ISITrial	Gain
17.0	1	237.349	0.024	295.988	-8.0	-8.0	6.5537	3.0	955.0	0.4	Certain	-17.26	0.9	3041.5	Yes	4.0	18.1619479048698	1.643	238.992		GetAnswer	Mixed
17.0	1	239.015	0.023	297.654	-8.0	-8.0	6.5537	4.0	955.0	0.4	Certain	-17.26	0.9	3041.5	Yes		18.1619479048698				ShowChoice	Mixed
17.0	1	243.03	0.015	301.669	-8.0	-8.0	6.5537	1.0	955.0	0.4	Certain	-17.26	0.9	3041.5	Yes		18.1619479048698				ShowResult	Mixed
17.0	1	244.047	0.017	302.686	-8.0	-8.0	6.5537	3.566	955.0	0.4	Certain	-17.26	0.9	3041.5	Yes		18.1619479048698				ISITrial	Mixed
17.0	1	250.695	0.024	309.334	-8.0	-8.0	6.5537	0.0	955.0	0.4	Certain	-17.26	0.9	3041.5	Yes		18.1619479048698			512.0	TrialHappiness	Mixed
17.0	1	254.71	4.015	313.349	-8.0	-8.0	6.5537	4.166	955.0	0.4	Certain	-17.26	0.9	3041.5	Yes		18.1619479048698				ISIRate	Mixed
18.0	1	258.892	0.016	317.531	7.1	-2.0	7.4412	3.0	955.0	2.22	Outcome2	-11.56	7.1	0.0	No	2.0	18.6636466591166	2.867	261.759		GetAnswer	Gain
18.0	1	261.774	0.015	320.413	7.1	-2.0	7.4412	4.0	955.0	2.22	Outcome2	-11.56	7.1	0.0	No		18.6636466591166				ShowChoice	Gain
18.0	1	265.789	0.015	324.428	7.1	-2.0	7.4412	1.0	955.0	2.22	Outcome2	-11.56	7.1	0.0	No		18.6636466591166				ShowResult	Gain
18.0	1	266.806	0.017	325.445	7.1	-2.0	7.4412	6.787	955.0	2.22	Outcome2	-11.56	7.1	0.0	No		18.6636466591166				ISITrial	Gain
19.0	1	273.62	0.027	332.259	1.0	1.0	7.5662	3.0	955.0	2.48	Certain	-7.87	11.3	0.0	No	4.0	19.1653454133635	0.907	274.527		GetAnswer	Loss
19.0	1	274.553	0.026	333.192	1.0	1.0	7.5662	4.0	955.0	2.48	Certain	-7.87	11.3	0.0	No		19.1653454133635				ShowChoice	Loss
19.0	1	278.568	0.015	337.207	1.0	1.0	7.5662	1.0	955.0	2.48	Certain	-7.87	11.3	0.0	No		19.1653454133635				ShowResult	Loss
19.0	1	279.585	0.017	338.224	1.0	1.0	7.5662	2.0	955.0	2.48	Certain	-7.87	11.3	0.0	No		19.1653454133635				ISITrial	Loss
20.0	1	281.617	0.032	340.256	2.64	2.64	7.8962	3.0	955.0	4.2	Certain	8.1	5.29	2921.25	Yes	4.0	-2.80955077387693	1.144	282.761		GetAnswer	Gain
20.0	1	282.784	0.023	341.423	2.64	2.64	7.8962	4.0	955.0	4.2	Certain	8.1	5.29	2921.25	Yes		-2.80955077387693				ShowChoice	Gain
20.0	1	286.799	0.015	345.438	2.64	2.64	7.8962	1.0	955.0	4.2	Certain	8.1	5.29	2921.25	Yes		-2.80955077387693				ShowResult	Gain
20.0	1	287.815	0.016	346.454	2.64	2.64	7.8962	8.0	955.0	4.2	Certain	8.1	5.29	2921.25	Yes		-2.80955077387693				ISITrial	Gain
20.0	1	298.778	0.028	357.417	2.64	2.64	7.8962	3.845	955.0	4.2	Certain	8.1	5.29	2921.25	Yes		-2.80955077387693			248.0	TrialHappiness	Gain
20.0	1	302.81	4.032	361.449	2.64	2.64	7.8962	3.685	955.0	4.2	Certain	8.1	5.29	2921.25	Yes		-2.80955077387693				ISIRate	Gain
21.0	1	306.525	0.03	365.164	-1.0	-1.0	7.7712	3.0	955.0	1.82	Certain	-13.95	10.7	0.0	No	4.0	24.6534541336353	1.913	308.438		GetAnswer	Loss
21.0	1	308.458	0.02	367.097	-1.0	-1.0	7.7712	4.0	955.0	1.82	Certain	-13.95	10.7	0.0	No		24.6534541336353				ShowChoice	Loss
21.0	1	312.473	0.015	371.112	-1.0	-1.0	7.7712	1.0	955.0	1.82	Certain	-13.95	10.7	0.0	No		24.6534541336353				ShowResult	Loss
21.0	1	313.49	0.017	372.129	-1.0	-1.0	7.7712	3.555	955.0	1.82	Certain	-13.95	10.7	0.0	No		24.6534541336353				ISITrial	Loss
22.0	1	317.072	0.027	375.711	-12.0	-12.0	6.2712	3.0	955.0	0.3	Certain	0.7	-24.75	3219.5	Yes	4.0	25.454133635334102	0.428	317.5		GetAnswer	Mixed
22.0	1	317.522	0.022	376.161	-12.0	-12.0	6.2712	4.0	955.0	0.3	Certain	0.7	-24.75	3219.5	Yes		25.454133635334102				ShowChoice	Mixed
22.0	1	321.537	0.015	380.176	-12.0	-12.0	6.2712	1.0	955.0	0.3	Certain	0.7	-24.75	3219.5	Yes		25.454133635334102				ShowResult	Mixed
22.0	1	322.553	0.016	381.192	-12.0	-12.0	6.2712	6.793	955.0	0.3	Certain	0.7	-24.75	3219.5	Yes		25.454133635334102				ISITrial	Mixed
22.0	1	332.616	0.028	391.255	-12.0	-12.0	6.2712	2.522	955.0	0.3	Certain	0.7	-24.75	3219.5	Yes		25.454133635334102			72.0	TrialHappiness	Mixed
22.0	1	336.632	4.016	395.271	-12.0	-12.0	6.2712	4.878	955.0	0.3	Certain	0.7	-24.75	3219.5	Yes		25.454133635334102				ISIRate	Mixed
23.0	1	341.53	0.02	400.169	6.3	-8.0	7.0587	3.0	955.0	5.0	Outcome1	6.3	-22.94	0.0	No	2.0	29.2446206115515	1.264	342.794		GetAnswer	Gain
23.0	1	342.813	0.019	401.452	6.3	-8.0	7.0587	4.0	955.0	5.0	Outcome1	6.3	-22.94	0.0	No		29.2446206115515				ShowChoice	Gain
23.0	1	346.828	0.015	405.467	6.3	-8.0	7.0587	1.0	955.0	5.0	Outcome1	6.3	-22.94	0.0	No		29.2446206115515				ShowResult	Gain
23.0	1	347.845	0.017	406.484	6.3	-8.0	7.0587	8.0	955.0	5.0	Outcome1	6.3	-22.94	0.0	No		29.2446206115515				ISITrial	Gain
24.0	1	355.875	0.03	414.514	-5.0	-5.0	6.4337	3.0	955.0	3.16	Certain	9.7	-20.54	3255.0	Yes	4.0	30.2446206115515	0.49	356.365		GetAnswer	Gain
24.0	1	356.392	0.027	415.031	-5.0	-5.0	6.4337	4.0	955.0	3.16	Certain	9.7	-20.54	3255.0	Yes		30.2446206115515				ShowChoice	Gain
24.0	1	360.407	0.015	419.046	-5.0	-5.0	6.4337	1.0	955.0	3.16	Certain	9.7	-20.54	3255.0	Yes		30.2446206115515				ShowResult	Gain
24.0	1	361.423	0.016	420.062	-5.0	-5.0	6.4337	2.0	955.0	3.16	Certain	9.7	-20.54	3255.0	Yes		30.2446206115515				ISITrial	Gain
24.0	1	366.721	0.027	425.36	-5.0	-5.0	6.4337	3.806	955.0	3.16	Certain	9.7	-20.54	3255.0	Yes		30.2446206115515			280.0	TrialHappiness	Gain
24.0	1	370.737	4.016	429.376	-5.0	-5.0	6.4337	5.02	955.0	3.16	Certain	9.7	-20.54	3255.0	Yes		30.2446206115515				ISIRate	Gain
25.0	1	375.785	0.028	434.424	0.0	0.0	6.4337	3.0	955.0	0.3	Certain	2.7	-1.39	0.0	No	4.0	-4.09295960739902	0.787	376.572		GetAnswer	Mixed
25.0	1	376.585	0.013	435.224	0.0	0.0	6.4337	4.0	955.0	0.3	Certain	2.7	-1.39	0.0	No		-4.09295960739902				ShowChoice	Mixed
25.0	1	380.6	0.015	439.239	0.0	0.0	6.4337	1.0	955.0	0.3	Certain	2.7	-1.39	0.0	No		-4.09295960739902				ShowResult	Mixed
25.0	1	381.616	0.016	440.255	0.0	0.0	6.4337	3.749	955.0	0.3	Certain	2.7	-1.39	0.0	No		-4.09295960739902				ISITrial	Mixed
26.0	1	385.382	0.017	444.021	-10.0	-10.0	5.1837	3.0	955.0	1.2	Certain	-24.58	3.9	0.0	No	4.0	28.475651189127998	0.481	385.863		GetAnswer	Mixed
26.0	1	385.882	0.019	444.521	-10.0	-10.0	5.1837	4.0	955.0	1.2	Certain	-24.58	3.9	0.0	No		28.475651189127998				ShowChoice	Mixed
26.0	1	389.897	0.015	448.536	-10.0	-10.0	5.1837	1.0	955.0	1.2	Certain	-24.58	3.9	0.0	No		28.475651189127998				ShowResult	Mixed
26.0	1	390.913	0.016	449.552	-10.0	-10.0	5.1837	7.834	955.0	1.2	Certain	-24.58	3.9	0.0	No		28.475651189127998				ISITrial	Mixed
27.0	1	398.777	0.03	457.416	-11.0	-11.0	3.8087	3.0	955.0	0.66	Certain	3.3	-25.94	2549.75	Yes	4.0	29.240090600226498	1.151	399.928		GetAnswer	Mixed
27.0	1	399.943	0.015	458.582	-11.0	-11.0	3.8087	4.0	955.0	0.66	Certain	3.3	-25.94	2549.75	Yes		29.240090600226498				ShowChoice	Mixed
27.0	1	403.959	0.016	462.598	-11.0	-11.0	3.8087	1.0	955.0	0.66	Certain	3.3	-25.94	2549.75	Yes		29.240090600226498				ShowResult	Mixed
27.0	1	404.975	0.016	463.614	-11.0	-11.0	3.8087	4.225	955.0	0.66	Certain	3.3	-25.94	2549.75	Yes		29.240090600226498				ISITrial	Mixed
27.0	1	411.789	0.015	470.428	-11.0	-11.0	3.8087	2.599	955.0	0.66	Certain	3.3	-25.94	2549.75	Yes		29.240090600226498			72.0	TrialHappiness	Mixed
27.0	1	415.805	4.016	474.444	-11.0	-11.0	3.8087	2.199	955.0	0.66	Certain	3.3	-25.94	2549.75	Yes		29.240090600226498				ISIRate	Mixed
	1	418.021	0.017	476.66				-0.001								{SPACE}		94.503	512.524		Rest	
	1	512.538	0.014	571.177				4.0													BlockHappyPreview	
	1	516.553	0.015	575.192				1.823												320.0	BlockStartHappiness	
	1	524.034	0.02	582.673				-0.001								5.0		6.822	530.856		ScanWait	
	2	0.026	0.026	589.521				10.0													GetReady	
28.0	2	10.056	0.03	599.551	-2.0	-2.0	3.5587	3.0	70.0	1.2	Certain	-4.35	-0.1	0.0	No	4.0	-4.25170068027211	0.394	10.45		GetAnswer	Mixed
28.0	2	10.472	0.022	599.967	-2.0	-2.0	3.5587	4.0	70.0	1.2	Certain	-4.35	-0.1	0.0	No		-4.25170068027211				ShowChoice	Mixed
28.0	2	14.488	0.016	603.983	-2.0	-2.0	3.5587	1.0	70.0	1.2	Certain	-4.35	-0.1	0.0	No		-4.25170068027211				ShowResult	Mixed
28.0	2	15.504	0.016	604.999	-2.0	-2.0	3.5587	3.575	70.0	1.2	Certain	-4.35	-0.1	0.0	No		-4.25170068027211				ISITrial	Mixed
29.0	2	19.103	0.024	608.598	0.0	0.0	3.5587	3.0	70.0	0.66	Certain	-0.72	0.32	3529.0	Yes	4.0	1.03930461073318	0.556	19.659		GetAnswer	Mixed
29.0	2	19.669	0.01	609.164	0.0	0.0	3.5587	4.0	70.0	0.66	Certain	-0.72	0.32	3529.0	Yes		1.03930461073318				ShowChoice	Mixed
29.0	2	23.684	0.015	613.179	0.0	0.0	3.5587	1.0	70.0	0.66	Certain	-0.72	0.32	3529.0	Yes		1.03930461073318				ShowResult	Mixed
29.0	2	24.701	0.017	614.196	0.0	0.0	3.5587	3.955	70.0	0.66	Certain	-0.72	0.32	3529.0	Yes		1.03930461073318				ISITrial	Mixed
29.0	2	32.215	0.02	621.71	0.0	0.0	3.5587	1.974	70.0	0.66	Certain	-0.72	0.32	3529.0	Yes		1.03930461073318			288.0	TrialHappiness	Mixed
29.0	2	36.23	4.015	625.725	0.0	0.0	3.5587	6.116	70.0	0.66	Certain	-0.72	0.32	3529.0	Yes		1.03930461073318				ISIRate	Mixed
30.0	2	42.378	0.032	631.873	0.23	2.0	3.5875	3.0	70.0	1.68	Outcome2	4.5	0.23	0.0	No	2.0	-4.27437641723356	0.495	42.873		GetAnswer	Gain
30.0	2	42.895	0.022	632.39	0.23	2.0	3.5875	4.0	70.0	1.68	Outcome2	4.5	0.23	0.0	No		-4.27437641723356				ShowChoice	Gain
30.0	2	46.91	0.015	636.405	0.23	2.0	3.5875	1.0	70.0	1.68	Outcome2	4.5	0.23	0.0	No		-4.27437641723356				ShowResult	Gain
30.0	2	47.926	0.016	637.421	0.23	2.0	3.5875	4.453	70.0	1.68	Outcome2	4.5	0.23	0.0	No		-4.27437641723356				ISITrial	Gain
31.0	2	52.408	0.029	641.903	1.0	1.0	3.7125	3.0	70.0	0.82	Certain	3.5	-1.02	2503.25	Yes	4.0	-4.52154195011338	1.267	53.675		GetAnswer	Mixed
31.0	2	53.691	0.015	643.186	1.0	1.0	3.7125	4.0	70.0	0.82	Certain	3.5	-1.02	2503.25	Yes		-4.52154195011338				ShowChoice	Mixed
31.0	2	57.706	0.015	647.201	1.0	1.0	3.7125	1.0	70.0	0.82	Certain	3.5	-1.02	2503.25	Yes		-4.52154195011338				ShowResult	Mixed
31.0	2	58.722	0.016	648.217	1.0	1.0	3.7125	4.786	70.0	0.82	Certain	3.5	-1.02	2503.25	Yes		-4.52154195011338				ISITrial	Mixed
31.0	2	66.053	0.029	655.548	1.0	1.0	3.7125	0.938	70.0	0.82	Certain	3.5	-1.02	2503.25	Yes		-4.52154195011338			328.0	TrialHappiness	Mixed
31.0	2	70.069	4.016	659.564	1.0	1.0	3.7125	2.013	70.0	0.82	Certain	3.5	-1.02	2503.25	Yes		-4.52154195011338				ISIRate	Mixed
32.0	2	72.101	0.019	661.596	-4.0	-4.0	3.2125	3.0	70.0	0.2	Certain	-6.95	-1.5	0.0	No	4.0	-5.44897959183673	1.073	73.174		GetAnswer	Mixed
32.0	2	73.201	0.027	662.696	-4.0	-4.0	3.2125	4.0	70.0	0.2	Certain	-6.95	-1.5	0.0	No		-5.44897959183673				ShowChoice	Mixed
32.0	2	77.216	0.015	666.711	-4.0	-4.0	3.2125	1.0	70.0	0.2	Certain	-6.95	-1.5	0.0	No		-5.44897959183673				ShowResult	Mixed
32.0	2	78.232	0.016	667.727	-4.0	-4.0	3.2125	2.0	70.0	0.2	Certain	-6.95	-1.5	0.0	No		-5.44897959183673				ISITrial	Mixed
33.0	2	80.248	0.016	669.743	1.0	1.0	3.3375	3.0	70.0	1.0	Certain	3.7	-2.04	0.0	No	4.0	-5.7414965986394595	1.013	81.261		GetAnswer	Mixed
33.0	2	81.281	0.02	670.776	1.0	1.0	3.3375	4.0	70.0	1.0	Certain	3.7	-2.04	0.0	No		-5.7414965986394595				ShowChoice	Mixed
33.0	2	85.297	0.016	674.792	1.0	1.0	3.3375	1.0	70.0	1.0	Certain	3.7	-2.04	0.0	No		-5.7414965986394595				ShowResult	Mixed
33.0	2	86.313	0.016	675.808	1.0	1.0	3.3375	5.099	70.0	1.0	Certain	3.7	-2.04	0.0	No		-5.7414965986394595				ISITrial	Mixed
34.0	2	91.428	0.016	680.923	1.0	1.0	3.4625	3.0	70.0	3.6	Certain	0.29	1.48	3231.5	Yes	4.0	1.1853741496598602	1.079	92.507		GetAnswer	Gain
34.0	2	92.528	0.021	682.023	1.0	1.0	3.4625	4.0	70.0	3.6	Certain	0.29	1.48	3231.5	Yes		1.1853741496598602				ShowChoice	Gain
34.0	2	96.543	0.015	686.038	1.0	1.0	3.4625	1.0	70.0	3.6	Certain	0.29	1.48	3231.5	Yes		1.1853741496598602				ShowResult	Gain
34.0	2	97.559	0.016	687.054	1.0	1.0	3.4625	4.784	70.0	3.6	Certain	0.29	1.48	3231.5	Yes		1.1853741496598602				ISITrial	Gain
34.0	2	105.606	0.016	695.101	1.0	1.0	3.4625	3.921	70.0	3.6	Certain	0.29	1.48	3231.5	Yes		1.1853741496598602			400.0	TrialHappiness	Gain
34.0	2	109.622	4.016	699.117	1.0	1.0	3.4625	4.926	70.0	3.6	Certain	0.29	1.48	3231.5	Yes		1.1853741496598602				ISIRate	Gain
35.0	2	114.57	0.022	704.065	3.18	3.18	3.86	3.0	70.0	3.6	Certain	6.35	13.9	0.0	No	4.0	-7.55102040816327	0.917	115.487		GetAnswer	Loss
35.0	2	115.503	0.016	704.998	3.18	3.18	3.86	4.0	70.0	3.6	Certain	6.35	13.9	0.0	No		-7.55102040816327				ShowChoice	Loss
35.0	2	119.518	0.015	709.013	3.18	3.18	3.86	1.0	70.0	3.6	Certain	6.35	13.9	0.0	No		-7.55102040816327				ShowResult	Loss
35.0	2	120.535	0.017	710.03	3.18	3.18	3.86	2.098	70.0	3.6	Certain	6.35	13.9	0.0	No		-7.55102040816327				ISITrial	Loss
36.0	2	122.651	0.018	712.146	-0.22	-0.22	3.8325	3.0	70.0	2.8	Certain	7.5	-0.43	3335.75	Yes	4.0	-7.92517006802721	0.484	123.135		GetAnswer	Gain
36.0	2	123.15	0.015	712.645	-0.22	-0.22	3.8325	4.0	70.0	2.8	Certain	7.5	-0.43	3335.75	Yes		-7.92517006802721				ShowChoice	Gain
36.0	2	127.166	0.016	716.661	-0.22	-0.22	3.8325	1.0	70.0	2.8	Certain	7.5	-0.43	3335.75	Yes		-7.92517006802721				ShowResult	Gain
36.0	2	128.182	0.016	717.677	-0.22	-0.22	3.8325	5.156	70.0	2.8	Certain	7.5	-0.43	3335.75	Yes		-7.92517006802721				ISITrial	Gain
36.0	2	136.729	0.029	726.224	-0.22	-0.22	3.8325	0.0	70.0	2.8	Certain	7.5	-0.43	3335.75	Yes		-7.92517006802721			512.0	TrialHappiness	Gain
36.0	2	140.744	4.015	730.239	-0.22	-0.22	3.8325	5.343	70.0	2.8	Certain	7.5	-0.43	3335.75	Yes		-7.92517006802721				ISIRate	Gain
37.0	2	146.109	0.022	735.604	2.0	2.0	4.0825	3.0	70.0	5.0	Certain	3.08	1.06	0.0	No	4.0	2.01965230536659	2.162	148.271		GetAnswer	Loss
37.0	2	148.292	0.021	737.787	2.0	2.0	4.0825	4.0	70.0	5.0	Certain	3.08	1.06	0.0	No		2.01965230536659				ShowChoice	Loss
37.0	2	152.307	0.015	741.802	2.0	2.0	4.0825	1.0	70.0	5.0	Certain	3.08	1.06	0.0	No		2.01965230536659				ShowResult	Loss
37.0	2	153.323	0.016	742.818	2.0	2.0	4.0825	3.598	70.0	5.0	Certain	3.08	1.06	0.0	No		2.01965230536659				ISITrial	Loss
38.0	2	156.939	0.018	746.434	0.7	0.7	4.17	3.0	70.0	4.2	Certain	1.39	12.1	0.0	No	4.0	-10.7052154195011	1.256	158.195		GetAnswer	Loss
38.0	2	158.222	0.027	747.717	0.7	0.7	4.17	4.0	70.0	4.2	Certain	1.39	12.1	0.0	No		-10.7052154195011				ShowChoice	Loss
38.0	2	162.237	0.015	751.732	0.7	0.7	4.17	1.0	70.0	4.2	Certain	1.39	12.1	0.0	No		-10.7052154195011				ShowResult	Loss
38.0	2	163.253	0.016	752.748	0.7	0.7	4.17	4.787	70.0	4.2	Certain	1.39	12.1	0.0	No		-10.7052154195011				ISITrial	Loss
39.0	2	168.068	0.028	757.563	-1.0	-1.0	4.045	3.0	70.0	1.5	Certain	4.1	-7.11	2864.25	Yes	4.0	-11.206349206349199	1.196	169.264		GetAnswer	Mixed
39.0	2	169.285	0.021	758.78	-1.0	-1.0	4.045	4.0	70.0	1.5	Certain	4.1	-7.11	2864.25	Yes		-11.206349206349199				ShowChoice	Mixed
39.0	2	173.3	0.015	762.795	-1.0	-1.0	4.045	1.0	70.0	1.5	Certain	4.1	-7.11	2864.25	Yes		-11.206349206349199				ShowResult	Mixed
39.0	2	174.316	0.016	763.811	-1.0	-1.0	4.045	2.348	70.0	1.5	Certain	4.1	-7.11	2864.25	Yes		-11.206349206349199				ISITrial	Mixed
39.0	2	179.564	0.018	769.059	-1.0	-1.0	4.045	3.289	70.0	1.5	Certain	4.1	-7.11	2864.25	Yes		-11.206349206349199			600.0	TrialHappiness	Mixed
39.0	2	183.58	4.016	773.075	-1.0	-1.0	4.045	3.457	70.0	1.5	Certain	4.1	-7.11	2864.25	Yes		-11.206349206349199				ISIRate	Mixed
40.0	2	187.062	0.025	776.557	-4.0	-4.0	3.545	3.0	70.0	0.2	Certain	2.5	-10.7	0.0	No	4.0	-13.2040816326531	0.623	187.685		GetAnswer	Mixed
40.0	2	187.712	0.027	777.207	-4.0	-4.0	3.545	4.0	70.0	0.2	Certain	2.5	-10.7	0.0	No		-13.2040816326531				ShowChoice	Mixed
40.0	2	191.727	0.015	781.222	-4.0	-4.0	3.545	1.0	70.0	0.2	Certain	2.5	-10.7	0.0	No		-13.2040816326531				ShowResult	Mixed
40.0	2	192.743	0.016	782.238	-4.0	-4.0	3.545	3.158	70.0	0.2	Certain	2.5	-10.7	0.0	No		-13.2040816326531				ISITrial	Mixed
41.0	2	195.926	0.025	785.421	2.0	2.0	3.795	3.0	70.0	2.48	Certain	9.3	-4.5	4000.0	Yes	4.0	-13.8049886621315	0.814	196.74		GetAnswer	Gain
41.0	2	196.759	0.019	786.254	2.0	2.0	3.795	4.0	70.0	2.48	Certain	9.3	-4.5	4000.0	Yes		-13.8049886621315				ShowChoice	Gain
41.0	2	200.774	0.015	790.269	2.0	2.0	3.795	1.0	70.0	2.48	Certain	9.3	-4.5	4000.0	Yes		-13.8049886621315				ShowResult	Gain
41.0	2	201.79	0.016	791.285	2.0	2.0	3.795	4.506	70.0	2.48	Certain	9.3	-4.5	4000.0	Yes		-13.8049886621315				ISITrial	Gain
41.0	2	210.354	0.032	799.849	2.0	2.0	3.795	0.0	70.0	2.48	Certain	9.3	-4.5	4000.0	Yes		-13.8049886621315			512.0	TrialHappiness	Gain
41.0	2	214.369	4.015	803.864	2.0	2.0	3.795	8.0	70.0	2.48	Certain	9.3	-4.5	4000.0	Yes		-13.8049886621315				ISIRate	Gain
42.0	2	222.4	0.031	811.895	1.0	1.0	3.92	3.0	70.0	2.0	Certain	0.47	2.72	0.0	No	4.0	2.24508692365835	1.174	223.574		GetAnswer	Loss
42.0	2	223.599	0.025	813.094	1.0	1.0	3.92	4.0	70.0	2.0	Certain	0.47	2.72	0.0	No		2.24508692365835				ShowChoice	Loss
42.0	2	227.615	0.016	817.11	1.0	1.0	3.92	1.0	70.0	2.0	Certain	0.47	2.72	0.0	No		2.24508692365835				ShowResult	Loss
42.0	2	228.631	0.016	818.126	1.0	1.0	3.92	6.248	70.0	2.0	Certain	0.47	2.72	0.0	No		2.24508692365835				ISITrial	Loss
43.0	2	234.896	0.017	824.391	2.0	2.0	4.17	3.0	70.0	1.68	Certain	3.12	0.83	2775.75	Yes	4.0	2.2868480725623597	0.786	235.682		GetAnswer	Loss
43.0	2	235.695	0.013	825.19	2.0	2.0	4.17	4.0	70.0	1.68	Certain	3.12	0.83	2775.75	Yes		2.2868480725623597				ShowChoice	Loss
43.0	2	239.711	0.016	829.206	2.0	2.0	4.17	1.0	70.0	1.68	Certain	3.12	0.83	2775.75	Yes		2.2868480725623597				ShowResult	Loss
43.0	2	240.727	0.016	830.222	2.0	2.0	4.17	4.596	70.0	1.68	Certain	3.12	0.83	2775.75	Yes		2.2868480725623597				ISITrial	Loss
43.0	2	248.141	0.023	837.636	2.0	2.0	4.17	0.0	70.0	1.68	Certain	3.12	0.83	2775.75	Yes		2.2868480725623597			512.0	TrialHappiness	Loss
43.0	2	252.156	4.015	841.651	2.0	2.0	4.17	3.103	70.0	1.68	Certain	3.12	0.83	2775.75	Yes		2.2868480725623597				ISIRate	Loss
44.0	2	255.289	0.03	844.784	-8.21	-1.0	3.1437	3.0	70.0	3.16	Outcome1	-8.21	5.7	0.0	No		-13.911564625850302				GetAnswer	Gain
44.0	2	258.304	0.015	847.799	-8.21	-1.0	3.1437	4.0	70.0	3.16	Outcome1	-8.21	5.7	0.0	No		-13.911564625850302				ShowChoice	Gain
44.0	2	262.319	0.015	851.814	-8.21	-1.0	3.1437	1.0	70.0	3.16	Outcome1	-8.21	5.7	0.0	No		-13.911564625850302				ShowResult	Gain
44.0	2	263.336	0.017	852.831	-8.21	-1.0	3.1437	2.42	70.0	3.16	Outcome1	-8.21	5.7	0.0	No		-13.911564625850302				ISITrial	Gain
45.0	2	265.785	0.029	855.28	0.0	0.0	3.1437	3.0	70.0	3.16	Certain	7.7	-6.71	0.0	No	4.0	-14.4126984126984	2.073	267.858		GetAnswer	Gain
45.0	2	267.884	0.026	857.379	0.0	0.0	3.1437	4.0	70.0	3.16	Certain	7.7	-6.71	0.0	No		-14.4126984126984				ShowChoice	Gain
45.0	2	271.899	0.015	861.394	0.0	0.0	3.1437	1.0	70.0	3.16	Certain	7.7	-6.71	0.0	No		-14.4126984126984				ShowResult	Gain
45.0	2	272.916	0.017	862.411	0.0	0.0	3.1437	3.144	70.0	3.16	Certain	7.7	-6.71	0.0	No		-14.4126984126984				ISITrial	Gain
46.0	2	276.081	0.021	865.576	-8.0	-8.0	2.1437	3.0	70.0	0.82	Certain	-0.5	-15.41	3841.25	Yes	4.0	-14.9138321995465	1.055	277.136		GetAnswer	Mixed
46.0	2	277.164	0.027	866.659	-8.0	-8.0	2.1437	4.0	70.0	0.82	Certain	-0.5	-15.41	3841.25	Yes		-14.9138321995465				ShowChoice	Mixed
46.0	2	281.18	0.016	870.675	-8.0	-8.0	2.1437	1.0	70.0	0.82	Certain	-0.5	-15.41	3841.25	Yes		-14.9138321995465				ShowResult	Mixed
46.0	2	282.196	0.016	871.691	-8.0	-8.0	2.1437	2.246	70.0	0.82	Certain	-0.5	-15.41	3841.25	Yes		-14.9138321995465				ISITrial	Mixed
46.0	2	288.327	0.024	877.822	-8.0	-8.0	2.1437	2.439	70.0	0.82	Certain	-0.5	-15.41	3841.25	Yes		-14.9138321995465			224.0	TrialHappiness	Mixed
46.0	2	292.343	4.016	881.838	-8.0	-8.0	2.1437	7.365	70.0	0.82	Certain	-0.5	-15.41	3841.25	Yes		-14.9138321995465				ISIRate	Mixed
47.0	2	299.723	0.015	889.218	2.38	1.0	2.4412	3.0	70.0	2.8	Outcome1	2.38	1.1	0.0	No	2.0	1.2838246409675	0.507	300.23		GetAnswer	Gain
47.0	2	300.256	0.026	889.751	2.38	1.0	2.4412	4.0	70.0	2.8	Outcome1	2.38	1.1	0.0	No		1.2838246409675				ShowChoice	Gain
47.0	2	304.272	0.016	893.767	2.38	1.0	2.4412	1.0	70.0	2.8	Outcome1	2.38	1.1	0.0	No		1.2838246409675				ShowResult	Gain
47.0	2	305.288	0.016	894.783	2.38	1.0	2.4412	2.0	70.0	2.8	Outcome1	2.38	1.1	0.0	No		1.2838246409675				ISITrial	Gain
48.0	2	307.304	0.016	896.799	-10.59	-5.0	1.1174	3.0	70.0	1.5	Outcome2	0.1	-10.59	2831.75	Yes		-10.691609977324301				GetAnswer	Mixed
48.0	2	310.32	0.016	899.815	-10.59	-5.0	1.1174	4.0	70.0	1.5	Outcome2	0.1	-10.59	2831.75	Yes		-10.691609977324301				ShowChoice	Mixed
48.0	2	314.335	0.015	903.83	-10.59	-5.0	1.1174	1.0	70.0	1.5	Outcome2	0.1	-10.59	2831.75	Yes		-10.691609977324301				ShowResult	Mixed
48.0	2	315.351	0.016	904.846	-10.59	-5.0	1.1174	3.692	70.0	1.5	Outcome2	0.1	-10.59	2831.75	Yes		-10.691609977324301				ISITrial	Mixed
48.0	2	321.916	0.017	911.411	-10.59	-5.0	1.1174	2.405	70.0	1.5	Outcome2	0.1	-10.59	2831.75	Yes	{-4}4{-4}	-10.691609977324301	2.405	324.321	424.0	TrialHappiness	Mixed
48.0	2	325.931	4.015	915.426	-10.59	-5.0	1.1174	3.327	70.0	1.5	Outcome2	0.1	-10.59	2831.75	Yes		-10.691609977324301				ISIRate	Mixed
49.0	2	329.28	0.022	918.775	-9.17	-2.0	-0.0288	3.0	70.0	2.22	Outcome2	5.1	-9.17	0.0	No		-14.267573696145101				GetAnswer	Gain
49.0	2	332.295	0.015	921.79	-9.17	-2.0	-0.0288	4.0	70.0	2.22	Outcome2	5.1	-9.17	0.0	No		-14.267573696145101				ShowChoice	Gain
49.0	2	336.311	0.016	925.806	-9.17	-2.0	-0.0288	1.0	70.0	2.22	Outcome2	5.1	-9.17	0.0	No		-14.267573696145101				ShowResult	Gain
49.0	2	337.327	0.016	926.822	-9.17	-2.0	-0.0288	8.0	70.0	2.22	Outcome2	5.1	-9.17	0.0	No		-14.267573696145101				ISITrial	Gain
50.0	2	345.358	0.031	934.853	-1.48	-1.48	-0.2138	3.0	70.0	3.16	Certain	11.7	-2.97	3547.25	Yes	4.0	-14.668934240362802	0.842	346.2		GetAnswer	Loss
50.0	2	346.224	0.024	935.719	-1.48	-1.48	-0.2138	4.0	70.0	3.16	Certain	11.7	-2.97	3547.25	Yes		-14.668934240362802				ShowChoice	Loss
50.0	2	350.239	0.015	939.734	-1.48	-1.48	-0.2138	1.0	70.0	3.16	Certain	11.7	-2.97	3547.25	Yes		-14.668934240362802				ShowResult	Loss
50.0	2	351.256	0.017	940.751	-1.48	-1.48	-0.2138	7.537	70.0	3.16	Certain	11.7	-2.97	3547.25	Yes		-14.668934240362802				ISITrial	Loss
50.0	2	362.385	0.018	951.88	-1.48	-1.48	-0.2138	3.371	70.0	3.16	Certain	11.7	-2.97	3547.25	Yes		-14.668934240362802			264.0	TrialHappiness	Loss
50.0	2	366.4	4.015	955.895	-1.48	-1.48	-0.2138	6.189	70.0	3.16	Certain	11.7	-2.97	3547.25	Yes		-14.668934240362802				ISIRate	Loss
51.0	2	372.615	0.026	962.11	2.0	2.0	0.0362	3.0	70.0	2.0	Certain	8.9	-3.45	0.0	No	4.0	-12.3492063492063	1.254	373.869		GetAnswer	Gain
51.0	2	373.881	0.012	963.376	2.0	2.0	0.0362	4.0	70.0	2.0	Certain	8.9	-3.45	0.0	No		-12.3492063492063				ShowChoice	Gain
51.0	2	377.897	0.016	967.392	2.0	2.0	0.0362	1.0	70.0	2.0	Certain	8.9	-3.45	0.0	No		-12.3492063492063				ShowResult	Gain
51.0	2	378.913	0.016	968.408	2.0	2.0	0.0362	5.508	70.0	2.0	Certain	8.9	-3.45	0.0	No		-12.3492063492063				ISITrial	Gain
52.0	2	384.444	0.023	973.939	2.0	2.0	0.2862	3.0	70.0	2.0	Certain	3.22	1.66	0.0	No	4.0	1.5606575963718798	0.457	384.901		GetAnswer	Loss
52.0	2	384.927	0.026	974.422	2.0	2.0	0.2862	4.0	70.0	2.0	Certain	3.22	1.66	0.0	No		1.5606575963718798				ShowChoice	Loss
52.0	2	388.943	0.016	978.438	2.0	2.0	0.2862	1.0	70.0	2.0	Certain	3.22	1.66	0.0	No		1.5606575963718798				ShowResult	Loss
52.0	2	389.959	0.016	979.454	2.0	2.0	0.2862	5.913	70.0	2.0	Certain	3.22	1.66	0.0	No		1.5606575963718798				ISITrial	Loss
53.0	2	395.89	0.018	985.385	0.0	0.0	0.2862	3.0	70.0	1.2	Certain	-1.1	0.48	2996.75	Yes	4.0	1.57898715041572	1.669	397.559		GetAnswer	Mixed
53.0	2	397.573	0.014	987.068	0.0	0.0	0.2862	4.0	70.0	1.2	Certain	-1.1	0.48	2996.75	Yes		1.57898715041572				ShowChoice	Mixed
53.0	2	401.588	0.015	991.083	0.0	0.0	0.2862	1.0	70.0	1.2	Certain	-1.1	0.48	2996.75	Yes		1.57898715041572				ShowResult	Mixed
53.0	2	402.605	0.017	992.1	0.0	0.0	0.2862	3.66	70.0	1.2	Certain	-1.1	0.48	2996.75	Yes		1.57898715041572				ISITrial	Mixed
53.0	2	409.302	0.018	998.797	0.0	0.0	0.2862	0.756	70.0	1.2	Certain	-1.1	0.48	2996.75	Yes		1.57898715041572			72.0	TrialHappiness	Mixed
53.0	2	413.334	4.032	1002.829	0.0	0.0	0.2862	3.987	70.0	1.2	Certain	-1.1	0.48	2996.75	Yes		1.57898715041572				ISIRate	Mixed
54.0	2	417.35	0.029	1006.845	-2.0	-2.0	0.0362	3.0	70.0	0.4	Certain	2.9	-6.84	0.0	No	4.0	-9.7437641723356	2.535	419.885		GetAnswer	Mixed
54.0	2	419.899	0.014	1009.394	-2.0	-2.0	0.0362	4.0	70.0	0.4	Certain	2.9	-6.84	0.0	No		-9.7437641723356				ShowChoice	Mixed
54.0	2	423.914	0.015	1013.409	-2.0	-2.0	0.0362	1.0	70.0	0.4	Certain	2.9	-6.84	0.0	No		-9.7437641723356				ShowResult	Mixed
54.0	2	424.93	0.016	1014.425	-2.0	-2.0	0.0362	8.0	70.0	0.4	Certain	2.9	-6.84	0.0	No		-9.7437641723356				ISITrial	Mixed
	2	432.961	0.031	1022.456				-0.001								4		26.918	459.879		Rest	
	2	459.902	0.023	1049.397				4.0													BlockHappyPreview	
	2	463.917	0.015	1053.412				3.91								2{-2}{-4}4		3.91	467.827	592.0	BlockStartHappiness	
	2	514.916	0.023	1104.411				-0.001								5.0		4.222	519.138		ScanWait	
	3	0.027	0.027	1108.66				10.0													GetReady	
55.0	3	10.057	0.03	1118.69	2.0	2.0	0.2862	3.0	955.0	2.0	Certain	-1.27	4.9	2533.25	Yes	4.0	6.166477916194791	0.555	10.612		GetAnswer	Gain
55.0	3	10.623	0.011	1119.256	2.0	2.0	0.2862	4.0	955.0	2.0	Certain	-1.27	4.9	2533.25	Yes		6.166477916194791				ShowChoice	Gain
55.0	3	14.639	0.016	1123.272	2.0	2.0	0.2862	1.0	955.0	2.0	Certain	-1.27	4.9	2533.25	Yes		6.166477916194791				ShowResult	Gain
55.0	3	15.655	0.016	1124.288	2.0	2.0	0.2862	7.709	955.0	2.0	Certain	-1.27	4.9	2533.25	Yes		6.166477916194791				ISITrial	Gain
55.0	3	25.935	0.016	1134.568	2.0	2.0	0.2862	3.872	955.0	2.0	Certain	-1.27	4.9	2533.25	Yes		6.166477916194791			432.0	TrialHappiness	Gain
55.0	3	29.95	4.015	1138.583	2.0	2.0	0.2862	2.133	955.0	2.0	Certain	-1.27	4.9	2533.25	Yes		6.166477916194791				ISIRate	Gain
56.0	3	32.116	0.033	1140.749	1.9	1.9	0.5237	3.0	955.0	2.22	Certain	13.1	3.8	0.0	No	4.0	9.2955832389581	0.872	32.988		GetAnswer	Loss
56.0	3	32.999	0.011	1141.632	1.9	1.9	0.5237	4.0	955.0	2.22	Certain	13.1	3.8	0.0	No		9.2955832389581				ShowChoice	Loss
56.0	3	37.014	0.015	1145.647	1.9	1.9	0.5237	1.0	955.0	2.22	Certain	13.1	3.8	0.0	No		9.2955832389581				ShowResult	Loss
56.0	3	38.03	0.016	1146.663	1.9	1.9	0.5237	4.697	955.0	2.22	Certain	13.1	3.8	0.0	No		9.2955832389581				ISITrial	Loss
57.0	3	42.746	0.019	1151.379	2.3	-2.0	0.8112	3.0	955.0	2.0	Outcome1	2.3	-7.59	0.0	No		9.887882219705551				GetAnswer	Mixed
57.0	3	45.761	0.015	1154.394	2.3	-2.0	0.8112	4.0	955.0	2.0	Outcome1	2.3	-7.59	0.0	No		9.887882219705551				ShowChoice	Mixed
57.0	3	49.776	0.015	1158.409	2.3	-2.0	0.8112	1.0	955.0	2.0	Outcome1	2.3	-7.59	0.0	No		9.887882219705551				ShowResult	Mixed
57.0	3	50.793	0.017	1159.426	2.3	-2.0	0.8112	4.291	955.0	2.0	Outcome1	2.3	-7.59	0.0	No		9.887882219705551				ISITrial	Mixed
58.0	3	55.108	0.024	1163.741	0.01	0.01	0.8124	3.0	955.0	1.68	Certain	10.5	0.02	3045.75	Yes	4.0	10.480181200453	1.07	56.178		GetAnswer	Loss
58.0	3	56.191	0.013	1164.824	0.01	0.01	0.8124	4.0	955.0	1.68	Certain	10.5	0.02	3045.75	Yes		10.480181200453				ShowChoice	Loss
58.0	3	60.206	0.015	1168.839	0.01	0.01	0.8124	1.0	955.0	1.68	Certain	10.5	0.02	3045.75	Yes		10.480181200453				ShowResult	Loss
58.0	3	61.223	0.017	1169.856	0.01	0.01	0.8124	2.037	955.0	1.68	Certain	10.5	0.02	3045.75	Yes		10.480181200453				ISITrial	Loss
58.0	3	66.337	0.019	1174.97	0.01	0.01	0.8124	1.49	955.0	1.68	Certain	10.5	0.02	3045.75	Yes		10.480181200453			360.0	TrialHappiness	Loss
58.0	3	70.353	4.016	1178.986	0.01	0.01	0.8124	4.183	955.0	1.68	Certain	10.5	0.02	3045.75	Yes		10.480181200453				ISIRate	Loss
59.0	3	74.551	0.015	1183.184	5.45	5.45	1.4936	3.0	955.0	2.8	Certain	10.9	13.5	0.0	No	4.0	-2.59692336730842	0.891	75.442		GetAnswer	Loss
59.0	3	75.468	0.026	1184.101	5.45	5.45	1.4936	4.0	955.0	2.8	Certain	10.9	13.5	0.0	No		-2.59692336730842				ShowChoice	Loss
59.0	3	79.483	0.015	1188.116	5.45	5.45	1.4936	1.0	955.0	2.8	Certain	10.9	13.5	0.0	No		-2.59692336730842				ShowResult	Loss
59.0	3	80.499	0.016	1189.132	5.45	5.45	1.4936	5.064	955.0	2.8	Certain	10.9	13.5	0.0	No		-2.59692336730842				ISITrial	Loss
60.0	3	85.581	0.018	1194.214	-3.0	-3.0	1.1186	3.0	955.0	0.52	Certain	-9.87	3.1	3562.5	Yes	4.0	12.969422423556098	0.872	86.453		GetAnswer	Mixed
60.0	3	86.464	0.011	1195.097	-3.0	-3.0	1.1186	4.0	955.0	0.52	Certain	-9.87	3.1	3562.5	Yes		12.969422423556098				ShowChoice	Mixed
60.0	3	90.479	0.015	1199.112	-3.0	-3.0	1.1186	1.0	955.0	0.52	Certain	-9.87	3.1	3562.5	Yes		12.969422423556098				ShowResult	Mixed
60.0	3	91.496	0.017	1200.129	-3.0	-3.0	1.1186	8.0	955.0	0.52	Certain	-9.87	3.1	3562.5	Yes		12.969422423556098				ISITrial	Mixed
60.0	3	103.092	0.021	1211.725	-3.0	-3.0	1.1186	0.0	955.0	0.52	Certain	-9.87	3.1	3562.5	Yes		12.969422423556098			512.0	TrialHappiness	Mixed
60.0	3	107.107	4.015	1215.74	-3.0	-3.0	1.1186	6.25	955.0	0.52	Certain	-9.87	3.1	3562.5	Yes		12.969422423556098				ISIRate	Mixed
61.0	3	113.388	0.031	1222.021	-4.0	-4.0	0.6186	3.0	955.0	0.52	Certain	1.1	-9.96	0.0	No	4.0	11.061155152887899	0.613	114.001		GetAnswer	Mixed
61.0	3	114.021	0.02	1222.654	-4.0	-4.0	0.6186	4.0	955.0	0.52	Certain	1.1	-9.96	0.0	No		11.061155152887899				ShowChoice	Mixed
61.0	3	118.036	0.015	1226.669	-4.0	-4.0	0.6186	1.0	955.0	0.52	Certain	1.1	-9.96	0.0	No		11.061155152887899				ShowResult	Mixed
61.0	3	119.053	0.017	1227.686	-4.0	-4.0	0.6186	4.586	955.0	0.52	Certain	1.1	-9.96	0.0	No		11.061155152887899				ISITrial	Mixed
62.0	3	123.668	0.029	1232.301	0.0	0.0	0.6186	3.0	955.0	0.82	Certain	1.5	-0.63	3748.75	Yes	4.0	-2.13420158550396	1.472	125.14		GetAnswer	Mixed
62.0	3	125.151	0.011	1233.784	0.0	0.0	0.6186	4.0	955.0	0.82	Certain	1.5	-0.63	3748.75	Yes		-2.13420158550396				ShowChoice	Mixed
62.0	3	129.166	0.015	1237.799	0.0	0.0	0.6186	1.0	955.0	0.82	Certain	1.5	-0.63	3748.75	Yes		-2.13420158550396				ShowResult	Mixed
62.0	3	130.182	0.016	1238.815	0.0	0.0	0.6186	5.212	955.0	0.82	Certain	1.5	-0.63	3748.75	Yes		-2.13420158550396				ISITrial	Mixed
62.0	3	139.179	0.016	1247.812	0.0	0.0	0.6186	0.0	955.0	0.82	Certain	1.5	-0.63	3748.75	Yes		-2.13420158550396			512.0	TrialHappiness	Mixed
62.0	3	143.195	4.016	1251.828	0.0	0.0	0.6186	6.995	955.0	0.82	Certain	1.5	-0.63	3748.75	Yes		-2.13420158550396				ISIRate	Mixed
63.0	3	150.209	0.019	1258.842	6.32	3.16	1.4086	3.0	955.0	1.68	Outcome1	6.32	8.5	0.0	No	2.0	-2.17600981502454	1.118	151.327		GetAnswer	Gain
63.0	3	151.342	0.015	1259.975	6.32	3.16	1.4086	4.0	955.0	1.68	Outcome1	6.32	8.5	0.0	No		-2.17600981502454				ShowChoice	Gain
63.0	3	155.357	0.015	1263.99	6.32	3.16	1.4086	1.0	955.0	1.68	Outcome1	6.32	8.5	0.0	No		-2.17600981502454				ShowResult	Gain
63.0	3	156.373	0.016	1265.006	6.32	3.16	1.4086	5.595	955.0	1.68	Outcome1	6.32	8.5	0.0	No		-2.17600981502454				ISITrial	Gain
64.0	3	161.988	0.02	1270.621	11.5	-0.54	2.8461	3.0	955.0	2.8	Outcome1	11.5	-1.07	0.0	No	2.0	12.5662514156285	2.871	164.859		GetAnswer	Loss
64.0	3	164.87	0.011	1273.503	11.5	-0.54	2.8461	4.0	955.0	2.8	Outcome1	11.5	-1.07	0.0	No		12.5662514156285				ShowChoice	Loss
64.0	3	168.902	0.032	1277.535	11.5	-0.54	2.8461	1.0	955.0	2.8	Outcome1	11.5	-1.07	0.0	No		12.5662514156285				ShowResult	Loss
64.0	3	169.919	0.017	1278.552	11.5	-0.54	2.8461	5.47	955.0	2.8	Outcome1	11.5	-1.07	0.0	No		12.5662514156285				ISITrial	Loss
65.0	3	175.417	0.028	1284.05	11.44	5.72	4.2761	3.0	955.0	3.16	Outcome2	13.7	11.44	2996.75	Yes		-2.25962627406569				GetAnswer	Loss
65.0	3	178.432	0.015	1287.065	11.44	5.72	4.2761	4.0	955.0	3.16	Outcome2	13.7	11.44	2996.75	Yes		-2.25962627406569				ShowChoice	Loss
65.0	3	182.448	0.016	1291.081	11.44	5.72	4.2761	1.0	955.0	3.16	Outcome2	13.7	11.44	2996.75	Yes		-2.25962627406569				ShowResult	Loss
65.0	3	183.464	0.016	1292.097	11.44	5.72	4.2761	3.344	955.0	3.16	Outcome2	13.7	11.44	2996.75	Yes		-2.25962627406569				ISITrial	Loss
65.0	3	189.845	0.018	1298.478	11.44	5.72	4.2761	0.0	955.0	3.16	Outcome2	13.7	11.44	2996.75	Yes		-2.25962627406569			512.0	TrialHappiness	Loss
65.0	3	193.86	4.015	1302.493	11.44	5.72	4.2761	3.987	955.0	3.16	Outcome2	13.7	11.44	2996.75	Yes		-2.25962627406569				ISIRate	Loss
66.0	3	197.876	0.029	1306.509	7.9	1.0	5.2636	3.0	955.0	3.6	Outcome1	7.9	-5.67	0.0	No	2.0	13.5696489241223	1.663	199.539		GetAnswer	Gain
66.0	3	199.559	0.02	1308.192	7.9	1.0	5.2636	4.0	955.0	3.6	Outcome1	7.9	-5.67	0.0	No		13.5696489241223				ShowChoice	Gain
66.0	3	203.574	0.015	1312.207	7.9	1.0	5.2636	1.0	955.0	3.6	Outcome1	7.9	-5.67	0.0	No		13.5696489241223				ShowResult	Gain
66.0	3	204.59	0.016	1313.223	7.9	1.0	5.2636	3.959	955.0	3.6	Outcome1	7.9	-5.67	0.0	No		13.5696489241223				ISITrial	Gain
67.0	3	208.572	0.023	1317.205	9.9	-2.08	6.5011	3.0	955.0	3.6	Outcome2	-4.17	9.9	2918.5	Yes		14.0713476783692				GetAnswer	Gain
67.0	3	211.588	0.016	1320.221	9.9	-2.08	6.5011	4.0	955.0	3.6	Outcome2	-4.17	9.9	2918.5	Yes		14.0713476783692				ShowChoice	Gain
67.0	3	215.603	0.015	1324.236	9.9	-2.08	6.5011	1.0	955.0	3.6	Outcome2	-4.17	9.9	2918.5	Yes		14.0713476783692				ShowResult	Gain
67.0	3	216.619	0.016	1325.252	9.9	-2.08	6.5011	4.199	955.0	3.6	Outcome2	-4.17	9.9	2918.5	Yes		14.0713476783692				ISITrial	Gain
67.0	3	223.767	0.014	1332.4	9.9	-2.08	6.5011	0.0	955.0	3.6	Outcome2	-4.17	9.9	2918.5	Yes		14.0713476783692			512.0	TrialHappiness	Gain
67.0	3	227.782	4.015	1336.415	9.9	-2.08	6.5011	3.674	955.0	3.6	Outcome2	-4.17	9.9	2918.5	Yes		14.0713476783692				ISIRate	Gain
68.0	3	231.481	0.025	1340.114	4.3	-3.0	7.0386	3.0	955.0	2.0	Outcome1	4.3	-10.27	0.0	No		14.5730464326161				GetAnswer	Mixed
68.0	3	234.497	0.016	1343.13	4.3	-3.0	7.0386	4.0	955.0	2.0	Outcome1	4.3	-10.27	0.0	No		14.5730464326161				ShowChoice	Mixed
68.0	3	238.512	0.015	1347.145	4.3	-3.0	7.0386	1.0	955.0	2.0	Outcome1	4.3	-10.27	0.0	No		14.5730464326161				ShowResult	Mixed
68.0	3	239.528	0.016	1348.161	4.3	-3.0	7.0386	2.185	955.0	2.0	Outcome1	4.3	-10.27	0.0	No		14.5730464326161				ISITrial	Mixed
69.0	3	241.744	0.031	1350.377	0.5	-7.0	7.1011	3.0	955.0	0.2	Outcome1	0.5	-14.57	0.0	No		15.074745186863				GetAnswer	Mixed
69.0	3	244.76	0.016	1353.393	0.5	-7.0	7.1011	4.0	955.0	0.2	Outcome1	0.5	-14.57	0.0	No		15.074745186863				ShowChoice	Mixed
69.0	3	248.775	0.015	1357.408	0.5	-7.0	7.1011	1.0	955.0	0.2	Outcome1	0.5	-14.57	0.0	No		15.074745186863				ShowResult	Mixed
69.0	3	249.791	0.016	1358.424	0.5	-7.0	7.1011	2.0	955.0	0.2	Outcome1	0.5	-14.57	0.0	No		15.074745186863				ISITrial	Mixed
70.0	3	251.807	0.016	1360.44	1.7	-6.0	7.3136	3.0	955.0	1.0	Outcome2	-13.88	1.7	3651.25	Yes	2.0	15.5764439411099	0.827	252.634		GetAnswer	Mixed
70.0	3	252.657	0.023	1361.29	1.7	-6.0	7.3136	4.0	955.0	1.0	Outcome2	-13.88	1.7	3651.25	Yes		15.5764439411099				ShowChoice	Mixed
70.0	3	256.672	0.015	1365.305	1.7	-6.0	7.3136	1.0	955.0	1.0	Outcome2	-13.88	1.7	3651.25	Yes		15.5764439411099				ShowResult	Mixed
70.0	3	257.689	0.017	1366.322	1.7	-6.0	7.3136	2.623	955.0	1.0	Outcome2	-13.88	1.7	3651.25	Yes		15.5764439411099				ISITrial	Mixed
70.0	3	264.003	0.014	1372.636	1.7	-6.0	7.3136	0.0	955.0	1.0	Outcome2	-13.88	1.7	3651.25	Yes		15.5764439411099			512.0	TrialHappiness	Mixed
70.0	3	268.018	4.015	1376.651	1.7	-6.0	7.3136	6.605	955.0	1.0	Outcome2	-13.88	1.7	3651.25	Yes		15.5764439411099				ISIRate	Mixed
71.0	3	274.649	0.026	1383.282	-1.1	-9.0	7.1761	3.0	955.0	0.4	Outcome2	-17.18	-1.1	0.0	No		16.078142695356696				GetAnswer	Mixed
71.0	3	277.665	0.016	1386.298	-1.1	-9.0	7.1761	4.0	955.0	0.4	Outcome2	-17.18	-1.1	0.0	No		16.078142695356696				ShowChoice	Mixed
71.0	3	281.68	0.015	1390.313	-1.1	-9.0	7.1761	1.0	955.0	0.4	Outcome2	-17.18	-1.1	0.0	No		16.078142695356696				ShowResult	Mixed
71.0	3	282.697	0.017	1391.33	-1.1	-9.0	7.1761	5.499	955.0	0.4	Outcome2	-17.18	-1.1	0.0	No		16.078142695356696				ISITrial	Mixed
72.0	3	288.212	0.016	1396.845	-1.3	-9.0	7.0136	3.0	955.0	0.3	Outcome1	-1.3	-17.88	3080.5	Yes		16.5798414496036				GetAnswer	Mixed
72.0	3	291.227	0.015	1399.86	-1.3	-9.0	7.0136	4.0	955.0	0.3	Outcome1	-1.3	-17.88	3080.5	Yes		16.5798414496036				ShowChoice	Mixed
72.0	3	295.242	0.015	1403.875	-1.3	-9.0	7.0136	1.0	955.0	0.3	Outcome1	-1.3	-17.88	3080.5	Yes		16.5798414496036				ShowResult	Mixed
72.0	3	296.259	0.017	1404.892	-1.3	-9.0	7.0136	5.672	955.0	0.3	Outcome1	-1.3	-17.88	3080.5	Yes		16.5798414496036				ISITrial	Mixed
72.0	3	305.056	0.019	1413.689	-1.3	-9.0	7.0136	0.0	955.0	0.3	Outcome1	-1.3	-17.88	3080.5	Yes		16.5798414496036			512.0	TrialHappiness	Mixed
72.0	3	309.071	4.015	1417.704	-1.3	-9.0	7.0136	4.322	955.0	0.3	Outcome1	-1.3	-17.88	3080.5	Yes		16.5798414496036				ISIRate	Mixed
73.0	3	313.42	0.027	1422.053	-8.0	-8.0	6.0136	3.0	955.0	2.0	Certain	-16.78	0.3	0.0	No	4.0	17.0815402038505	1.546	314.966		GetAnswer	Mixed
73.0	3	314.986	0.02	1423.619	-8.0	-8.0	6.0136	4.0	955.0	2.0	Certain	-16.78	0.3	0.0	No		17.0815402038505				ShowChoice	Mixed
73.0	3	319.001	0.015	1427.634	-8.0	-8.0	6.0136	1.0	955.0	2.0	Certain	-16.78	0.3	0.0	No		17.0815402038505				ShowResult	Mixed
73.0	3	320.017	0.016	1428.65	-8.0	-8.0	6.0136	4.616	955.0	2.0	Certain	-16.78	0.3	0.0	No		17.0815402038505				ISITrial	Mixed
74.0	3	324.649	0.016	1433.282	0.0	0.0	6.0136	3.0	955.0	1.82	Certain	-8.88	8.7	3056.25	Yes	4.0	17.5832389580974	1.55	326.199		GetAnswer	Gain
74.0	3	326.215	0.016	1434.848	0.0	0.0	6.0136	4.0	955.0	1.82	Certain	-8.88	8.7	3056.25	Yes		17.5832389580974				ShowChoice	Gain
74.0	3	330.264	0.049	1438.897	0.0	0.0	6.0136	1.0	955.0	1.82	Certain	-8.88	8.7	3056.25	Yes		17.5832389580974				ShowResult	Gain
74.0	3	331.28	0.016	1439.913	0.0	0.0	6.0136	3.909	955.0	1.82	Certain	-8.88	8.7	3056.25	Yes		17.5832389580974				ISITrial	Gain
74.0	3	338.294	0.026	1446.927	0.0	0.0	6.0136	0.0	955.0	1.82	Certain	-8.88	8.7	3056.25	Yes		17.5832389580974			512.0	TrialHappiness	Gain
74.0	3	342.31	4.016	1450.943	0.0	0.0	6.0136	4.225	955.0	1.82	Certain	-8.88	8.7	3056.25	Yes		17.5832389580974				ISIRate	Gain
75.0	3	346.558	0.023	1455.191	3.82	1.91	6.4911	3.0	955.0	1.68	Outcome2	6.5	3.82	0.0	No		-2.6777085692714198				GetAnswer	Gain
75.0	3	349.574	0.016	1458.207	3.82	1.91	6.4911	4.0	955.0	1.68	Outcome2	6.5	3.82	0.0	No		-2.6777085692714198				ShowChoice	Gain
75.0	3	353.589	0.015	1462.222	3.82	1.91	6.4911	1.0	955.0	1.68	Outcome2	6.5	3.82	0.0	No		-2.6777085692714198				ShowResult	Gain
75.0	3	354.605	0.016	1463.238	3.82	1.91	6.4911	4.979	955.0	1.68	Outcome2	6.5	3.82	0.0	No		-2.6777085692714198				ISITrial	Gain
76.0	3	359.604	0.02	1468.237	4.58	2.29	7.0636	3.0	955.0	2.48	Outcome2	7.3	4.58	0.0	No		-2.7195167987919997				GetAnswer	Gain
76.0	3	362.619	0.015	1471.252	4.58	2.29	7.0636	4.0	955.0	2.48	Outcome2	7.3	4.58	0.0	No		-2.7195167987919997				ShowChoice	Gain
76.0	3	366.635	0.016	1475.268	4.58	2.29	7.0636	1.0	955.0	2.48	Outcome2	7.3	4.58	0.0	No		-2.7195167987919997				ShowResult	Gain
76.0	3	367.651	0.016	1476.284	4.58	2.29	7.0636	3.931	955.0	2.48	Outcome2	7.3	4.58	0.0	No		-2.7195167987919997				ISITrial	Gain
77.0	3	371.6	0.018	1480.233	4.57	4.57	7.6348	3.0	955.0	3.6	Certain	11.9	9.14	4000.0	Yes	4.0	-2.76132502831257	2.435	374.035		GetAnswer	Loss
77.0	3	374.049	0.014	1482.682	4.57	4.57	7.6348	4.0	955.0	3.6	Certain	11.9	9.14	4000.0	Yes		-2.76132502831257				ShowChoice	Loss
77.0	3	378.064	0.015	1486.697	4.57	4.57	7.6348	1.0	955.0	3.6	Certain	11.9	9.14	4000.0	Yes		-2.76132502831257				ShowResult	Loss
77.0	3	379.08	0.016	1487.713	4.57	4.57	7.6348	7.022	955.0	3.6	Certain	11.9	9.14	4000.0	Yes		-2.76132502831257				ISITrial	Loss
77.0	3	390.143	0.015	1498.776	4.57	4.57	7.6348	0.0	955.0	3.6	Certain	11.9	9.14	4000.0	Yes		-2.76132502831257			512.0	TrialHappiness	Loss
77.0	3	394.159	4.016	1502.792	4.57	4.57	7.6348	8.0	955.0	3.6	Certain	11.9	9.14	4000.0	Yes		-2.76132502831257				ISIRate	Loss
78.0	3	402.189	0.03	1510.822	5.3	-4.0	8.2973	3.0	955.0	2.48	Outcome1	5.3	-14.29	0.0	No		19.5900339750849				GetAnswer	Gain
78.0	3	405.205	0.016	1513.838	5.3	-4.0	8.2973	4.0	955.0	2.48	Outcome1	5.3	-14.29	0.0	No		19.5900339750849				ShowChoice	Gain
78.0	3	409.22	0.015	1517.853	5.3	-4.0	8.2973	1.0	955.0	2.48	Outcome1	5.3	-14.29	0.0	No		19.5900339750849				ShowResult	Gain
78.0	3	410.236	0.016	1518.869	5.3	-4.0	8.2973	2.078	955.0	2.48	Outcome1	5.3	-14.29	0.0	No		19.5900339750849				ISITrial	Gain
79.0	3	412.336	0.022	1520.969	-6.0	-6.0	7.5473	3.0	955.0	1.2	Certain	-16.19	3.9	2729.5	Yes	4.0	20.091732729331802	1.592	413.928		GetAnswer	Mixed
79.0	3	413.952	0.024	1522.585	-6.0	-6.0	7.5473	4.0	955.0	1.2	Certain	-16.19	3.9	2729.5	Yes		20.091732729331802				ShowChoice	Mixed
79.0	3	417.967	0.015	1526.6	-6.0	-6.0	7.5473	1.0	955.0	1.2	Certain	-16.19	3.9	2729.5	Yes		20.091732729331802				ShowResult	Mixed
79.0	3	418.983	0.016	1527.616	-6.0	-6.0	7.5473	3.829	955.0	1.2	Certain	-16.19	3.9	2729.5	Yes		20.091732729331802				ISITrial	Mixed
79.0	3	425.581	0.019	1534.214	-6.0	-6.0	7.5473	0.0	955.0	1.2	Certain	-16.19	3.9	2729.5	Yes		20.091732729331802			512.0	TrialHappiness	Mixed
79.0	3	429.596	4.015	1538.229	-6.0	-6.0	7.5473	2.918	955.0	1.2	Certain	-16.19	3.9	2729.5	Yes		20.091732729331802				ISIRate	Mixed
80.0	3	432.545	0.031	1541.178	3.21	1.6	7.9485	3.0	955.0	4.2	Outcome2	6.1	3.21	0.0	No		-2.88674971687429				GetAnswer	Gain
80.0	3	435.561	0.016	1544.194	3.21	1.6	7.9485	4.0	955.0	4.2	Outcome2	6.1	3.21	0.0	No		-2.88674971687429				ShowChoice	Gain
80.0	3	439.576	0.015	1548.209	3.21	1.6	7.9485	1.0	955.0	4.2	Outcome2	6.1	3.21	0.0	No		-2.88674971687429				ShowResult	Gain
80.0	3	440.593	0.017	1549.226	3.21	1.6	7.9485	3.336	955.0	4.2	Outcome2	6.1	3.21	0.0	No		-2.88674971687429				ISITrial	Gain
81.0	3	443.958	0.029	1552.591	3.1	-7.0	8.336	3.0	955.0	0.52	Outcome2	-18.0	3.1	3923.75	Yes		21.0951302378256				GetAnswer	Mixed
81.0	3	446.974	0.016	1555.607	3.1	-7.0	8.336	4.0	955.0	0.52	Outcome2	-18.0	3.1	3923.75	Yes		21.0951302378256				ShowChoice	Mixed
81.0	3	450.989	0.015	1559.622	3.1	-7.0	8.336	1.0	955.0	0.52	Outcome2	-18.0	3.1	3923.75	Yes		21.0951302378256				ShowResult	Mixed
81.0	3	452.005	0.016	1560.638	3.1	-7.0	8.336	3.919	955.0	0.52	Outcome2	-18.0	3.1	3923.75	Yes		21.0951302378256				ISITrial	Mixed
81.0	3	459.886	0.025	1568.519	3.1	-7.0	8.336	0.0	955.0	0.52	Outcome2	-18.0	3.1	3923.75	Yes		21.0951302378256			512.0	TrialHappiness	Mixed
81.0	3	463.901	4.015	1572.534	3.1	-7.0	8.336	7.695	955.0	0.52	Outcome2	-18.0	3.1	3923.75	Yes		21.0951302378256				ISIRate	Mixed
	3	471.615	0.019	1580.248				3.0								4.0		1.749	473.364		CurrentEarnings	
	3	473.381	0.017	1582.014				-0.001								4.0		28.417	501.798		Goodbye	
