trial_number	block	onset	onset_delay	onset_unadjusted	amount_change	certain_amount	current_amount	duration	mood_target	multiplier	outcome	outcome1_amount	outcome2_amount	question_duration	rating	response	rpe	rt	rt_time	slider_response	trial_phase	trial_type
	0	-44.377	0.022	28.262				-0.001								{SPACE}		12.417	-31.96		Welcome	
	0	-31.94	0.02	40.699				5.0													LifeHappyPreview	
	0	-26.908	0.032	45.731				4.894												656.0	LifeHappiness	
	0	-15.407	0.026	57.232				4.0													BlockHappyPreview	
	0	-11.395	0.012	61.244				3.3												488.0	BlockStartHappiness	
	0	-4.758	0.019	67.881				-0.001								5.0					ScanWait	
	1	0.023	0.023	72.662				10.0													GetReady	
1.0	1	10.053	0.03	82.692	2.6	1.3	10.325	3.0	955.0	1.68	Outcome1	2.6	4.5	0.0	No	2.0	-1.89514911287278	2.263	12.316		GetAnswer	Gain
1.0	1	12.343	0.027	84.982	2.6	1.3	10.325	4.0	955.0	1.68	Outcome1	2.6	4.5	0.0	No		-1.89514911287278				ShowChoice	Gain
1.0	1	16.372	0.029	89.011	2.6	1.3	10.325	1.0	955.0	1.68	Outcome1	2.6	4.5	0.0	No		-1.89514911287278				ShowResult	Gain
1.0	1	17.391	0.019	90.03	2.6	1.3	10.325	2.431	955.0	1.68	Outcome1	2.6	4.5	0.0	No		-1.89514911287278				ISITrial	Gain
2.0	1	19.849	0.027	92.488	2.5	-1.0	10.6375	3.0	955.0	0.2	Outcome2	-5.96	2.5	0.0	No	2.0	8.46206115515289	2.383	22.232		GetAnswer	Mixed
2.0	1	22.256	0.024	94.895	2.5	-1.0	10.6375	4.0	955.0	0.2	Outcome2	-5.96	2.5	0.0	No		8.46206115515289				ShowChoice	Mixed
2.0	1	26.285	0.029	98.924	2.5	-1.0	10.6375	1.0	955.0	0.2	Outcome2	-5.96	2.5	0.0	No		8.46206115515289				ShowResult	Mixed
2.0	1	27.304	0.019	99.943	2.5	-1.0	10.6375	4.568	955.0	0.2	Outcome2	-5.96	2.5	0.0	No		8.46206115515289				ISITrial	Mixed
3.0	1	31.901	0.029	104.54	-6.0	-6.0	9.8875	3.0	955.0	0.2	Certain	-1.5	-10.49	2868.0	Yes	4.0	8.990939977349939	2.643	34.544		GetAnswer	Mixed
3.0	1	34.559	0.015	107.198	-6.0	-6.0	9.8875	4.0	955.0	0.2	Certain	-1.5	-10.49	2868.0	Yes		8.990939977349939				ShowChoice	Mixed
3.0	1	38.588	0.029	111.227	-6.0	-6.0	9.8875	1.0	955.0	0.2	Certain	-1.5	-10.49	2868.0	Yes		8.990939977349939				ShowResult	Mixed
3.0	1	39.608	0.02	112.247	-6.0	-6.0	9.8875	3.243	955.0	0.2	Certain	-1.5	-10.49	2868.0	Yes		8.990939977349939				ISITrial	Mixed
3.0	1	45.76	0.024	118.399	-6.0	-6.0	9.8875	1.997	955.0	0.2	Certain	-1.5	-10.49	2868.0	Yes		8.990939977349939			496.0	TrialHappiness	Mixed
3.0	1	49.788	4.028	122.427	-6.0	-6.0	9.8875	3.472	955.0	0.2	Certain	-1.5	-10.49	2868.0	Yes		8.990939977349939				ISIRate	Mixed
4.0	1	53.282	0.022	125.921	5.51	2.76	10.5763	3.0	955.0	2.8	Outcome2	7.5	5.51	0.0	No	2.0	-1.99490373725934	1.566	54.848		GetAnswer	Gain
4.0	1	54.87	0.022	127.509	5.51	2.76	10.5763	4.0	955.0	2.8	Outcome2	7.5	5.51	0.0	No		-1.99490373725934				ShowChoice	Gain
4.0	1	58.899	0.029	131.538	5.51	2.76	10.5763	1.0	955.0	2.8	Outcome2	7.5	5.51	0.0	No		-1.99490373725934				ShowResult	Gain
4.0	1	59.919	0.02	132.558	5.51	2.76	10.5763	2.011	955.0	2.8	Outcome2	7.5	5.51	0.0	No		-1.99490373725934				ISITrial	Gain
5.0	1	61.958	0.028	134.597	2.7	-2.0	10.9138	3.0	955.0	0.3	Outcome2	-7.2	2.7	2582.5	Yes		9.903737259343151				GetAnswer	Mixed
5.0	1	64.984	0.026	137.623	2.7	-2.0	10.9138	4.0	955.0	0.3	Outcome2	-7.2	2.7	2582.5	Yes		9.903737259343151				ShowChoice	Mixed
5.0	1	68.996	0.012	141.635	2.7	-2.0	10.9138	1.0	955.0	0.3	Outcome2	-7.2	2.7	2582.5	Yes		9.903737259343151				ShowResult	Mixed
5.0	1	70.016	0.02	142.655	2.7	-2.0	10.9138	5.129	955.0	0.3	Outcome2	-7.2	2.7	2582.5	Yes		9.903737259343151				ISITrial	Mixed
5.0	1	77.772	0.026	150.411	2.7	-2.0	10.9138	0.0	955.0	0.3	Outcome2	-7.2	2.7	2582.5	Yes		9.903737259343151			512.0	TrialHappiness	Mixed
5.0	1	81.801	4.029	154.44	2.7	-2.0	10.9138	2.33	955.0	0.3	Outcome2	-7.2	2.7	2582.5	Yes		9.903737259343151				ISIRate	Mixed
6.0	1	84.158	0.027	156.797	-6.0	-6.0	10.1638	3.0	955.0	0.52	Certain	-0.9	-11.05	0.0	No	4.0	10.1517553793884	1.556	85.714		GetAnswer	Mixed
6.0	1	85.729	0.015	158.368	-6.0	-6.0	10.1638	4.0	955.0	0.52	Certain	-0.9	-11.05	0.0	No		10.1517553793884				ShowChoice	Mixed
6.0	1	89.741	0.012	162.38	-6.0	-6.0	10.1638	1.0	955.0	0.52	Certain	-0.9	-11.05	0.0	No		10.1517553793884				ShowResult	Mixed
6.0	1	90.761	0.02	163.4	-6.0	-6.0	10.1638	6.232	955.0	0.52	Certain	-0.9	-11.05	0.0	No		10.1517553793884				ISITrial	Mixed
7.0	1	97.013	0.02	169.652	10.24	5.12	11.4438	3.0	955.0	5.0	Outcome1	10.24	12.3	0.0	No	2.0	-2.05841827104568	1.594	98.607		GetAnswer	Loss
7.0	1	98.635	0.028	171.274	10.24	5.12	11.4438	4.0	955.0	5.0	Outcome1	10.24	12.3	0.0	No		-2.05841827104568				ShowChoice	Loss
7.0	1	102.663	0.028	175.302	10.24	5.12	11.4438	1.0	955.0	5.0	Outcome1	10.24	12.3	0.0	No		-2.05841827104568				ShowResult	Loss
7.0	1	103.683	0.02	176.322	10.24	5.12	11.4438	2.305	955.0	5.0	Outcome1	10.24	12.3	0.0	No		-2.05841827104568				ISITrial	Loss
8.0	1	106.007	0.019	178.646	5.6	2.8	12.1438	3.0	955.0	3.16	Outcome1	5.6	7.7	3112.5	Yes	2.0	-2.10022650056625	1.519	107.526		GetAnswer	Gain
8.0	1	107.545	0.019	180.184	5.6	2.8	12.1438	4.0	955.0	3.16	Outcome1	5.6	7.7	3112.5	Yes		-2.10022650056625				ShowChoice	Gain
8.0	1	111.574	0.029	184.213	5.6	2.8	12.1438	1.0	955.0	3.16	Outcome1	5.6	7.7	3112.5	Yes		-2.10022650056625				ShowResult	Gain
8.0	1	112.593	0.019	185.232	5.6	2.8	12.1438	3.506	955.0	3.16	Outcome1	5.6	7.7	3112.5	Yes		-2.10022650056625				ISITrial	Gain
8.0	1	119.263	0.031	191.902	5.6	2.8	12.1438	0.0	955.0	3.16	Outcome1	5.6	7.7	3112.5	Yes		-2.10022650056625			512.0	TrialHappiness	Gain
8.0	1	123.292	4.029	195.931	5.6	2.8	12.1438	4.45	955.0	3.16	Outcome1	5.6	7.7	3112.5	Yes		-2.10022650056625				ISIRate	Gain
9.0	1	127.772	0.03	200.411	-3.0	-3.0	11.7688	3.0	955.0	1.5	Certain	2.1	-9.56	0.0	No	4.0	11.6568516421291	1.968	129.74		GetAnswer	Mixed
9.0	1	129.761	0.021	202.4	-3.0	-3.0	11.7688	4.0	955.0	1.5	Certain	2.1	-9.56	0.0	No		11.6568516421291				ShowChoice	Mixed
9.0	1	133.79	0.029	206.429	-3.0	-3.0	11.7688	1.0	955.0	1.5	Certain	2.1	-9.56	0.0	No		11.6568516421291				ShowResult	Mixed
9.0	1	134.81	0.02	207.449	-3.0	-3.0	11.7688	2.0	955.0	1.5	Certain	2.1	-9.56	0.0	No		11.6568516421291				ISITrial	Mixed
10.0	1	136.833	0.023	209.472	-1.28	0.0	11.6088	3.0	955.0	0.4	Outcome1	-1.28	0.9	4000.0	Yes		-2.1838429596074				GetAnswer	Mixed
10.0	1	139.858	0.025	212.497	-1.28	0.0	11.6088	4.0	955.0	0.4	Outcome1	-1.28	0.9	4000.0	Yes		-2.1838429596074				ShowChoice	Mixed
10.0	1	143.887	0.029	216.526	-1.28	0.0	11.6088	1.0	955.0	0.4	Outcome1	-1.28	0.9	4000.0	Yes		-2.1838429596074				ShowResult	Mixed
10.0	1	144.907	0.02	217.546	-1.28	0.0	11.6088	2.0	955.0	0.4	Outcome1	-1.28	0.9	4000.0	Yes		-2.1838429596074				ISITrial	Mixed
10.0	1	150.958	0.029	223.597	-1.28	0.0	11.6088	1.825	955.0	0.4	Outcome1	-1.28	0.9	4000.0	Yes		-2.1838429596074			512.0	TrialHappiness	Mixed
10.0	1	154.987	4.029	227.626	-1.28	0.0	11.6088	8.0	955.0	0.4	Outcome1	-1.28	0.9	4000.0	Yes		-2.1838429596074				ISIRate	Mixed
11.0	1	163.011	0.024	235.65	6.7	0.0	12.4463	3.0	955.0	1.82	Outcome2	-5.96	6.7	0.0	No	2.0	12.6602491506229	1.971	164.982		GetAnswer	Gain
11.0	1	165.0	0.018	237.639	6.7	0.0	12.4463	4.0	955.0	1.82	Outcome2	-5.96	6.7	0.0	No		12.6602491506229				ShowChoice	Gain
11.0	1	169.029	0.029	241.668	6.7	0.0	12.4463	1.0	955.0	1.82	Outcome2	-5.96	6.7	0.0	No		12.6602491506229				ShowResult	Gain
11.0	1	170.049	0.02	242.688	6.7	0.0	12.4463	3.324	955.0	1.82	Outcome2	-5.96	6.7	0.0	No		12.6602491506229				ISITrial	Gain
12.0	1	173.392	0.019	246.031	0.0	0.0	12.4463	3.0	955.0	3.6	Certain	-7.26	5.9	2618.75	Yes	4.0	13.1619479048698	1.905	175.297		GetAnswer	Gain
12.0	1	175.315	0.018	247.954	0.0	0.0	12.4463	4.0	955.0	3.6	Certain	-7.26	5.9	2618.75	Yes		13.1619479048698				ShowChoice	Gain
12.0	1	179.343	0.028	251.982	0.0	0.0	12.4463	1.0	955.0	3.6	Certain	-7.26	5.9	2618.75	Yes		13.1619479048698				ShowResult	Gain
12.0	1	180.363	0.02	253.002	0.0	0.0	12.4463	6.642	955.0	3.6	Certain	-7.26	5.9	2618.75	Yes		13.1619479048698				ISITrial	Gain
12.0	1	189.674	0.022	262.313	0.0	0.0	12.4463	3.194	955.0	3.6	Certain	-7.26	5.9	2618.75	Yes		13.1619479048698			516.0	TrialHappiness	Gain
12.0	1	193.703	4.029	266.342	0.0	0.0	12.4463	2.475	955.0	3.6	Certain	-7.26	5.9	2618.75	Yes		13.1619479048698				ISIRate	Gain
13.0	1	196.21	0.032	268.849	9.41	4.7	13.6225	3.0	955.0	3.16	Outcome2	11.7	9.41	0.0	No	2.0	-2.29303510758777	1.232	197.442		GetAnswer	Loss
13.0	1	197.464	0.022	270.103	9.41	4.7	13.6225	4.0	955.0	3.16	Outcome2	11.7	9.41	0.0	No		-2.29303510758777				ShowChoice	Loss
13.0	1	201.493	0.029	274.132	9.41	4.7	13.6225	1.0	955.0	3.16	Outcome2	11.7	9.41	0.0	No		-2.29303510758777				ShowResult	Loss
13.0	1	202.513	0.02	275.152	9.41	4.7	13.6225	3.48	955.0	3.16	Outcome2	11.7	9.41	0.0	No		-2.29303510758777				ISITrial	Loss
14.0	1	206.023	0.03	278.662	-7.0	-7.0	12.7475	3.0	955.0	0.82	Certain	-0.5	-14.59	0.0	No	4.0	14.092865232163101	2.337	208.36		GetAnswer	Mixed
14.0	1	208.38	0.02	281.019	-7.0	-7.0	12.7475	4.0	955.0	0.82	Certain	-0.5	-14.59	0.0	No		14.092865232163101				ShowChoice	Mixed
14.0	1	212.392	0.012	285.031	-7.0	-7.0	12.7475	1.0	955.0	0.82	Certain	-0.5	-14.59	0.0	No		14.092865232163101				ShowResult	Mixed
14.0	1	213.412	0.02	286.051	-7.0	-7.0	12.7475	5.019	955.0	0.82	Certain	-0.5	-14.59	0.0	No		14.092865232163101				ISITrial	Mixed
15.0	1	218.46	0.029	291.099	8.5	1.0	13.81	3.0	955.0	1.68	Outcome1	8.5	-6.09	3348.5	Yes	2.0	14.590033975084902	1.824	220.284		GetAnswer	Gain
15.0	1	220.299	0.015	292.938	8.5	1.0	13.81	4.0	955.0	1.68	Outcome1	8.5	-6.09	3348.5	Yes		14.590033975084902				ShowChoice	Gain
15.0	1	224.311	0.012	296.95	8.5	1.0	13.81	1.0	955.0	1.68	Outcome1	8.5	-6.09	3348.5	Yes		14.590033975084902				ShowResult	Gain
15.0	1	225.331	0.02	297.97	8.5	1.0	13.81	7.614	955.0	1.68	Outcome1	8.5	-6.09	3348.5	Yes		14.590033975084902				ISITrial	Gain
15.0	1	236.347	0.028	308.986	8.5	1.0	13.81	2.152	955.0	1.68	Outcome1	8.5	-6.09	3348.5	Yes		14.590033975084902			532.0	TrialHappiness	Gain
15.0	1	240.376	4.029	313.015	8.5	1.0	13.81	5.394	955.0	1.68	Outcome1	8.5	-6.09	3348.5	Yes		14.590033975084902				ISIRate	Gain
16.0	1	245.792	0.022	318.431	1.5	-6.0	13.9975	3.0	955.0	0.82	Outcome2	-13.32	1.5	0.0	No	2.0	14.815402038505098	2.86	248.652		GetAnswer	Mixed
16.0	1	248.668	0.016	321.307	1.5	-6.0	13.9975	4.0	955.0	0.82	Outcome2	-13.32	1.5	0.0	No		14.815402038505098				ShowChoice	Mixed
16.0	1	252.696	0.028	325.335	1.5	-6.0	13.9975	1.0	955.0	0.82	Outcome2	-13.32	1.5	0.0	No		14.815402038505098				ShowResult	Mixed
16.0	1	253.716	0.02	326.355	1.5	-6.0	13.9975	3.008	955.0	0.82	Outcome2	-13.32	1.5	0.0	No		14.815402038505098				ISITrial	Mixed
17.0	1	256.759	0.035	329.398	11.5	-1.9	15.435	3.0	955.0	2.8	Outcome2	-3.79	11.5	3041.5	Yes	2.0	15.294450736126802	1.75	258.509		GetAnswer	Loss
17.0	1	258.531	0.022	331.17	11.5	-1.9	15.435	4.0	955.0	2.8	Outcome2	-3.79	11.5	3041.5	Yes		15.294450736126802				ShowChoice	Loss
17.0	1	262.559	0.028	335.198	11.5	-1.9	15.435	1.0	955.0	2.8	Outcome2	-3.79	11.5	3041.5	Yes		15.294450736126802				ShowResult	Loss
17.0	1	263.579	0.02	336.218	11.5	-1.9	15.435	3.566	955.0	2.8	Outcome2	-3.79	11.5	3041.5	Yes		15.294450736126802				ISITrial	Loss
17.0	1	270.232	0.017	342.871	11.5	-1.9	15.435	1.418	955.0	2.8	Outcome2	-3.79	11.5	3041.5	Yes		15.294450736126802			532.0	TrialHappiness	Loss
17.0	1	274.261	4.029	346.9	11.5	-1.9	15.435	4.166	955.0	2.8	Outcome2	-3.79	11.5	3041.5	Yes		15.294450736126802				ISIRate	Loss
18.0	1	278.457	0.03	351.096	13.7	-1.03	17.1475	3.0	955.0	3.16	Outcome2	-2.07	13.7	0.0	No	2.0	15.7734994337486	1.318	279.775		GetAnswer	Loss
18.0	1	279.794	0.019	352.433	13.7	-1.03	17.1475	4.0	955.0	3.16	Outcome2	-2.07	13.7	0.0	No		15.7734994337486				ShowChoice	Loss
18.0	1	283.823	0.029	356.462	13.7	-1.03	17.1475	1.0	955.0	3.16	Outcome2	-2.07	13.7	0.0	No		15.7734994337486				ShowResult	Loss
18.0	1	284.843	0.02	357.482	13.7	-1.03	17.1475	6.787	955.0	3.16	Outcome2	-2.07	13.7	0.0	No		15.7734994337486				ISITrial	Loss
19.0	1	291.663	0.033	364.302	0.0	0.0	17.1475	3.0	955.0	3.6	Certain	7.9	-8.35	0.0	No	4.0	16.2525481313703	1.753	293.416		GetAnswer	Gain
19.0	1	293.435	0.019	366.074	0.0	0.0	17.1475	4.0	955.0	3.6	Certain	7.9	-8.35	0.0	No		16.2525481313703				ShowChoice	Gain
19.0	1	297.464	0.029	370.103	0.0	0.0	17.1475	1.0	955.0	3.6	Certain	7.9	-8.35	0.0	No		16.2525481313703				ShowResult	Gain
19.0	1	298.484	0.02	371.123	0.0	0.0	17.1475	2.0	955.0	3.6	Certain	7.9	-8.35	0.0	No		16.2525481313703				ISITrial	Gain
20.0	1	300.506	0.022	373.145	11.1	2.0	18.535	3.0	955.0	2.22	Outcome2	-5.63	11.1	2921.25	Yes	2.0	16.7315968289921	1.699	302.205		GetAnswer	Loss
20.0	1	302.228	0.023	374.867	11.1	2.0	18.535	4.0	955.0	2.22	Outcome2	-5.63	11.1	2921.25	Yes		16.7315968289921				ShowChoice	Loss
20.0	1	306.257	0.029	378.896	11.1	2.0	18.535	1.0	955.0	2.22	Outcome2	-5.63	11.1	2921.25	Yes		16.7315968289921				ShowResult	Loss
20.0	1	307.277	0.02	379.916	11.1	2.0	18.535	8.0	955.0	2.22	Outcome2	-5.63	11.1	2921.25	Yes		16.7315968289921				ISITrial	Loss
20.0	1	318.243	0.021	390.882	11.1	2.0	18.535	0.96	955.0	2.22	Outcome2	-5.63	11.1	2921.25	Yes		16.7315968289921			536.0	TrialHappiness	Loss
20.0	1	322.255	4.012	394.894	11.1	2.0	18.535	3.685	955.0	2.22	Outcome2	-5.63	11.1	2921.25	Yes		16.7315968289921				ISIRate	Loss
21.0	1	325.966	0.026	398.605	4.9	-3.0	19.1475	3.0	955.0	2.0	Outcome2	-12.24	4.9	0.0	No		17.1426953567384				GetAnswer	Gain
21.0	1	328.992	0.026	401.631	4.9	-3.0	19.1475	4.0	955.0	2.0	Outcome2	-12.24	4.9	0.0	No		17.1426953567384				ShowChoice	Gain
21.0	1	333.004	0.012	405.643	4.9	-3.0	19.1475	1.0	955.0	2.0	Outcome2	-12.24	4.9	0.0	No		17.1426953567384				ShowResult	Gain
21.0	1	334.023	0.019	406.662	4.9	-3.0	19.1475	3.555	955.0	2.0	Outcome2	-12.24	4.9	0.0	No		17.1426953567384				ISITrial	Gain
22.0	1	337.601	0.023	410.24	5.72	2.86	19.8625	3.0	955.0	5.0	Outcome2	8.3	5.72	3219.5	Yes	2.0	-2.5753114382785998	2.02	339.621		GetAnswer	Gain
22.0	1	339.64	0.019	412.279	5.72	2.86	19.8625	4.0	955.0	5.0	Outcome2	8.3	5.72	3219.5	Yes		-2.5753114382785998				ShowChoice	Gain
22.0	1	343.652	0.012	416.291	5.72	2.86	19.8625	1.0	955.0	5.0	Outcome2	8.3	5.72	3219.5	Yes		-2.5753114382785998				ShowResult	Gain
22.0	1	344.672	0.02	417.311	5.72	2.86	19.8625	6.793	955.0	5.0	Outcome2	8.3	5.72	3219.5	Yes		-2.5753114382785998				ISITrial	Gain
22.0	1	354.735	0.023	427.374	5.72	2.86	19.8625	2.869	955.0	5.0	Outcome2	8.3	5.72	3219.5	Yes		-2.5753114382785998			540.0	TrialHappiness	Gain
22.0	1	358.747	4.012	431.386	5.72	2.86	19.8625	4.878	955.0	5.0	Outcome2	8.3	5.72	3219.5	Yes		-2.5753114382785998				ISIRate	Gain
23.0	1	363.645	0.02	436.284	-3.0	-3.0	19.4875	3.0	955.0	2.48	Certain	5.3	-12.72	0.0	No	4.0	18.0237825594564	1.599	365.244		GetAnswer	Gain
23.0	1	365.267	0.023	437.906	-3.0	-3.0	19.4875	4.0	955.0	2.48	Certain	5.3	-12.72	0.0	No		18.0237825594564				ShowChoice	Gain
23.0	1	369.279	0.012	441.918	-3.0	-3.0	19.4875	1.0	955.0	2.48	Certain	5.3	-12.72	0.0	No		18.0237825594564				ShowResult	Gain
23.0	1	370.299	0.02	442.938	-3.0	-3.0	19.4875	8.0	955.0	2.48	Certain	5.3	-12.72	0.0	No		18.0237825594564				ISITrial	Gain
24.0	1	378.323	0.024	450.962	-2.0	-2.0	19.2375	3.0	955.0	0.66	Certain	-3.34	-0.7	3255.0	Yes	4.0	-2.6377878444696097	1.995	380.318		GetAnswer	Mixed
24.0	1	380.329	0.011	452.968	-2.0	-2.0	19.2375	4.0	955.0	0.66	Certain	-3.34	-0.7	3255.0	Yes		-2.6377878444696097				ShowChoice	Mixed
24.0	1	384.341	0.012	456.98	-2.0	-2.0	19.2375	1.0	955.0	0.66	Certain	-3.34	-0.7	3255.0	Yes		-2.6377878444696097				ShowResult	Mixed
24.0	1	385.361	0.02	458.0	-2.0	-2.0	19.2375	2.0	955.0	0.66	Certain	-3.34	-0.7	3255.0	Yes		-2.6377878444696097				ISITrial	Mixed
24.0	1	390.66	0.022	463.299	-2.0	-2.0	19.2375	0.543	955.0	0.66	Certain	-3.34	-0.7	3255.0	Yes		-2.6377878444696097			536.0	TrialHappiness	Mixed
24.0	1	394.689	4.029	467.328	-2.0	-2.0	19.2375	5.02	955.0	0.66	Certain	-3.34	-0.7	3255.0	Yes		-2.6377878444696097				ISIRate	Mixed
25.0	1	399.737	0.028	472.376	4.61	2.31	19.8137	3.0	955.0	2.48	Outcome1	4.61	7.3	0.0	No	2.0	-2.6931861079652704	1.628	401.365		GetAnswer	Gain
25.0	1	401.392	0.026	474.031	4.61	2.31	19.8137	4.0	955.0	2.48	Outcome1	4.61	7.3	0.0	No		-2.6931861079652704				ShowChoice	Gain
25.0	1	405.404	0.012	478.043	4.61	2.31	19.8137	1.0	955.0	2.48	Outcome1	4.61	7.3	0.0	No		-2.6931861079652704				ShowResult	Gain
25.0	1	406.424	0.02	479.063	4.61	2.31	19.8137	3.749	955.0	2.48	Outcome1	4.61	7.3	0.0	No		-2.6931861079652704				ISITrial	Gain
26.0	1	410.202	0.029	482.841	3.77	1.88	20.2849	3.0	955.0	1.68	Outcome1	3.77	6.5	0.0	No	2.0	-2.73272933182333	1.629	411.831		GetAnswer	Gain
26.0	1	411.857	0.026	484.496	3.77	1.88	20.2849	4.0	955.0	1.68	Outcome1	3.77	6.5	0.0	No		-2.73272933182333				ShowChoice	Gain
26.0	1	415.869	0.012	488.508	3.77	1.88	20.2849	1.0	955.0	1.68	Outcome1	3.77	6.5	0.0	No		-2.73272933182333				ShowResult	Gain
26.0	1	416.888	0.019	489.527	3.77	1.88	20.2849	7.834	955.0	1.68	Outcome1	3.77	6.5	0.0	No		-2.73272933182333				ISITrial	Gain
27.0	1	424.745	0.023	497.384	11.9	2.0	21.7724	3.0	955.0	3.6	Outcome2	-8.08	11.9	2549.75	Yes		19.980747451868602				GetAnswer	Loss
27.0	1	427.771	0.026	500.41	11.9	2.0	21.7724	4.0	955.0	3.6	Outcome2	-8.08	11.9	2549.75	Yes		19.980747451868602				ShowChoice	Loss
27.0	1	431.783	0.012	504.422	11.9	2.0	21.7724	1.0	955.0	3.6	Outcome2	-8.08	11.9	2549.75	Yes		19.980747451868602				ShowResult	Loss
27.0	1	432.803	0.02	505.442	11.9	2.0	21.7724	4.225	955.0	3.6	Outcome2	-8.08	11.9	2549.75	Yes		19.980747451868602				ISITrial	Loss
27.0	1	439.623	0.024	512.262	11.9	2.0	21.7724	1.822	955.0	3.6	Outcome2	-8.08	11.9	2549.75	Yes		19.980747451868602			548.0	TrialHappiness	Loss
27.0	1	443.635	4.012	516.274	11.9	2.0	21.7724	2.199	955.0	3.6	Outcome2	-8.08	11.9	2549.75	Yes		19.980747451868602				ISIRate	Loss
	1	445.859	0.025	518.498				-0.001								{SPACE}		35.356	481.215		Rest	
	1	481.231	0.016	553.87				4.0													BlockHappyPreview	
	1	485.243	0.012	557.882				1.967												532.0	BlockStartHappiness	
	1	491.813	0.022	564.452				-0.001								5.0		11.028	502.841		ScanWait	
	2	0.022	0.022	575.502				10.0													GetReady	
28.0	2	10.052	0.03	585.532	1.24	0.62	21.9274	3.0	70.0	2.22	Outcome2	9.1	1.24	0.0	No	2.0	-7.857142857142861	1.591	11.643		GetAnswer	Gain
28.0	2	11.657	0.014	587.137	1.24	0.62	21.9274	4.0	70.0	2.22	Outcome2	9.1	1.24	0.0	No		-7.857142857142861				ShowChoice	Gain
28.0	2	15.685	0.028	591.165	1.24	0.62	21.9274	1.0	70.0	2.22	Outcome2	9.1	1.24	0.0	No		-7.857142857142861				ShowResult	Gain
28.0	2	16.705	0.02	592.185	1.24	0.62	21.9274	3.575	70.0	2.22	Outcome2	9.1	1.24	0.0	No		-7.857142857142861				ISITrial	Gain
29.0	2	20.299	0.019	595.779	3.72	1.86	22.3924	3.0	70.0	4.2	Outcome1	3.72	12.1	3529.0	Yes	2.0	-8.38095238095238	1.363	21.662		GetAnswer	Loss
29.0	2	21.687	0.025	597.167	3.72	1.86	22.3924	4.0	70.0	4.2	Outcome1	3.72	12.1	3529.0	Yes		-8.38095238095238				ShowChoice	Loss
29.0	2	25.715	0.028	601.195	3.72	1.86	22.3924	1.0	70.0	4.2	Outcome1	3.72	12.1	3529.0	Yes		-8.38095238095238				ShowResult	Loss
29.0	2	26.735	0.02	602.215	3.72	1.86	22.3924	3.955	70.0	4.2	Outcome1	3.72	12.1	3529.0	Yes		-8.38095238095238				ISITrial	Loss
29.0	2	34.274	0.031	609.754	3.72	1.86	22.3924	0.0	70.0	4.2	Outcome1	3.72	12.1	3529.0	Yes		-8.38095238095238			512.0	TrialHappiness	Loss
29.0	2	38.286	4.012	613.766	3.72	1.86	22.3924	6.116	70.0	4.2	Outcome1	3.72	12.1	3529.0	Yes		-8.38095238095238				ISIRate	Loss
30.0	2	44.421	0.019	619.901	2.74	1.37	22.7349	3.0	70.0	2.48	Outcome2	11.3	2.74	0.0	No	2.0	-8.56462585034014	1.236	45.657		GetAnswer	Loss
30.0	2	45.675	0.018	621.155	2.74	1.37	22.7349	4.0	70.0	2.48	Outcome2	11.3	2.74	0.0	No		-8.56462585034014				ShowChoice	Loss
30.0	2	49.687	0.012	625.167	2.74	1.37	22.7349	1.0	70.0	2.48	Outcome2	11.3	2.74	0.0	No		-8.56462585034014				ShowResult	Loss
30.0	2	50.707	0.02	626.187	2.74	1.37	22.7349	4.453	70.0	2.48	Outcome2	11.3	2.74	0.0	No		-8.56462585034014				ISITrial	Loss
31.0	2	55.187	0.027	630.667	4.43	2.22	23.2887	3.0	70.0	2.8	Outcome1	4.43	13.5	2503.25	Yes	2.0	-9.06575963718821	1.318	56.505		GetAnswer	Loss
31.0	2	56.524	0.019	632.004	4.43	2.22	23.2887	4.0	70.0	2.8	Outcome1	4.43	13.5	2503.25	Yes		-9.06575963718821				ShowChoice	Loss
31.0	2	60.553	0.029	636.033	4.43	2.22	23.2887	1.0	70.0	2.8	Outcome1	4.43	13.5	2503.25	Yes		-9.06575963718821				ShowResult	Loss
31.0	2	61.573	0.02	637.053	4.43	2.22	23.2887	4.786	70.0	2.8	Outcome1	4.43	13.5	2503.25	Yes		-9.06575963718821				ISITrial	Loss
31.0	2	68.911	0.021	644.391	4.43	2.22	23.2887	2.223	70.0	2.8	Outcome1	4.43	13.5	2503.25	Yes		-9.06575963718821			512.0	TrialHappiness	Loss
31.0	2	72.94	4.029	648.42	4.43	2.22	23.2887	2.013	70.0	2.8	Outcome1	4.43	13.5	2503.25	Yes		-9.06575963718821				ISIRate	Loss
32.0	2	74.98	0.027	650.46	0.0	0.0	23.2887	3.0	70.0	1.5	Certain	-5.47	4.1	0.0	No	4.0	-9.566893424036278	2.072	77.052		GetAnswer	Mixed
32.0	2	77.069	0.017	652.549	0.0	0.0	23.2887	4.0	70.0	1.5	Certain	-5.47	4.1	0.0	No		-9.566893424036278				ShowChoice	Mixed
32.0	2	81.098	0.029	656.578	0.0	0.0	23.2887	1.0	70.0	1.5	Certain	-5.47	4.1	0.0	No		-9.566893424036278				ShowResult	Mixed
32.0	2	82.118	0.02	657.598	0.0	0.0	23.2887	2.0	70.0	1.5	Certain	-5.47	4.1	0.0	No		-9.566893424036278				ISITrial	Mixed
33.0	2	84.14	0.022	659.62	-7.17	-2.0	22.3925	3.0	70.0	0.4	Outcome2	2.9	-7.17	0.0	No		-10.0680272108844				GetAnswer	Mixed
33.0	2	87.166	0.026	662.646	-7.17	-2.0	22.3925	4.0	70.0	0.4	Outcome2	2.9	-7.17	0.0	No		-10.0680272108844				ShowChoice	Mixed
33.0	2	91.195	0.029	666.675	-7.17	-2.0	22.3925	1.0	70.0	0.4	Outcome2	2.9	-7.17	0.0	No		-10.0680272108844				ShowResult	Mixed
33.0	2	92.215	0.02	667.695	-7.17	-2.0	22.3925	5.099	70.0	0.4	Outcome2	2.9	-7.17	0.0	No		-10.0680272108844				ISITrial	Mixed
34.0	2	97.347	0.033	672.827	-2.0	-2.0	22.1425	3.0	70.0	0.82	Certain	-7.07	3.5	3231.5	Yes	4.0	-10.569160997732402	2.025	99.372		GetAnswer	Mixed
34.0	2	99.386	0.014	674.866	-2.0	-2.0	22.1425	4.0	70.0	0.82	Certain	-7.07	3.5	3231.5	Yes		-10.569160997732402				ShowChoice	Mixed
34.0	2	103.398	0.012	678.878	-2.0	-2.0	22.1425	1.0	70.0	0.82	Certain	-7.07	3.5	3231.5	Yes		-10.569160997732402				ShowResult	Mixed
34.0	2	104.418	0.02	679.898	-2.0	-2.0	22.1425	4.784	70.0	0.82	Certain	-7.07	3.5	3231.5	Yes		-10.569160997732402				ISITrial	Mixed
34.0	2	112.492	0.028	687.972	-2.0	-2.0	22.1425	1.786	70.0	0.82	Certain	-7.07	3.5	3231.5	Yes		-10.569160997732402			492.0	TrialHappiness	Mixed
34.0	2	116.521	4.029	692.001	-2.0	-2.0	22.1425	4.926	70.0	0.82	Certain	-7.07	3.5	3231.5	Yes		-10.569160997732402				ISIRate	Mixed
35.0	2	121.469	0.022	696.949	-5.23	0.0	21.4887	3.0	70.0	2.8	Outcome2	5.5	-5.23	0.0	No	2.0	-10.7301587301587	2.307	123.776		GetAnswer	Gain
35.0	2	123.793	0.017	699.273	-5.23	0.0	21.4887	4.0	70.0	2.8	Outcome2	5.5	-5.23	0.0	No		-10.7301587301587				ShowChoice	Gain
35.0	2	127.821	0.028	703.301	-5.23	0.0	21.4887	1.0	70.0	2.8	Outcome2	5.5	-5.23	0.0	No		-10.7301587301587				ShowResult	Gain
35.0	2	128.841	0.02	704.321	-5.23	0.0	21.4887	2.098	70.0	2.8	Outcome2	5.5	-5.23	0.0	No		-10.7301587301587				ISITrial	Gain
36.0	2	130.964	0.025	706.444	-1.11	-0.56	21.3499	3.0	70.0	4.2	Outcome1	-1.11	10.1	3335.75	Yes	2.0	-11.2086167800454	1.915	132.879		GetAnswer	Gain
36.0	2	132.903	0.024	708.383	-1.11	-0.56	21.3499	4.0	70.0	4.2	Outcome1	-1.11	10.1	3335.75	Yes		-11.2086167800454				ShowChoice	Gain
36.0	2	136.915	0.012	712.395	-1.11	-0.56	21.3499	1.0	70.0	4.2	Outcome1	-1.11	10.1	3335.75	Yes		-11.2086167800454				ShowResult	Gain
36.0	2	137.935	0.02	713.415	-1.11	-0.56	21.3499	5.156	70.0	4.2	Outcome1	-1.11	10.1	3335.75	Yes		-11.2086167800454				ISITrial	Gain
36.0	2	146.477	0.024	721.957	-1.11	-0.56	21.3499	0.568	70.0	4.2	Outcome1	-1.11	10.1	3335.75	Yes		-11.2086167800454			492.0	TrialHappiness	Gain
36.0	2	150.506	4.029	725.986	-1.11	-0.56	21.3499	5.343	70.0	4.2	Outcome1	-1.11	10.1	3335.75	Yes		-11.2086167800454				ISIRate	Gain
37.0	2	155.872	0.023	731.352	-4.0	-4.0	20.8499	3.0	70.0	1.2	Certain	-9.79	1.9	0.0	No	4.0	-11.687074829932001	2.518	158.39		GetAnswer	Mixed
37.0	2	158.413	0.023	733.893	-4.0	-4.0	20.8499	4.0	70.0	1.2	Certain	-9.79	1.9	0.0	No		-11.687074829932001				ShowChoice	Mixed
37.0	2	162.442	0.029	737.922	-4.0	-4.0	20.8499	1.0	70.0	1.2	Certain	-9.79	1.9	0.0	No		-11.687074829932001				ShowResult	Mixed
37.0	2	163.461	0.019	738.941	-4.0	-4.0	20.8499	3.598	70.0	1.2	Certain	-9.79	1.9	0.0	No		-11.687074829932001				ISITrial	Mixed
38.0	2	167.089	0.03	742.569	-2.0	-2.0	20.5999	3.0	70.0	1.2	Certain	-8.27	3.9	0.0	No	4.0	-12.165532879818599	2.929	170.018		GetAnswer	Mixed
38.0	2	170.031	0.013	745.511	-2.0	-2.0	20.5999	4.0	70.0	1.2	Certain	-8.27	3.9	0.0	No		-12.165532879818599				ShowChoice	Mixed
38.0	2	174.043	0.012	749.523	-2.0	-2.0	20.5999	1.0	70.0	1.2	Certain	-8.27	3.9	0.0	No		-12.165532879818599				ShowResult	Mixed
38.0	2	175.063	0.02	750.543	-2.0	-2.0	20.5999	4.787	70.0	1.2	Certain	-8.27	3.9	0.0	No		-12.165532879818599				ISITrial	Mixed
39.0	2	179.877	0.027	755.357	-1.74	-0.87	20.3824	3.0	70.0	2.0	Outcome1	-1.74	10.9	2864.25	Yes	2.0	-12.6439909297052	1.579	181.456		GetAnswer	Loss
39.0	2	181.482	0.026	756.962	-1.74	-0.87	20.3824	4.0	70.0	2.0	Outcome1	-1.74	10.9	2864.25	Yes		-12.6439909297052				ShowChoice	Loss
39.0	2	185.494	0.012	760.974	-1.74	-0.87	20.3824	1.0	70.0	2.0	Outcome1	-1.74	10.9	2864.25	Yes		-12.6439909297052				ShowResult	Loss
39.0	2	186.514	0.02	761.994	-1.74	-0.87	20.3824	2.348	70.0	2.0	Outcome1	-1.74	10.9	2864.25	Yes		-12.6439909297052				ISITrial	Loss
39.0	2	191.78	0.028	767.26	-1.74	-0.87	20.3824	1.009	70.0	2.0	Outcome1	-1.74	10.9	2864.25	Yes		-12.6439909297052			472.0	TrialHappiness	Loss
39.0	2	195.808	4.028	771.288	-1.74	-0.87	20.3824	3.457	70.0	2.0	Outcome1	-1.74	10.9	2864.25	Yes		-12.6439909297052				ISIRate	Loss
40.0	2	199.285	0.02	774.765	-6.0	-6.0	19.6324	3.0	70.0	1.2	Certain	-12.88	-0.1	0.0	No	4.0	-12.7823129251701	2.061	201.346		GetAnswer	Mixed
40.0	2	201.375	0.029	776.855	-6.0	-6.0	19.6324	4.0	70.0	1.2	Certain	-12.88	-0.1	0.0	No		-12.7823129251701				ShowChoice	Mixed
40.0	2	205.387	0.012	780.867	-6.0	-6.0	19.6324	1.0	70.0	1.2	Certain	-12.88	-0.1	0.0	No		-12.7823129251701				ShowResult	Mixed
40.0	2	206.407	0.02	781.887	-6.0	-6.0	19.6324	3.158	70.0	1.2	Certain	-12.88	-0.1	0.0	No		-12.7823129251701				ISITrial	Mixed
41.0	2	209.6	0.035	785.08	-3.0	-3.0	19.2574	3.0	70.0	0.52	Certain	3.1	-10.14	4000.0	Yes	4.0	-13.2380952380952	2.049	211.649		GetAnswer	Mixed
41.0	2	211.673	0.024	787.153	-3.0	-3.0	19.2574	4.0	70.0	0.52	Certain	3.1	-10.14	4000.0	Yes		-13.2380952380952				ShowChoice	Mixed
41.0	2	215.701	0.028	791.181	-3.0	-3.0	19.2574	1.0	70.0	0.52	Certain	3.1	-10.14	4000.0	Yes		-13.2380952380952				ShowResult	Mixed
41.0	2	216.721	0.02	792.201	-3.0	-3.0	19.2574	4.506	70.0	0.52	Certain	3.1	-10.14	4000.0	Yes		-13.2380952380952				ISITrial	Mixed
41.0	2	225.28	0.029	800.76	-3.0	-3.0	19.2574	0.608	70.0	0.52	Certain	3.1	-10.14	4000.0	Yes		-13.2380952380952			492.0	TrialHappiness	Mixed
41.0	2	229.309	4.029	804.789	-3.0	-3.0	19.2574	8.0	70.0	0.52	Certain	3.1	-10.14	4000.0	Yes		-13.2380952380952				ISIRate	Mixed
42.0	2	237.333	0.024	812.813	-5.93	1.0	18.5161	3.0	70.0	4.2	Outcome2	8.1	-5.93	0.0	No	2.0	-14.0340136054422	2.046	239.379		GetAnswer	Gain
42.0	2	239.406	0.027	814.886	-5.93	1.0	18.5161	4.0	70.0	4.2	Outcome2	8.1	-5.93	0.0	No		-14.0340136054422				ShowChoice	Gain
42.0	2	243.434	0.028	818.914	-5.93	1.0	18.5161	1.0	70.0	4.2	Outcome2	8.1	-5.93	0.0	No		-14.0340136054422				ShowResult	Gain
42.0	2	244.454	0.02	819.934	-5.93	1.0	18.5161	6.248	70.0	4.2	Outcome2	8.1	-5.93	0.0	No		-14.0340136054422				ISITrial	Gain
43.0	2	250.723	0.021	826.203	-2.0	-2.0	18.2661	3.0	70.0	1.82	Certain	4.7	-9.81	2775.75	Yes	4.0	-14.5124716553288	1.568	252.291		GetAnswer	Gain
43.0	2	252.311	0.02	827.791	-2.0	-2.0	18.2661	4.0	70.0	1.82	Certain	4.7	-9.81	2775.75	Yes		-14.5124716553288				ShowChoice	Gain
43.0	2	256.323	0.012	831.803	-2.0	-2.0	18.2661	1.0	70.0	1.82	Certain	4.7	-9.81	2775.75	Yes		-14.5124716553288				ShowResult	Gain
43.0	2	257.343	0.02	832.823	-2.0	-2.0	18.2661	4.596	70.0	1.82	Certain	4.7	-9.81	2775.75	Yes		-14.5124716553288				ISITrial	Gain
43.0	2	264.748	0.016	840.228	-2.0	-2.0	18.2661	1.008	70.0	1.82	Certain	4.7	-9.81	2775.75	Yes		-14.5124716553288			472.0	TrialHappiness	Gain
43.0	2	268.76	4.012	844.24	-2.0	-2.0	18.2661	3.103	70.0	1.82	Certain	4.7	-9.81	2775.75	Yes		-14.5124716553288				ISIRate	Gain
44.0	2	271.886	0.023	847.366	1.78	0.0	18.4886	3.0	70.0	2.22	Outcome2	-0.5	1.78	0.0	No	2.0	2.28439153439153	1.857	273.743		GetAnswer	Gain
44.0	2	273.759	0.016	849.239	1.78	0.0	18.4886	4.0	70.0	2.22	Outcome2	-0.5	1.78	0.0	No		2.28439153439153				ShowChoice	Gain
44.0	2	277.771	0.012	853.251	1.78	0.0	18.4886	1.0	70.0	2.22	Outcome2	-0.5	1.78	0.0	No		2.28439153439153				ShowResult	Gain
44.0	2	278.79	0.019	854.27	1.78	0.0	18.4886	2.42	70.0	2.22	Outcome2	-0.5	1.78	0.0	No		2.28439153439153				ISITrial	Gain
45.0	2	281.231	0.021	856.711	-7.0	-7.0	17.6136	3.0	70.0	0.3	Certain	0.7	-14.41	0.0	No	4.0	-15.1065759637188	2.436	283.667		GetAnswer	Mixed
45.0	2	283.688	0.021	859.168	-7.0	-7.0	17.6136	4.0	70.0	0.3	Certain	0.7	-14.41	0.0	No		-15.1065759637188				ShowChoice	Mixed
45.0	2	287.7	0.012	863.18	-7.0	-7.0	17.6136	1.0	70.0	0.3	Certain	0.7	-14.41	0.0	No		-15.1065759637188				ShowResult	Mixed
45.0	2	288.72	0.02	864.2	-7.0	-7.0	17.6136	3.144	70.0	0.3	Certain	0.7	-14.41	0.0	No		-15.1065759637188				ISITrial	Mixed
46.0	2	291.879	0.015	867.359	-6.66	1.0	16.7811	3.0	70.0	2.0	Outcome1	-6.66	8.9	3841.25	Yes	2.0	-15.562358276644002	1.507	293.386		GetAnswer	Gain
46.0	2	293.401	0.015	868.881	-6.66	1.0	16.7811	4.0	70.0	2.0	Outcome1	-6.66	8.9	3841.25	Yes		-15.562358276644002				ShowChoice	Gain
46.0	2	297.413	0.012	872.893	-6.66	1.0	16.7811	1.0	70.0	2.0	Outcome1	-6.66	8.9	3841.25	Yes		-15.562358276644002				ShowResult	Gain
46.0	2	298.432	0.019	873.912	-6.66	1.0	16.7811	2.246	70.0	2.0	Outcome1	-6.66	8.9	3841.25	Yes		-15.562358276644002				ISITrial	Gain
46.0	2	304.551	0.021	880.031	-6.66	1.0	16.7811	0.446	70.0	2.0	Outcome1	-6.66	8.9	3841.25	Yes	4{-4}	-15.562358276644002	0.446	304.997	492.0	TrialHappiness	Gain
46.0	2	308.563	4.012	884.043	-6.66	1.0	16.7811	7.365	70.0	2.0	Outcome1	-6.66	8.9	3841.25	Yes		-15.562358276644002				ISIRate	Gain
47.0	2	315.952	0.024	891.432	-6.06	2.0	16.0236	3.0	70.0	5.0	Outcome1	-6.06	10.3	0.0	No	2.0	-16.3582766439909	1.616	317.568		GetAnswer	Gain
47.0	2	317.59	0.022	893.07	-6.06	2.0	16.0236	4.0	70.0	5.0	Outcome1	-6.06	10.3	0.0	No		-16.3582766439909				ShowChoice	Gain
47.0	2	321.602	0.012	897.082	-6.06	2.0	16.0236	1.0	70.0	5.0	Outcome1	-6.06	10.3	0.0	No		-16.3582766439909				ShowResult	Gain
47.0	2	322.622	0.02	898.102	-6.06	2.0	16.0236	2.0	70.0	5.0	Outcome1	-6.06	10.3	0.0	No		-16.3582766439909				ISITrial	Gain
48.0	2	324.644	0.022	900.124	2.0	2.0	16.2736	3.0	70.0	3.6	Certain	0.96	3.48	2831.75	Yes	4.0	2.5194633408919103	2.811	327.455		GetAnswer	Loss
48.0	2	327.469	0.014	902.949	2.0	2.0	16.2736	4.0	70.0	3.6	Certain	0.96	3.48	2831.75	Yes		2.5194633408919103				ShowChoice	Loss
48.0	2	331.481	0.012	906.961	2.0	2.0	16.2736	1.0	70.0	3.6	Certain	0.96	3.48	2831.75	Yes		2.5194633408919103				ShowResult	Loss
48.0	2	332.501	0.02	907.981	2.0	2.0	16.2736	3.692	70.0	3.6	Certain	0.96	3.48	2831.75	Yes		2.5194633408919103				ISITrial	Loss
48.0	2	339.071	0.027	914.551	2.0	2.0	16.2736	0.508	70.0	3.6	Certain	0.96	3.48	2831.75	Yes		2.5194633408919103			492.0	TrialHappiness	Loss
48.0	2	343.083	4.012	918.563	2.0	2.0	16.2736	3.327	70.0	3.6	Certain	0.96	3.48	2831.75	Yes		2.5194633408919103				ISIRate	Loss
49.0	2	346.426	0.016	921.906	-2.0	-2.0	16.0236	3.0	70.0	4.2	Certain	-11.22	6.1	0.0	No	4.0	-17.3151927437642	2.354	348.78		GetAnswer	Gain
49.0	2	348.8	0.02	924.28	-2.0	-2.0	16.0236	4.0	70.0	4.2	Certain	-11.22	6.1	0.0	No		-17.3151927437642				ShowChoice	Gain
49.0	2	352.812	0.012	928.292	-2.0	-2.0	16.0236	1.0	70.0	4.2	Certain	-11.22	6.1	0.0	No		-17.3151927437642				ShowResult	Gain
49.0	2	353.832	0.02	929.312	-2.0	-2.0	16.0236	8.0	70.0	4.2	Certain	-11.22	6.1	0.0	No		-17.3151927437642				ISITrial	Gain
50.0	2	361.856	0.024	937.336	-5.09	-2.54	15.3874	3.0	70.0	1.82	Outcome1	-5.09	12.7	3547.25	Yes	2.0	-17.7936507936508	1.695	363.551		GetAnswer	Loss
50.0	2	363.578	0.026	939.058	-5.09	-2.54	15.3874	4.0	70.0	1.82	Outcome1	-5.09	12.7	3547.25	Yes		-17.7936507936508				ShowChoice	Loss
50.0	2	367.59	0.012	943.07	-5.09	-2.54	15.3874	1.0	70.0	1.82	Outcome1	-5.09	12.7	3547.25	Yes		-17.7936507936508				ShowResult	Loss
50.0	2	368.609	0.019	944.089	-5.09	-2.54	15.3874	7.537	70.0	1.82	Outcome1	-5.09	12.7	3547.25	Yes		-17.7936507936508				ISITrial	Loss
50.0	2	379.743	0.031	955.223	-5.09	-2.54	15.3874	0.626	70.0	1.82	Outcome1	-5.09	12.7	3547.25	Yes		-17.7936507936508			472.0	TrialHappiness	Loss
50.0	2	383.755	4.012	959.235	-5.09	-2.54	15.3874	6.189	70.0	1.82	Outcome1	-5.09	12.7	3547.25	Yes		-17.7936507936508				ISIRate	Loss
51.0	2	389.973	0.029	965.453	0.0	0.0	15.3874	3.0	70.0	1.82	Certain	-9.23	8.7	0.0	No	4.0	-17.9319727891156	1.685	391.658		GetAnswer	Gain
51.0	2	391.679	0.021	967.159	0.0	0.0	15.3874	4.0	70.0	1.82	Certain	-9.23	8.7	0.0	No		-17.9319727891156				ShowChoice	Gain
51.0	2	395.691	0.012	971.171	0.0	0.0	15.3874	1.0	70.0	1.82	Certain	-9.23	8.7	0.0	No		-17.9319727891156				ShowResult	Gain
51.0	2	396.71	0.019	972.19	0.0	0.0	15.3874	5.508	70.0	1.82	Certain	-9.23	8.7	0.0	No		-17.9319727891156				ISITrial	Gain
52.0	2	402.244	0.026	977.724	2.48	1.0	15.6974	3.0	70.0	3.6	Outcome2	-0.12	2.48	0.0	No	2.0	2.5958049886621297	2.205	404.449		GetAnswer	Gain
52.0	2	404.467	0.018	979.947	2.48	1.0	15.6974	4.0	70.0	3.6	Outcome2	-0.12	2.48	0.0	No		2.5958049886621297				ShowChoice	Gain
52.0	2	408.479	0.012	983.959	2.48	1.0	15.6974	1.0	70.0	3.6	Outcome2	-0.12	2.48	0.0	No		2.5958049886621297				ShowResult	Gain
52.0	2	409.499	0.02	984.979	2.48	1.0	15.6974	5.913	70.0	3.6	Outcome2	-0.12	2.48	0.0	No		2.5958049886621297				ISITrial	Gain
53.0	2	415.433	0.021	990.913	-5.0	-5.0	15.0724	3.0	70.0	1.0	Certain	3.7	-15.14	2996.75	Yes	4.0	-18.843537414966	1.559	416.992		GetAnswer	Mixed
53.0	2	417.004	0.012	992.484	-5.0	-5.0	15.0724	4.0	70.0	1.0	Certain	3.7	-15.14	2996.75	Yes		-18.843537414966				ShowChoice	Mixed
53.0	2	421.016	0.012	996.496	-5.0	-5.0	15.0724	1.0	70.0	1.0	Certain	3.7	-15.14	2996.75	Yes		-18.843537414966				ShowResult	Mixed
53.0	2	422.036	0.02	997.516	-5.0	-5.0	15.0724	3.66	70.0	1.0	Certain	3.7	-15.14	2996.75	Yes		-18.843537414966				ISITrial	Mixed
53.0	2	428.74	0.029	1004.22	-5.0	-5.0	15.0724	0.957	70.0	1.0	Certain	3.7	-15.14	2996.75	Yes		-18.843537414966			472.0	TrialHappiness	Mixed
53.0	2	432.752	4.012	1008.232	-5.0	-5.0	15.0724	3.987	70.0	1.0	Certain	3.7	-15.14	2996.75	Yes		-18.843537414966				ISIRate	Mixed
54.0	2	436.764	0.025	1012.244	-8.8	1.0	13.9724	3.0	70.0	1.68	Outcome1	-8.8	10.5	0.0	No	2.0	-19.299319727891103	1.795	438.559		GetAnswer	Loss
54.0	2	438.586	0.027	1014.066	-8.8	1.0	13.9724	4.0	70.0	1.68	Outcome1	-8.8	10.5	0.0	No		-19.299319727891103				ShowChoice	Loss
54.0	2	442.598	0.012	1018.078	-8.8	1.0	13.9724	1.0	70.0	1.68	Outcome1	-8.8	10.5	0.0	No		-19.299319727891103				ShowResult	Loss
54.0	2	443.617	0.019	1019.097	-8.8	1.0	13.9724	8.0	70.0	1.68	Outcome1	-8.8	10.5	0.0	No		-19.299319727891103				ISITrial	Loss
	2	451.642	0.025	1027.122				-0.001								{SPACE}		49.987	501.629		Rest	
	2	501.641	0.012	1077.121				4.0													BlockHappyPreview	
	2	505.653	0.012	1081.133				0.0												512.0	BlockStartHappiness	
	2	512.039	0.01	1087.519				-0.001								5.0		6.763	518.802		ScanWait	
	3	0.024	0.024	1094.306				10.0													GetReady	
55.0	3	10.038	0.014	1104.32	12.9	2.68	15.5849	3.0	955.0	2.0	Outcome2	5.37	12.9	2533.25	Yes	2.0	7.52548131370328	1.131	11.169		GetAnswer	Loss
55.0	3	11.191	0.022	1105.473	12.9	2.68	15.5849	4.0	955.0	2.0	Outcome2	5.37	12.9	2533.25	Yes		7.52548131370328				ShowChoice	Loss
55.0	3	15.203	0.012	1109.485	12.9	2.68	15.5849	1.0	955.0	2.0	Outcome2	5.37	12.9	2533.25	Yes		7.52548131370328				ShowResult	Loss
55.0	3	16.223	0.02	1110.505	12.9	2.68	15.5849	7.709	955.0	2.0	Outcome2	5.37	12.9	2533.25	Yes		7.52548131370328				ISITrial	Loss
55.0	3	26.504	0.025	1120.786	12.9	2.68	15.5849	0.0	955.0	2.0	Outcome2	5.37	12.9	2533.25	Yes		7.52548131370328			512.0	TrialHappiness	Loss
55.0	3	30.516	4.012	1124.798	12.9	2.68	15.5849	2.133	955.0	2.0	Outcome2	5.37	12.9	2533.25	Yes		7.52548131370328				ISIRate	Loss
56.0	3	32.672	0.023	1126.954	4.3	0.0	16.1224	3.0	955.0	2.0	Outcome2	-3.73	4.3	0.0	No	2.0	8.02718006795017	1.361	34.033		GetAnswer	Mixed
56.0	3	34.06	0.027	1128.342	4.3	0.0	16.1224	4.0	955.0	2.0	Outcome2	-3.73	4.3	0.0	No		8.02718006795017				ShowChoice	Mixed
56.0	3	38.072	0.012	1132.354	4.3	0.0	16.1224	1.0	955.0	2.0	Outcome2	-3.73	4.3	0.0	No		8.02718006795017				ShowResult	Mixed
56.0	3	39.091	0.019	1133.373	4.3	0.0	16.1224	4.697	955.0	2.0	Outcome2	-3.73	4.3	0.0	No		8.02718006795017				ISITrial	Mixed
57.0	3	43.805	0.017	1138.087	0.42	1.0	16.1749	3.0	955.0	2.0	Outcome2	2.3	0.42	0.0	No	2.0	-1.88137032842582	2.465	46.27		GetAnswer	Mixed
57.0	3	46.296	0.026	1140.578	0.42	1.0	16.1749	4.0	955.0	2.0	Outcome2	2.3	0.42	0.0	No		-1.88137032842582				ShowChoice	Mixed
57.0	3	50.308	0.012	1144.59	0.42	1.0	16.1749	1.0	955.0	2.0	Outcome2	2.3	0.42	0.0	No		-1.88137032842582				ShowResult	Mixed
57.0	3	51.328	0.02	1145.61	0.42	1.0	16.1749	4.291	955.0	2.0	Outcome2	2.3	0.42	0.0	No		-1.88137032842582				ISITrial	Mixed
58.0	3	55.641	0.022	1149.923	-1.1	-5.0	16.0374	3.0	955.0	0.4	Outcome1	-1.1	-10.13	3045.75	Yes		9.030577576443939				GetAnswer	Mixed
58.0	3	58.667	0.026	1152.949	-1.1	-5.0	16.0374	4.0	955.0	0.4	Outcome1	-1.1	-10.13	3045.75	Yes		9.030577576443939				ShowChoice	Mixed
58.0	3	62.679	0.012	1156.961	-1.1	-5.0	16.0374	1.0	955.0	0.4	Outcome1	-1.1	-10.13	3045.75	Yes		9.030577576443939				ShowResult	Mixed
58.0	3	63.698	0.019	1157.98	-1.1	-5.0	16.0374	2.037	955.0	0.4	Outcome1	-1.1	-10.13	3045.75	Yes		9.030577576443939				ISITrial	Mixed
58.0	3	68.83	0.03	1163.112	-1.1	-5.0	16.0374	0.0	955.0	0.4	Outcome1	-1.1	-10.13	3045.75	Yes		9.030577576443939			512.0	TrialHappiness	Mixed
58.0	3	72.842	4.012	1167.124	-1.1	-5.0	16.0374	4.183	955.0	0.4	Outcome1	-1.1	-10.13	3045.75	Yes		9.030577576443939				ISIRate	Mixed
59.0	3	77.055	0.03	1171.337	9.7	0.08	17.2499	3.0	955.0	3.16	Outcome1	9.7	0.17	0.0	No	2.0	9.532276330690829	2.316	79.371		GetAnswer	Gain
59.0	3	79.395	0.024	1173.677	9.7	0.08	17.2499	4.0	955.0	3.16	Outcome1	9.7	0.17	0.0	No		9.532276330690829				ShowChoice	Gain
59.0	3	83.407	0.012	1177.689	9.7	0.08	17.2499	1.0	955.0	3.16	Outcome1	9.7	0.17	0.0	No		9.532276330690829				ShowResult	Gain
59.0	3	84.427	0.02	1178.709	9.7	0.08	17.2499	5.064	955.0	3.16	Outcome1	9.7	0.17	0.0	No		9.532276330690829				ISITrial	Gain
60.0	3	89.509	0.018	1183.791	5.1	0.0	17.8874	3.0	955.0	2.22	Outcome1	5.1	-4.93	3562.5	Yes	2.0	10.0339750849377	2.206	91.715		GetAnswer	Gain
60.0	3	91.732	0.017	1186.014	5.1	0.0	17.8874	4.0	955.0	2.22	Outcome1	5.1	-4.93	3562.5	Yes		10.0339750849377				ShowChoice	Gain
60.0	3	95.744	0.012	1190.026	5.1	0.0	17.8874	1.0	955.0	2.22	Outcome1	5.1	-4.93	3562.5	Yes		10.0339750849377				ShowResult	Gain
60.0	3	96.764	0.02	1191.046	5.1	0.0	17.8874	8.0	955.0	2.22	Outcome1	5.1	-4.93	3562.5	Yes		10.0339750849377				ISITrial	Gain
60.0	3	108.365	0.015	1202.647	5.1	0.0	17.8874	0.774	955.0	2.22	Outcome1	5.1	-4.93	3562.5	Yes		10.0339750849377			532.0	TrialHappiness	Gain
60.0	3	112.378	4.013	1206.66	5.1	0.0	17.8874	6.25	955.0	2.22	Outcome1	5.1	-4.93	3562.5	Yes		10.0339750849377				ISIRate	Gain
61.0	3	118.646	0.018	1212.928	-3.0	-3.0	17.5124	3.0	955.0	1.0	Certain	1.7	-8.5	0.0	No	4.0	10.1959229898075	1.318	119.964		GetAnswer	Mixed
61.0	3	119.984	0.02	1214.266	-3.0	-3.0	17.5124	4.0	955.0	1.0	Certain	1.7	-8.5	0.0	No		10.1959229898075				ShowChoice	Mixed
61.0	3	123.996	0.012	1218.278	-3.0	-3.0	17.5124	1.0	955.0	1.0	Certain	1.7	-8.5	0.0	No		10.1959229898075				ShowResult	Mixed
61.0	3	125.015	0.019	1219.297	-3.0	-3.0	17.5124	4.586	955.0	1.0	Certain	1.7	-8.5	0.0	No		10.1959229898075				ISITrial	Mixed
62.0	3	129.629	0.028	1223.911	4.29	2.14	18.0486	3.0	955.0	5.0	Outcome2	6.3	4.29	3748.75	Yes	2.0	-2.00736126840317	1.139	130.768		GetAnswer	Gain
62.0	3	130.783	0.015	1225.065	4.29	2.14	18.0486	4.0	955.0	5.0	Outcome2	6.3	4.29	3748.75	Yes		-2.00736126840317				ShowChoice	Gain
62.0	3	134.795	0.012	1229.077	4.29	2.14	18.0486	1.0	955.0	5.0	Outcome2	6.3	4.29	3748.75	Yes		-2.00736126840317				ShowResult	Gain
62.0	3	135.814	0.019	1230.096	4.29	2.14	18.0486	5.212	955.0	5.0	Outcome2	6.3	4.29	3748.75	Yes		-2.00736126840317				ISITrial	Gain
62.0	3	144.825	0.029	1239.107	4.29	2.14	18.0486	2.411	955.0	5.0	Outcome2	6.3	4.29	3748.75	Yes		-2.00736126840317			532.0	TrialHappiness	Gain
62.0	3	148.837	4.012	1243.119	4.29	2.14	18.0486	6.995	955.0	5.0	Outcome2	6.3	4.29	3748.75	Yes		-2.00736126840317				ISIRate	Gain
63.0	3	155.858	0.026	1250.14	11.25	5.62	19.4548	3.0	955.0	2.48	Outcome2	13.3	11.25	0.0	No	2.0	-2.04728199320498	1.266	157.124		GetAnswer	Loss
63.0	3	157.145	0.021	1251.427	11.25	5.62	19.4548	4.0	955.0	2.48	Outcome2	13.3	11.25	0.0	No		-2.04728199320498				ShowChoice	Loss
63.0	3	161.157	0.012	1255.439	11.25	5.62	19.4548	1.0	955.0	2.48	Outcome2	13.3	11.25	0.0	No		-2.04728199320498				ShowResult	Loss
63.0	3	162.177	0.02	1256.459	11.25	5.62	19.4548	5.595	955.0	2.48	Outcome2	13.3	11.25	0.0	No		-2.04728199320498				ISITrial	Loss
64.0	3	167.794	0.022	1262.076	6.9	1.0	20.3173	3.0	955.0	2.0	Outcome1	6.9	-4.73	0.0	No	2.0	11.633069082672698	1.39	169.184		GetAnswer	Gain
64.0	3	169.198	0.014	1263.48	6.9	1.0	20.3173	4.0	955.0	2.0	Outcome1	6.9	-4.73	0.0	No		11.633069082672698				ShowChoice	Gain
64.0	3	173.21	0.012	1267.492	6.9	1.0	20.3173	1.0	955.0	2.0	Outcome1	6.9	-4.73	0.0	No		11.633069082672698				ShowResult	Gain
64.0	3	174.23	0.02	1268.512	6.9	1.0	20.3173	5.47	955.0	2.0	Outcome1	6.9	-4.73	0.0	No		11.633069082672698				ISITrial	Gain
65.0	3	179.729	0.029	1274.011	1.1	-5.0	20.4548	3.0	955.0	0.52	Outcome1	1.1	-11.01	2996.75	Yes	2.0	12.112117780294499	1.864	181.593		GetAnswer	Mixed
65.0	3	181.618	0.025	1275.9	1.1	-5.0	20.4548	4.0	955.0	0.52	Outcome1	1.1	-11.01	2996.75	Yes		12.112117780294499				ShowChoice	Mixed
65.0	3	185.63	0.012	1279.912	1.1	-5.0	20.4548	1.0	955.0	0.52	Outcome1	1.1	-11.01	2996.75	Yes		12.112117780294499				ShowResult	Mixed
65.0	3	186.65	0.02	1280.932	1.1	-5.0	20.4548	3.344	955.0	0.52	Outcome1	1.1	-11.01	2996.75	Yes		12.112117780294499				ISITrial	Mixed
65.0	3	193.036	0.029	1287.318	1.1	-5.0	20.4548	0.435	955.0	0.52	Outcome1	1.1	-11.01	2996.75	Yes		12.112117780294499			532.0	TrialHappiness	Mixed
65.0	3	197.065	4.029	1291.347	1.1	-5.0	20.4548	3.987	955.0	0.52	Outcome1	1.1	-11.01	2996.75	Yes		12.112117780294499				ISIRate	Mixed
66.0	3	201.077	0.025	1295.359	-2.07	-1.0	20.195999999999998	3.0	955.0	1.5	Outcome2	0.1	-2.07	0.0	No	2.0	-2.16704416761042	2.794	203.871		GetAnswer	Mixed
66.0	3	203.902	0.03	1298.184	-2.07	-1.0	20.195999999999998	4.0	955.0	1.5	Outcome2	0.1	-2.07	0.0	No		-2.16704416761042				ShowChoice	Mixed
66.0	3	207.93	0.028	1302.212	-2.07	-1.0	20.195999999999998	1.0	955.0	1.5	Outcome2	0.1	-2.07	0.0	No		-2.16704416761042				ShowResult	Mixed
66.0	3	208.95	0.02	1303.232	-2.07	-1.0	20.195999999999998	3.959	955.0	1.5	Outcome2	0.1	-2.07	0.0	No		-2.16704416761042				ISITrial	Mixed
67.0	3	212.929	0.02	1307.211	13.1	0.02	21.8335	3.0	955.0	2.22	Outcome1	13.1	0.03	2918.5	Yes	2.0	13.070215175537902	1.488	214.417		GetAnswer	Loss
67.0	3	214.433	0.016	1308.715	13.1	0.02	21.8335	4.0	955.0	2.22	Outcome1	13.1	0.03	2918.5	Yes		13.070215175537902				ShowChoice	Loss
67.0	3	218.462	0.029	1312.744	13.1	0.02	21.8335	1.0	955.0	2.22	Outcome1	13.1	0.03	2918.5	Yes		13.070215175537902				ShowResult	Loss
67.0	3	219.482	0.02	1313.764	13.1	0.02	21.8335	4.199	955.0	2.22	Outcome1	13.1	0.03	2918.5	Yes		13.070215175537902				ISITrial	Loss
67.0	3	226.637	0.025	1320.919	13.1	0.02	21.8335	0.51	955.0	2.22	Outcome1	13.1	0.03	2918.5	Yes	2{-2}	13.070215175537902	0.51	227.147	528.0	TrialHappiness	Loss
67.0	3	230.665	4.028	1324.947	13.1	0.02	21.8335	3.674	955.0	2.22	Outcome1	13.1	0.03	2918.5	Yes		13.070215175537902				ISIRate	Loss
68.0	3	234.36	0.021	1328.642	0.5	-6.0	21.896	3.0	955.0	0.2	Outcome1	0.5	-13.12	0.0	No	2.0	13.6172140430351	1.996	236.356		GetAnswer	Mixed
68.0	3	236.382	0.026	1330.664	0.5	-6.0	21.896	4.0	955.0	0.2	Outcome1	0.5	-13.12	0.0	No		13.6172140430351				ShowChoice	Mixed
68.0	3	240.394	0.012	1334.676	0.5	-6.0	21.896	1.0	955.0	0.2	Outcome1	0.5	-13.12	0.0	No		13.6172140430351				ShowResult	Mixed
68.0	3	241.414	0.02	1335.696	0.5	-6.0	21.896	2.185	955.0	0.2	Outcome1	0.5	-13.12	0.0	No		13.6172140430351				ISITrial	Mixed
69.0	3	243.621	0.022	1337.903	9.5	2.0	23.0835	3.0	955.0	2.8	Outcome2	-4.6	9.5	0.0	No	2.0	14.1007927519819	1.331	244.952		GetAnswer	Gain
69.0	3	244.975	0.023	1339.257	9.5	2.0	23.0835	4.0	955.0	2.8	Outcome2	-4.6	9.5	0.0	No		14.1007927519819				ShowChoice	Gain
69.0	3	248.987	0.012	1343.269	9.5	2.0	23.0835	1.0	955.0	2.8	Outcome2	-4.6	9.5	0.0	No		14.1007927519819				ShowResult	Gain
69.0	3	250.007	0.02	1344.289	9.5	2.0	23.0835	2.0	955.0	2.8	Outcome2	-4.6	9.5	0.0	No		14.1007927519819				ISITrial	Gain
70.0	3	252.029	0.022	1346.311	-0.3	-7.0	23.046	3.0	955.0	1.0	Outcome2	-14.88	-0.3	3651.25	Yes	2.0	14.5843714609287	2.477	254.506		GetAnswer	Mixed
70.0	3	254.52	0.014	1348.802	-0.3	-7.0	23.046	4.0	955.0	1.0	Outcome2	-14.88	-0.3	3651.25	Yes		14.5843714609287				ShowChoice	Mixed
70.0	3	258.532	0.012	1352.814	-0.3	-7.0	23.046	1.0	955.0	1.0	Outcome2	-14.88	-0.3	3651.25	Yes		14.5843714609287				ShowResult	Mixed
70.0	3	259.552	0.02	1353.834	-0.3	-7.0	23.046	2.623	955.0	1.0	Outcome2	-14.88	-0.3	3651.25	Yes		14.5843714609287				ISITrial	Mixed
70.0	3	265.871	0.027	1360.153	-0.3	-7.0	23.046	3.678	955.0	1.0	Outcome2	-14.88	-0.3	3651.25	Yes		14.5843714609287			524.0	TrialHappiness	Mixed
70.0	3	269.9	4.029	1364.182	-0.3	-7.0	23.046	6.605	955.0	1.0	Outcome2	-14.88	-0.3	3651.25	Yes		14.5843714609287				ISIRate	Mixed
71.0	3	276.536	0.031	1370.818	0.9	2.0	23.1585	3.0	955.0	0.66	Outcome2	3.3	0.9	0.0	No	2.0	-2.40024537561344	1.501	278.037		GetAnswer	Mixed
71.0	3	278.057	0.02	1372.339	0.9	2.0	23.1585	4.0	955.0	0.66	Outcome2	3.3	0.9	0.0	No		-2.40024537561344				ShowChoice	Mixed
71.0	3	282.069	0.012	1376.351	0.9	2.0	23.1585	1.0	955.0	0.66	Outcome2	3.3	0.9	0.0	No		-2.40024537561344				ShowResult	Mixed
71.0	3	283.089	0.02	1377.371	0.9	2.0	23.1585	5.499	955.0	0.66	Outcome2	3.3	0.9	0.0	No		-2.40024537561344				ISITrial	Mixed
72.0	3	288.606	0.018	1382.888	5.7	-2.0	23.871	3.0	955.0	3.16	Outcome2	-9.92	5.7	3080.5	Yes	2.0	15.6240090600226	1.933	290.539		GetAnswer	Gain
72.0	3	290.561	0.022	1384.843	5.7	-2.0	23.871	4.0	955.0	3.16	Outcome2	-9.92	5.7	3080.5	Yes		15.6240090600226				ShowChoice	Gain
72.0	3	294.573	0.012	1388.855	5.7	-2.0	23.871	1.0	955.0	3.16	Outcome2	-9.92	5.7	3080.5	Yes		15.6240090600226				ShowResult	Gain
72.0	3	295.593	0.02	1389.875	5.7	-2.0	23.871	5.672	955.0	3.16	Outcome2	-9.92	5.7	3080.5	Yes		15.6240090600226				ISITrial	Gain
72.0	3	304.403	0.029	1398.685	5.7	-2.0	23.871	1.218	955.0	3.16	Outcome2	-9.92	5.7	3080.5	Yes		15.6240090600226			552.0	TrialHappiness	Gain
72.0	3	308.432	4.029	1402.714	5.7	-2.0	23.871	4.322	955.0	3.16	Outcome2	-9.92	5.7	3080.5	Yes		15.6240090600226				ISIRate	Gain
73.0	3	312.778	0.024	1407.06	-1.3	-9.0	23.7085	3.0	955.0	0.3	Outcome2	-16.94	-1.3	0.0	No	2.0	15.636466591166501	2.516	315.294		GetAnswer	Mixed
73.0	3	315.319	0.025	1409.601	-1.3	-9.0	23.7085	4.0	955.0	0.3	Outcome2	-16.94	-1.3	0.0	No		15.636466591166501				ShowChoice	Mixed
73.0	3	319.331	0.012	1413.613	-1.3	-9.0	23.7085	1.0	955.0	0.3	Outcome2	-16.94	-1.3	0.0	No		15.636466591166501				ShowResult	Mixed
73.0	3	320.351	0.02	1414.633	-1.3	-9.0	23.7085	4.616	955.0	0.3	Outcome2	-16.94	-1.3	0.0	No		15.636466591166501				ISITrial	Mixed
74.0	3	324.998	0.031	1419.28	10.7	2.0	25.046	3.0	955.0	1.82	Outcome2	-5.39	10.7	3056.25	Yes	2.0	16.0928652321631	1.017	326.015		GetAnswer	Loss
74.0	3	326.034	0.019	1420.316	10.7	2.0	25.046	4.0	955.0	1.82	Outcome2	-5.39	10.7	3056.25	Yes		16.0928652321631				ShowChoice	Loss
74.0	3	330.046	0.012	1424.328	10.7	2.0	25.046	1.0	955.0	1.82	Outcome2	-5.39	10.7	3056.25	Yes		16.0928652321631				ShowResult	Loss
74.0	3	331.066	0.02	1425.348	10.7	2.0	25.046	3.909	955.0	1.82	Outcome2	-5.39	10.7	3056.25	Yes		16.0928652321631				ISITrial	Loss
74.0	3	338.07	0.019	1432.352	10.7	2.0	25.046	1.55	955.0	1.82	Outcome2	-5.39	10.7	3056.25	Yes	2{-2}2{-2}	16.0928652321631	1.55	339.62	540.0	TrialHappiness	Loss
74.0	3	342.099	4.029	1436.381	10.7	2.0	25.046	4.225	955.0	1.82	Outcome2	-5.39	10.7	3056.25	Yes		16.0928652321631				ISIRate	Loss
75.0	3	346.345	0.021	1440.627	-2.19	-1.0	24.7722	3.0	955.0	2.0	Outcome1	-2.19	0.3	0.0	No	2.0	-2.49273310683277	1.81	348.155		GetAnswer	Mixed
75.0	3	348.184	0.029	1442.466	-2.19	-1.0	24.7722	4.0	955.0	2.0	Outcome1	-2.19	0.3	0.0	No		-2.49273310683277				ShowChoice	Mixed
75.0	3	352.196	0.012	1446.478	-2.19	-1.0	24.7722	1.0	955.0	2.0	Outcome1	-2.19	0.3	0.0	No		-2.49273310683277				ShowResult	Mixed
75.0	3	353.216	0.02	1447.498	-2.19	-1.0	24.7722	4.979	955.0	2.0	Outcome1	-2.19	0.3	0.0	No		-2.49273310683277				ISITrial	Mixed
76.0	3	358.214	0.019	1452.496	9.3	0.0	25.9347	3.0	955.0	2.48	Outcome1	9.3	-7.92	0.0	No	2.0	17.223103057757598	1.568	359.782		GetAnswer	Gain
76.0	3	359.802	0.02	1454.084	9.3	0.0	25.9347	4.0	955.0	2.48	Outcome1	9.3	-7.92	0.0	No		17.223103057757598				ShowChoice	Gain
76.0	3	363.814	0.012	1458.096	9.3	0.0	25.9347	1.0	955.0	2.48	Outcome1	9.3	-7.92	0.0	No		17.223103057757598				ShowResult	Gain
76.0	3	364.834	0.02	1459.116	9.3	0.0	25.9347	3.931	955.0	2.48	Outcome1	9.3	-7.92	0.0	No		17.223103057757598				ISITrial	Gain
77.0	3	368.796	0.031	1463.078	-1.27	0.0	25.7759	3.0	955.0	0.66	Outcome2	1.3	-1.27	4000.0	Yes	2.0	-2.57106455266138	1.93	370.726		GetAnswer	Mixed
77.0	3	370.752	0.026	1465.034	-1.27	0.0	25.7759	4.0	955.0	0.66	Outcome2	1.3	-1.27	4000.0	Yes		-2.57106455266138				ShowChoice	Mixed
77.0	3	374.78	0.028	1469.062	-1.27	0.0	25.7759	1.0	955.0	0.66	Outcome2	1.3	-1.27	4000.0	Yes		-2.57106455266138				ShowResult	Mixed
77.0	3	375.8	0.02	1470.082	-1.27	0.0	25.7759	7.022	955.0	0.66	Outcome2	1.3	-1.27	4000.0	Yes		-2.57106455266138				ISITrial	Mixed
77.0	3	386.867	0.029	1481.149	-1.27	0.0	25.7759	0.608	955.0	0.66	Outcome2	1.3	-1.27	4000.0	Yes		-2.57106455266138			536.0	TrialHappiness	Mixed
77.0	3	390.895	4.028	1485.177	-1.27	0.0	25.7759	8.0	955.0	0.66	Outcome2	1.3	-1.27	4000.0	Yes		-2.57106455266138				ISIRate	Mixed
78.0	3	398.919	0.024	1493.201	12.5	-2.86	27.3384	3.0	955.0	1.68	Outcome1	12.5	-5.73	0.0	No	2.0	18.231030577576398	1.372	400.291		GetAnswer	Loss
78.0	3	400.307	0.016	1494.589	12.5	-2.86	27.3384	4.0	955.0	1.68	Outcome1	12.5	-5.73	0.0	No		18.231030577576398				ShowChoice	Loss
78.0	3	404.336	0.029	1498.618	12.5	-2.86	27.3384	1.0	955.0	1.68	Outcome1	12.5	-5.73	0.0	No		18.231030577576398				ShowResult	Loss
78.0	3	405.355	0.019	1499.637	12.5	-2.86	27.3384	2.078	955.0	1.68	Outcome1	12.5	-5.73	0.0	No		18.231030577576398				ISITrial	Loss
79.0	3	407.462	0.029	1501.744	8.3	-1.0	28.3759	3.0	955.0	5.0	Outcome2	-10.41	8.3	2729.5	Yes	2.0	18.7055492638732	2.989	410.451		GetAnswer	Gain
79.0	3	410.471	0.02	1504.753	8.3	-1.0	28.3759	4.0	955.0	5.0	Outcome2	-10.41	8.3	2729.5	Yes		18.7055492638732				ShowChoice	Gain
79.0	3	414.499	0.028	1508.781	8.3	-1.0	28.3759	1.0	955.0	5.0	Outcome2	-10.41	8.3	2729.5	Yes		18.7055492638732				ShowResult	Gain
79.0	3	415.519	0.02	1509.801	8.3	-1.0	28.3759	3.829	955.0	5.0	Outcome2	-10.41	8.3	2729.5	Yes		18.7055492638732				ISITrial	Gain
79.0	3	422.122	0.028	1516.404	8.3	-1.0	28.3759	0.457	955.0	5.0	Outcome2	-10.41	8.3	2729.5	Yes		18.7055492638732			532.0	TrialHappiness	Gain
79.0	3	426.151	4.029	1520.433	8.3	-1.0	28.3759	2.918	955.0	5.0	Outcome2	-10.41	8.3	2729.5	Yes		18.7055492638732				ISIRate	Gain
80.0	3	429.093	0.024	1523.375	1.3	-8.0	28.5384	3.0	955.0	0.66	Outcome2	-17.95	1.3	0.0	No		19.2480181200453				GetAnswer	Mixed
80.0	3	432.119	0.026	1526.401	1.3	-8.0	28.5384	4.0	955.0	0.66	Outcome2	-17.95	1.3	0.0	No		19.2480181200453				ShowChoice	Mixed
80.0	3	436.148	0.029	1530.43	1.3	-8.0	28.5384	1.0	955.0	0.66	Outcome2	-17.95	1.3	0.0	No		19.2480181200453				ShowResult	Mixed
80.0	3	437.167	0.019	1531.449	1.3	-8.0	28.5384	3.336	955.0	0.66	Outcome2	-17.95	1.3	0.0	No		19.2480181200453				ISITrial	Mixed
81.0	3	440.527	0.024	1534.809	3.14	1.57	28.9309	3.0	955.0	3.6	Outcome1	3.14	5.9	3923.75	Yes		-2.76170252925632				GetAnswer	Gain
81.0	3	443.553	0.026	1537.835	3.14	1.57	28.9309	4.0	955.0	3.6	Outcome1	3.14	5.9	3923.75	Yes		-2.76170252925632				ShowChoice	Gain
81.0	3	447.565	0.012	1541.847	3.14	1.57	28.9309	1.0	955.0	3.6	Outcome1	3.14	5.9	3923.75	Yes		-2.76170252925632				ShowResult	Gain
81.0	3	448.585	0.02	1542.867	3.14	1.57	28.9309	3.919	955.0	3.6	Outcome1	3.14	5.9	3923.75	Yes		-2.76170252925632				ISITrial	Gain
81.0	3	456.475	0.021	1550.757	3.14	1.57	28.9309	0.501	955.0	3.6	Outcome1	3.14	5.9	3923.75	Yes		-2.76170252925632			532.0	TrialHappiness	Gain
81.0	3	460.487	4.012	1554.769	3.14	1.57	28.9309	7.695	955.0	3.6	Outcome1	3.14	5.9	3923.75	Yes		-2.76170252925632				ISIRate	Gain
	3	468.21	0.028	1562.492				3.0													CurrentEarnings	
	3	471.236	0.026	1565.518				-0.001								{SPACE}		62.446	533.682		Goodbye	
