trial_number	block	onset	onset_delay	onset_unadjusted	amount_change	certain_amount	current_amount	duration	mood_target	multiplier	outcome	outcome1_amount	outcome2_amount	question_duration	rating	response	rpe	rt	rt_time	slider_response	trial_phase	trial_type
	0	-42.523	0.021	23.063				-0.001								{SPACE}		3.578	-38.945		Welcome	
	0	-38.929	0.015	26.657				5.0													LifeHappyPreview	
	0	-33.914	0.015	31.672				4.849												712.0	LifeHappiness	
	0	-13.753	0.024	51.833				4.0													BlockHappyPreview	
	0	-9.741	0.012	55.845				1.008												656.0	BlockStartHappiness	
	0	-2.035	0.014	63.551				-0.001								5.0					ScanWait	
	1	0.021	0.021	65.607				10.0													GetReady	
1.0	1	10.034	0.013	75.62	8.1	1.51	11.0125	3.0	955.0	4.2	Outcome1	8.1	3.02	0.0	No	2.0	5.0792751981879904	1.344	11.378		GetAnswer	Gain
1.0	1	11.405	0.027	76.991	8.1	1.51	11.0125	4.0	955.0	4.2	Outcome1	8.1	3.02	0.0	No		5.0792751981879904				ShowChoice	Gain
1.0	1	15.417	0.012	81.003	8.1	1.51	11.0125	1.0	955.0	4.2	Outcome1	8.1	3.02	0.0	No		5.0792751981879904				ShowResult	Gain
1.0	1	16.437	0.02	82.023	8.1	1.51	11.0125	2.431	955.0	4.2	Outcome1	8.1	3.02	0.0	No		5.0792751981879904				ISITrial	Gain
2.0	1	18.894	0.026	84.48	3.86	1.93	11.495	3.0	955.0	2.22	Outcome2	5.1	3.86	0.0	No	2.0	-1.24160060400151	1.175	20.069		GetAnswer	Gain
2.0	1	20.081	0.012	85.667	3.86	1.93	11.495	4.0	955.0	2.22	Outcome2	5.1	3.86	0.0	No		-1.24160060400151				ShowChoice	Gain
2.0	1	24.093	0.012	89.679	3.86	1.93	11.495	1.0	955.0	2.22	Outcome2	5.1	3.86	0.0	No		-1.24160060400151				ShowResult	Gain
2.0	1	25.113	0.02	90.699	3.86	1.93	11.495	4.568	955.0	2.22	Outcome2	5.1	3.86	0.0	No		-1.24160060400151				ISITrial	Gain
3.0	1	29.71	0.029	95.296	9.03	4.51	12.6238	3.0	955.0	5.0	Outcome2	10.3	9.03	2868.0	Yes	2.0	-1.2698187995469998	1.16	30.87		GetAnswer	Gain
3.0	1	30.897	0.027	96.483	9.03	4.51	12.6238	4.0	955.0	5.0	Outcome2	10.3	9.03	2868.0	Yes		-1.2698187995469998				ShowChoice	Gain
3.0	1	34.909	0.012	100.495	9.03	4.51	12.6238	1.0	955.0	5.0	Outcome2	10.3	9.03	2868.0	Yes		-1.2698187995469998				ShowResult	Gain
3.0	1	35.929	0.02	101.515	9.03	4.51	12.6238	3.243	955.0	5.0	Outcome2	10.3	9.03	2868.0	Yes		-1.2698187995469998				ISITrial	Gain
3.0	1	42.08	0.024	107.666	9.03	4.51	12.6238	2.047	955.0	5.0	Outcome2	10.3	9.03	2868.0	Yes	2{-2}2{-2}2{-2}	-1.2698187995469998	2.047	44.127	616.0	TrialHappiness	Gain
3.0	1	46.092	4.012	111.678	9.03	4.51	12.6238	3.472	955.0	5.0	Outcome2	10.3	9.03	2868.0	Yes		-1.2698187995469998				ISIRate	Gain
4.0	1	49.586	0.022	115.172	5.44	2.72	13.3038	3.0	955.0	2.0	Outcome1	5.44	6.9	0.0	No	2.0	-1.4603624009060001	1.053	50.639		GetAnswer	Gain
4.0	1	50.656	0.017	116.242	5.44	2.72	13.3038	4.0	955.0	2.0	Outcome1	5.44	6.9	0.0	No		-1.4603624009060001				ShowChoice	Gain
4.0	1	54.668	0.012	120.254	5.44	2.72	13.3038	1.0	955.0	2.0	Outcome1	5.44	6.9	0.0	No		-1.4603624009060001				ShowResult	Gain
4.0	1	55.688	0.02	121.274	5.44	2.72	13.3038	2.011	955.0	2.0	Outcome1	5.44	6.9	0.0	No		-1.4603624009060001				ISITrial	Gain
5.0	1	57.727	0.028	123.313	11.3	2.07	14.7163	3.0	955.0	2.48	Outcome2	4.14	11.3	2582.5	Yes	2.0	7.15855039637599	0.89	58.617		GetAnswer	Loss
5.0	1	58.63	0.013	124.216	11.3	2.07	14.7163	4.0	955.0	2.48	Outcome2	4.14	11.3	2582.5	Yes		7.15855039637599				ShowChoice	Loss
5.0	1	62.642	0.012	128.228	11.3	2.07	14.7163	1.0	955.0	2.48	Outcome2	4.14	11.3	2582.5	Yes		7.15855039637599				ShowResult	Loss
5.0	1	63.662	0.02	129.248	11.3	2.07	14.7163	5.129	955.0	2.48	Outcome2	4.14	11.3	2582.5	Yes		7.15855039637599				ISITrial	Loss
5.0	1	71.418	0.026	137.004	11.3	2.07	14.7163	2.063	955.0	2.48	Outcome2	4.14	11.3	2582.5	Yes		7.15855039637599			736.0	TrialHappiness	Loss
5.0	1	75.43	4.012	141.016	11.3	2.07	14.7163	2.33	955.0	2.48	Outcome2	4.14	11.3	2582.5	Yes		7.15855039637599				ISIRate	Loss
6.0	1	77.787	0.027	143.373	7.5	1.0	15.6538	3.0	955.0	2.8	Outcome2	2.0	7.5	0.0	No	2.0	5.503963759909401	1.093	78.88		GetAnswer	Gain
6.0	1	78.907	0.027	144.493	7.5	1.0	15.6538	4.0	955.0	2.8	Outcome2	2.0	7.5	0.0	No		5.503963759909401				ShowChoice	Gain
6.0	1	82.919	0.012	148.505	7.5	1.0	15.6538	1.0	955.0	2.8	Outcome2	2.0	7.5	0.0	No		5.503963759909401				ShowResult	Gain
6.0	1	83.939	0.02	149.525	7.5	1.0	15.6538	6.232	955.0	2.8	Outcome2	2.0	7.5	0.0	No		5.503963759909401				ISITrial	Gain
7.0	1	90.191	0.02	155.777	7.3	0.78	16.5663	3.0	955.0	2.48	Outcome1	7.3	1.55	0.0	No	2.0	5.751981879954701	1.175	91.366		GetAnswer	Gain
7.0	1	91.378	0.012	156.964	7.3	0.78	16.5663	4.0	955.0	2.48	Outcome1	7.3	1.55	0.0	No		5.751981879954701				ShowChoice	Gain
7.0	1	95.39	0.012	160.976	7.3	0.78	16.5663	1.0	955.0	2.48	Outcome1	7.3	1.55	0.0	No		5.751981879954701				ShowResult	Gain
7.0	1	96.41	0.02	161.996	7.3	0.78	16.5663	2.305	955.0	2.48	Outcome1	7.3	1.55	0.0	No		5.751981879954701				ISITrial	Gain
8.0	1	98.733	0.018	164.319	-3.0	-3.0	16.1913	3.0	955.0	1.0	Certain	-0.3	-6.3	3112.5	Yes	4.0	6.0	2.354	101.087		GetAnswer	Mixed
8.0	1	101.107	0.02	166.693	-3.0	-3.0	16.1913	4.0	955.0	1.0	Certain	-0.3	-6.3	3112.5	Yes		6.0				ShowChoice	Mixed
8.0	1	105.119	0.012	170.705	-3.0	-3.0	16.1913	1.0	955.0	1.0	Certain	-0.3	-6.3	3112.5	Yes		6.0				ShowResult	Mixed
8.0	1	106.139	0.02	171.725	-3.0	-3.0	16.1913	3.506	955.0	1.0	Certain	-0.3	-6.3	3112.5	Yes		6.0				ISITrial	Mixed
8.0	1	112.792	0.014	178.378	-3.0	-3.0	16.1913	3.4	955.0	1.0	Certain	-0.3	-6.3	3112.5	Yes	2{-2}2{-2}2{-2}2{-2}2{-2}4{-4}	6.0	3.4	116.192	652.0	TrialHappiness	Mixed
8.0	1	116.804	4.012	182.39	-3.0	-3.0	16.1913	4.45	955.0	1.0	Certain	-0.3	-6.3	3112.5	Yes		6.0				ISIRate	Mixed
9.0	1	121.284	0.03	186.87	-4.0	-4.0	15.6913	3.0	955.0	0.66	Certain	-8.38	-0.7	0.0	No	4.0	7.6749716874292195	1.893	123.177		GetAnswer	Mixed
9.0	1	123.19	0.013	188.776	-4.0	-4.0	15.6913	4.0	955.0	0.66	Certain	-8.38	-0.7	0.0	No		7.6749716874292195				ShowChoice	Mixed
9.0	1	127.202	0.012	192.788	-4.0	-4.0	15.6913	1.0	955.0	0.66	Certain	-8.38	-0.7	0.0	No		7.6749716874292195				ShowResult	Mixed
9.0	1	128.222	0.02	193.808	-4.0	-4.0	15.6913	2.0	955.0	0.66	Certain	-8.38	-0.7	0.0	No		7.6749716874292195				ISITrial	Mixed
10.0	1	130.244	0.022	195.83	0.0	0.0	15.6913	3.0	955.0	1.68	Certain	4.5	-3.52	4000.0	Yes	4.0	8.01812004530011	1.227	131.471		GetAnswer	Gain
10.0	1	131.481	0.01	197.067	0.0	0.0	15.6913	4.0	955.0	1.68	Certain	4.5	-3.52	4000.0	Yes		8.01812004530011				ShowChoice	Gain
10.0	1	135.493	0.012	201.079	0.0	0.0	15.6913	1.0	955.0	1.68	Certain	4.5	-3.52	4000.0	Yes		8.01812004530011				ShowResult	Gain
10.0	1	136.513	0.02	202.099	0.0	0.0	15.6913	2.0	955.0	1.68	Certain	4.5	-3.52	4000.0	Yes		8.01812004530011				ISITrial	Gain
10.0	1	142.565	0.029	208.151	0.0	0.0	15.6913	0.975	955.0	1.68	Certain	4.5	-3.52	4000.0	Yes		8.01812004530011			664.0	TrialHappiness	Gain
10.0	1	146.577	4.012	212.163	0.0	0.0	15.6913	8.0	955.0	1.68	Certain	4.5	-3.52	4000.0	Yes		8.01812004530011				ISIRate	Gain
11.0	1	154.601	0.024	220.187	13.5	2.67	17.3788	3.0	955.0	2.8	Outcome1	13.5	5.34	0.0	No	2.0	8.15741789354473	1.209	155.81		GetAnswer	Loss
11.0	1	155.821	0.011	221.407	13.5	2.67	17.3788	4.0	955.0	2.8	Outcome1	13.5	5.34	0.0	No		8.15741789354473				ShowChoice	Loss
11.0	1	159.833	0.012	225.419	13.5	2.67	17.3788	1.0	955.0	2.8	Outcome1	13.5	5.34	0.0	No		8.15741789354473				ShowResult	Loss
11.0	1	160.853	0.02	226.439	13.5	2.67	17.3788	3.324	955.0	2.8	Outcome1	13.5	5.34	0.0	No		8.15741789354473				ISITrial	Loss
12.0	1	164.196	0.019	229.782	0.22	1.0	17.4063	3.0	955.0	1.0	Outcome1	0.22	1.7	2618.75	Yes	2.0	-1.4762174405436	1.676	165.872		GetAnswer	Mixed
12.0	1	165.884	0.012	231.47	0.22	1.0	17.4063	4.0	955.0	1.0	Outcome1	0.22	1.7	2618.75	Yes		-1.4762174405436				ShowChoice	Mixed
12.0	1	169.896	0.012	235.482	0.22	1.0	17.4063	1.0	955.0	1.0	Outcome1	0.22	1.7	2618.75	Yes		-1.4762174405436				ShowResult	Mixed
12.0	1	170.916	0.02	236.502	0.22	1.0	17.4063	6.642	955.0	1.0	Outcome1	0.22	1.7	2618.75	Yes		-1.4762174405436				ISITrial	Mixed
12.0	1	180.211	0.023	245.797	0.22	1.0	17.4063	2.28	955.0	1.0	Outcome1	0.22	1.7	2618.75	Yes		-1.4762174405436			688.0	TrialHappiness	Mixed
12.0	1	184.223	4.012	249.809	0.22	1.0	17.4063	2.475	955.0	1.0	Outcome1	0.22	1.7	2618.75	Yes		-1.4762174405436				ISIRate	Mixed
13.0	1	186.713	0.015	252.299	1.5	-2.0	17.5938	3.0	955.0	0.82	Outcome1	1.5	-6.91	0.0	No	2.0	8.408833522083809	2.185	188.898		GetAnswer	Mixed
13.0	1	188.92	0.022	254.506	1.5	-2.0	17.5938	4.0	955.0	0.82	Outcome1	1.5	-6.91	0.0	No		8.408833522083809				ShowChoice	Mixed
13.0	1	192.932	0.012	258.518	1.5	-2.0	17.5938	1.0	955.0	0.82	Outcome1	1.5	-6.91	0.0	No		8.408833522083809				ShowResult	Mixed
13.0	1	193.952	0.02	259.538	1.5	-2.0	17.5938	3.48	955.0	0.82	Outcome1	1.5	-6.91	0.0	No		8.408833522083809				ISITrial	Mixed
14.0	1	197.462	0.03	263.048	8.7	0.0	18.6813	3.0	955.0	1.82	Outcome1	8.7	-0.01	0.0	No	2.0	8.71121177802945	2.266	199.728		GetAnswer	Gain
14.0	1	199.752	0.024	265.338	8.7	0.0	18.6813	4.0	955.0	1.82	Outcome1	8.7	-0.01	0.0	No		8.71121177802945				ShowChoice	Gain
14.0	1	203.764	0.012	269.35	8.7	0.0	18.6813	1.0	955.0	1.82	Outcome1	8.7	-0.01	0.0	No		8.71121177802945				ShowResult	Gain
14.0	1	204.784	0.02	270.37	8.7	0.0	18.6813	5.019	955.0	1.82	Outcome1	8.7	-0.01	0.0	No		8.71121177802945				ISITrial	Gain
15.0	1	209.833	0.03	275.419	10.44	5.22	19.9863	3.0	955.0	3.6	Outcome2	11.9	10.44	3348.5	Yes	2.0	-1.4566817667044198	1.364	211.197		GetAnswer	Loss
15.0	1	211.22	0.022	276.806	10.44	5.22	19.9863	4.0	955.0	3.6	Outcome2	11.9	10.44	3348.5	Yes		-1.4566817667044198				ShowChoice	Loss
15.0	1	215.232	0.012	280.818	10.44	5.22	19.9863	1.0	955.0	3.6	Outcome2	11.9	10.44	3348.5	Yes		-1.4566817667044198				ShowResult	Loss
15.0	1	216.252	0.02	281.838	10.44	5.22	19.9863	7.614	955.0	3.6	Outcome2	11.9	10.44	3348.5	Yes		-1.4566817667044198				ISITrial	Loss
15.0	1	227.268	0.029	292.854	10.44	5.22	19.9863	1.814	955.0	3.6	Outcome2	11.9	10.44	3348.5	Yes	2{-2}2{-2}2{-2}2{-2}	-1.4566817667044198	1.814	229.082	736.0	TrialHappiness	Loss
15.0	1	231.28	4.012	296.866	10.44	5.22	19.9863	5.394	955.0	3.6	Outcome2	11.9	10.44	3348.5	Yes		-1.4566817667044198				ISIRate	Loss
16.0	1	236.696	0.022	302.282	8.01	4.0	20.9875	3.0	955.0	2.48	Outcome1	8.01	9.3	0.0	No	2.0	-1.28708946772367	1.238	237.934		GetAnswer	Gain
16.0	1	237.95	0.016	303.536	8.01	4.0	20.9875	4.0	955.0	2.48	Outcome1	8.01	9.3	0.0	No		-1.28708946772367				ShowChoice	Gain
16.0	1	241.962	0.012	307.548	8.01	4.0	20.9875	1.0	955.0	2.48	Outcome1	8.01	9.3	0.0	No		-1.28708946772367				ShowResult	Gain
16.0	1	242.982	0.02	308.568	8.01	4.0	20.9875	3.008	955.0	2.48	Outcome1	8.01	9.3	0.0	No		-1.28708946772367				ISITrial	Gain
17.0	1	246.007	0.017	311.593	9.7	0.48	22.2	3.0	955.0	3.16	Outcome1	9.7	0.95	3041.5	Yes	2.0	8.74858437146093	2.128	248.135		GetAnswer	Gain
17.0	1	248.147	0.012	313.733	9.7	0.48	22.2	4.0	955.0	3.16	Outcome1	9.7	0.95	3041.5	Yes		8.74858437146093				ShowChoice	Gain
17.0	1	252.159	0.012	317.745	9.7	0.48	22.2	1.0	955.0	3.16	Outcome1	9.7	0.95	3041.5	Yes		8.74858437146093				ShowResult	Gain
17.0	1	253.179	0.02	318.765	9.7	0.48	22.2	3.566	955.0	3.16	Outcome1	9.7	0.95	3041.5	Yes		8.74858437146093				ISITrial	Gain
17.0	1	259.815	0.017	325.401	9.7	0.48	22.2	1.813	955.0	3.16	Outcome1	9.7	0.95	3041.5	Yes		8.74858437146093			752.0	TrialHappiness	Gain
17.0	1	263.827	4.012	329.413	9.7	0.48	22.2	4.166	955.0	3.16	Outcome1	9.7	0.95	3041.5	Yes		8.74858437146093				ISIRate	Gain
18.0	1	268.023	0.03	333.609	5.7	1.0	22.9125	3.0	955.0	3.16	Outcome1	5.7	-3.02	0.0	No	2.0	8.72480181200453	2.378	270.401		GetAnswer	Gain
18.0	1	270.414	0.013	336.0	5.7	1.0	22.9125	4.0	955.0	3.16	Outcome1	5.7	-3.02	0.0	No		8.72480181200453				ShowChoice	Gain
18.0	1	274.426	0.012	340.012	5.7	1.0	22.9125	1.0	955.0	3.16	Outcome1	5.7	-3.02	0.0	No		8.72480181200453				ShowResult	Gain
18.0	1	275.446	0.02	341.032	5.7	1.0	22.9125	6.787	955.0	3.16	Outcome1	5.7	-3.02	0.0	No		8.72480181200453				ISITrial	Gain
19.0	1	282.249	0.016	347.835	10.82	5.41	24.265	3.0	955.0	4.2	Outcome2	12.1	10.82	0.0	No	2.0	-1.2826538316345801	1.262	283.511		GetAnswer	Loss
19.0	1	283.536	0.025	349.122	10.82	5.41	24.265	4.0	955.0	4.2	Outcome2	12.1	10.82	0.0	No		-1.2826538316345801				ShowChoice	Loss
19.0	1	287.548	0.012	353.134	10.82	5.41	24.265	1.0	955.0	4.2	Outcome2	12.1	10.82	0.0	No		-1.2826538316345801				ShowResult	Loss
19.0	1	288.568	0.02	354.154	10.82	5.41	24.265	2.0	955.0	4.2	Outcome2	12.1	10.82	0.0	No		-1.2826538316345801				ISITrial	Loss
20.0	1	290.591	0.023	356.177	5.9	1.0	25.0025	3.0	955.0	3.6	Outcome2	-3.28	5.9	2921.25	Yes	2.0	9.1845979614949	1.456	292.047		GetAnswer	Gain
20.0	1	292.062	0.015	357.648	5.9	1.0	25.0025	4.0	955.0	3.6	Outcome2	-3.28	5.9	2921.25	Yes		9.1845979614949				ShowChoice	Gain
20.0	1	296.074	0.012	361.66	5.9	1.0	25.0025	1.0	955.0	3.6	Outcome2	-3.28	5.9	2921.25	Yes		9.1845979614949				ShowResult	Gain
20.0	1	297.094	0.02	362.68	5.9	1.0	25.0025	8.0	955.0	3.6	Outcome2	-3.28	5.9	2921.25	Yes		9.1845979614949				ISITrial	Gain
20.0	1	308.06	0.021	373.646	5.9	1.0	25.0025	2.715	955.0	3.6	Outcome2	-3.28	5.9	2921.25	Yes		9.1845979614949			744.0	TrialHappiness	Gain
20.0	1	312.072	4.012	377.658	5.9	1.0	25.0025	3.685	955.0	3.6	Outcome2	-3.28	5.9	2921.25	Yes		9.1845979614949				ISIRate	Gain
21.0	1	315.783	0.026	381.369	0.95	1.0	25.1213	3.0	955.0	2.0	Outcome2	2.3	0.95	0.0	No	2.0	-1.35343525858815	1.169	316.952		GetAnswer	Mixed
21.0	1	316.97	0.018	382.556	0.95	1.0	25.1213	4.0	955.0	2.0	Outcome2	2.3	0.95	0.0	No		-1.35343525858815				ShowChoice	Mixed
21.0	1	320.982	0.012	386.568	0.95	1.0	25.1213	1.0	955.0	2.0	Outcome2	2.3	0.95	0.0	No		-1.35343525858815				ShowResult	Mixed
21.0	1	322.002	0.02	387.588	0.95	1.0	25.1213	3.555	955.0	2.0	Outcome2	2.3	0.95	0.0	No		-1.35343525858815				ISITrial	Mixed
22.0	1	325.579	0.022	391.165	8.9	-0.44	26.2338	3.0	955.0	2.0	Outcome2	-0.89	8.9	3219.5	Yes	2.0	9.78935447338618	1.532	327.111		GetAnswer	Gain
22.0	1	327.134	0.023	392.72	8.9	-0.44	26.2338	4.0	955.0	2.0	Outcome2	-0.89	8.9	3219.5	Yes		9.78935447338618				ShowChoice	Gain
22.0	1	331.146	0.012	396.732	8.9	-0.44	26.2338	1.0	955.0	2.0	Outcome2	-0.89	8.9	3219.5	Yes		9.78935447338618				ShowResult	Gain
22.0	1	332.165	0.019	397.751	8.9	-0.44	26.2338	6.793	955.0	2.0	Outcome2	-0.89	8.9	3219.5	Yes		9.78935447338618				ISITrial	Gain
22.0	1	342.212	0.023	407.798	8.9	-0.44	26.2338	2.147	955.0	2.0	Outcome2	-0.89	8.9	3219.5	Yes	2{-2}2{-2}2{-2}	9.78935447338618	2.147	344.359	724.0	TrialHappiness	Gain
22.0	1	346.224	4.012	411.81	8.9	-0.44	26.2338	4.878	955.0	2.0	Outcome2	-0.89	8.9	3219.5	Yes		9.78935447338618				ISIRate	Gain
23.0	1	351.122	0.02	416.708	-3.0	-3.0	25.8588	3.0	955.0	1.2	Certain	-8.47	1.9	0.0	No	4.0	10.3680634201585	2.184	353.306		GetAnswer	Mixed
23.0	1	353.329	0.023	418.915	-3.0	-3.0	25.8588	4.0	955.0	1.2	Certain	-8.47	1.9	0.0	No		10.3680634201585				ShowChoice	Mixed
23.0	1	357.341	0.012	422.927	-3.0	-3.0	25.8588	1.0	955.0	1.2	Certain	-8.47	1.9	0.0	No		10.3680634201585				ShowResult	Mixed
23.0	1	358.36	0.019	423.946	-3.0	-3.0	25.8588	8.0	955.0	1.2	Certain	-8.47	1.9	0.0	No		10.3680634201585				ISITrial	Mixed
24.0	1	366.384	0.024	431.97	11.7	0.54	27.3213	3.0	955.0	3.16	Outcome1	11.7	1.07	3255.0	Yes	2.0	10.6296715741789	1.543	367.927		GetAnswer	Loss
24.0	1	367.939	0.012	433.525	11.7	0.54	27.3213	4.0	955.0	3.16	Outcome1	11.7	1.07	3255.0	Yes		10.6296715741789				ShowChoice	Loss
24.0	1	371.951	0.012	437.537	11.7	0.54	27.3213	1.0	955.0	3.16	Outcome1	11.7	1.07	3255.0	Yes		10.6296715741789				ShowResult	Loss
24.0	1	372.971	0.02	438.557	11.7	0.54	27.3213	2.0	955.0	3.16	Outcome1	11.7	1.07	3255.0	Yes		10.6296715741789				ISITrial	Loss
24.0	1	378.27	0.021	443.856	11.7	0.54	27.3213	0.992	955.0	3.16	Outcome1	11.7	1.07	3255.0	Yes		10.6296715741789			776.0	TrialHappiness	Loss
24.0	1	382.282	4.012	447.868	11.7	0.54	27.3213	5.02	955.0	3.16	Outcome1	11.7	1.07	3255.0	Yes		10.6296715741789				ISIRate	Loss
25.0	1	387.331	0.029	452.917	1.1	-4.0	27.4588	3.0	955.0	0.52	Outcome2	-8.91	1.1	0.0	No	2.0	10.0079275198188	1.773	389.104		GetAnswer	Mixed
25.0	1	389.119	0.015	454.705	1.1	-4.0	27.4588	4.0	955.0	0.52	Outcome2	-8.91	1.1	0.0	No		10.0079275198188				ShowChoice	Mixed
25.0	1	393.131	0.012	458.717	1.1	-4.0	27.4588	1.0	955.0	0.52	Outcome2	-8.91	1.1	0.0	No		10.0079275198188				ShowResult	Mixed
25.0	1	394.151	0.02	459.737	1.1	-4.0	27.4588	3.749	955.0	0.52	Outcome2	-8.91	1.1	0.0	No		10.0079275198188				ISITrial	Mixed
26.0	1	397.929	0.029	463.515	-0.42	0.0	27.4063	3.0	955.0	0.4	Outcome1	-0.42	0.9	0.0	No	2.0	-1.32389580973952	2.333	400.262		GetAnswer	Mixed
26.0	1	400.286	0.024	465.872	-0.42	0.0	27.4063	4.0	955.0	0.4	Outcome1	-0.42	0.9	0.0	No		-1.32389580973952				ShowChoice	Mixed
26.0	1	404.298	0.012	469.884	-0.42	0.0	27.4063	1.0	955.0	0.4	Outcome1	-0.42	0.9	0.0	No		-1.32389580973952				ShowResult	Mixed
26.0	1	405.318	0.02	470.904	-0.42	0.0	27.4063	7.834	955.0	0.4	Outcome1	-0.42	0.9	0.0	No		-1.32389580973952				ISITrial	Mixed
27.0	1	413.175	0.023	478.761	12.3	0.94	28.9438	3.0	955.0	5.0	Outcome2	1.89	12.3	2549.75	Yes	2.0	10.4133635334088	1.813	414.988		GetAnswer	Loss
27.0	1	415.013	0.025	480.599	12.3	0.94	28.9438	4.0	955.0	5.0	Outcome2	1.89	12.3	2549.75	Yes		10.4133635334088				ShowChoice	Loss
27.0	1	419.025	0.012	484.611	12.3	0.94	28.9438	1.0	955.0	5.0	Outcome2	1.89	12.3	2549.75	Yes		10.4133635334088				ShowResult	Loss
27.0	1	420.045	0.02	485.631	12.3	0.94	28.9438	4.225	955.0	5.0	Outcome2	1.89	12.3	2549.75	Yes		10.4133635334088				ISITrial	Loss
27.0	1	426.866	0.025	492.452	12.3	0.94	28.9438	1.326	955.0	5.0	Outcome2	1.89	12.3	2549.75	Yes		10.4133635334088			784.0	TrialHappiness	Loss
27.0	1	430.878	4.012	496.464	12.3	0.94	28.9438	2.199	955.0	5.0	Outcome2	1.89	12.3	2549.75	Yes		10.4133635334088				ISIRate	Loss
	1	433.101	0.024	498.687				-0.001								{SPACE}		16.201	449.302		Rest	
	1	449.316	0.014	514.902				4.0													BlockHappyPreview	
	1	453.328	0.012	518.914				3.704												740.0	BlockStartHappiness	
	1	458.978	0.028	524.564				-0.001								5.0		2.516	461.494		ScanWait	
	2	0.024	0.024	527.105				10.0													GetReady	
28.0	2	10.054	0.03	537.135	-1.0	-1.0	28.8188	3.0	70.0	1.5	Certain	-7.29	4.1	0.0	No	4.0	-11.3945578231293	1.968	12.022		GetAnswer	Mixed
28.0	2	12.044	0.022	539.125	-1.0	-1.0	28.8188	4.0	70.0	1.5	Certain	-7.29	4.1	0.0	No		-11.3945578231293				ShowChoice	Mixed
28.0	2	16.072	0.028	543.153	-1.0	-1.0	28.8188	1.0	70.0	1.5	Certain	-7.29	4.1	0.0	No		-11.3945578231293				ShowResult	Mixed
28.0	2	17.092	0.02	544.173	-1.0	-1.0	28.8188	3.575	70.0	1.5	Certain	-7.29	4.1	0.0	No		-11.3945578231293				ISITrial	Mixed
29.0	2	20.686	0.019	547.767	1.15	0.57	28.9626	3.0	70.0	2.48	Outcome2	13.3	1.15	3529.0	Yes	2.0	-12.154195011337901	1.619	22.305		GetAnswer	Loss
29.0	2	22.324	0.019	549.405	1.15	0.57	28.9626	4.0	70.0	2.48	Outcome2	13.3	1.15	3529.0	Yes		-12.154195011337901				ShowChoice	Loss
29.0	2	26.336	0.012	553.417	1.15	0.57	28.9626	1.0	70.0	2.48	Outcome2	13.3	1.15	3529.0	Yes		-12.154195011337901				ShowResult	Loss
29.0	2	27.356	0.02	554.437	1.15	0.57	28.9626	3.955	70.0	2.48	Outcome2	13.3	1.15	3529.0	Yes		-12.154195011337901				ISITrial	Loss
29.0	2	34.895	0.031	561.976	1.15	0.57	28.9626	0.892	70.0	2.48	Outcome2	13.3	1.15	3529.0	Yes		-12.154195011337901			688.0	TrialHappiness	Loss
29.0	2	38.924	4.029	566.005	1.15	0.57	28.9626	6.116	70.0	2.48	Outcome2	13.3	1.15	3529.0	Yes		-12.154195011337901				ISIRate	Loss
30.0	2	45.059	0.019	572.14	1.32	0.0	29.1276	3.0	70.0	2.48	Outcome2	-1.32	1.32	0.0	No	2.0	2.6373771730914597	2.001	47.06		GetAnswer	Gain
30.0	2	47.082	0.022	574.163	1.32	0.0	29.1276	4.0	70.0	2.48	Outcome2	-1.32	1.32	0.0	No		2.6373771730914597				ShowChoice	Gain
30.0	2	51.11	0.028	578.191	1.32	0.0	29.1276	1.0	70.0	2.48	Outcome2	-1.32	1.32	0.0	No		2.6373771730914597				ShowResult	Gain
30.0	2	52.13	0.02	579.211	1.32	0.0	29.1276	4.453	70.0	2.48	Outcome2	-1.32	1.32	0.0	No		2.6373771730914597				ISITrial	Gain
31.0	2	56.61	0.027	583.691	0.0	0.0	29.1276	3.0	70.0	1.68	Certain	6.5	-6.23	2503.25	Yes	4.0	-12.7301587301587	2.013	58.623		GetAnswer	Gain
31.0	2	58.65	0.027	585.731	0.0	0.0	29.1276	4.0	70.0	1.68	Certain	6.5	-6.23	2503.25	Yes		-12.7301587301587				ShowChoice	Gain
31.0	2	62.678	0.028	589.759	0.0	0.0	29.1276	1.0	70.0	1.68	Certain	6.5	-6.23	2503.25	Yes		-12.7301587301587				ShowResult	Gain
31.0	2	63.698	0.02	590.779	0.0	0.0	29.1276	4.786	70.0	1.68	Certain	6.5	-6.23	2503.25	Yes		-12.7301587301587				ISITrial	Gain
31.0	2	71.037	0.021	598.118	0.0	0.0	29.1276	2.384	70.0	1.68	Certain	6.5	-6.23	2503.25	Yes		-12.7301587301587			696.0	TrialHappiness	Gain
31.0	2	75.066	4.029	602.147	0.0	0.0	29.1276	2.013	70.0	1.68	Certain	6.5	-6.23	2503.25	Yes		-12.7301587301587				ISIRate	Gain
32.0	2	77.105	0.026	604.186	-6.0	-6.0	28.3776	3.0	70.0	0.3	Certain	-12.87	0.7	0.0	No	4.0	-13.5668934240363	2.801	79.906		GetAnswer	Mixed
32.0	2	79.93	0.024	607.011	-6.0	-6.0	28.3776	4.0	70.0	0.3	Certain	-12.87	0.7	0.0	No		-13.5668934240363				ShowChoice	Mixed
32.0	2	83.959	0.029	611.04	-6.0	-6.0	28.3776	1.0	70.0	0.3	Certain	-12.87	0.7	0.0	No		-13.5668934240363				ShowResult	Mixed
32.0	2	84.979	0.02	612.06	-6.0	-6.0	28.3776	2.0	70.0	0.3	Certain	-12.87	0.7	0.0	No		-13.5668934240363				ISITrial	Mixed
33.0	2	87.001	0.022	614.082	-1.0	-1.0	28.2526	3.0	70.0	5.0	Certain	6.3	-7.98	0.0	No	4.0	-14.2766439909297	2.432	89.433		GetAnswer	Gain
33.0	2	89.459	0.026	616.54	-1.0	-1.0	28.2526	4.0	70.0	5.0	Certain	6.3	-7.98	0.0	No		-14.2766439909297				ShowChoice	Gain
33.0	2	93.487	0.028	620.568	-1.0	-1.0	28.2526	1.0	70.0	5.0	Certain	6.3	-7.98	0.0	No		-14.2766439909297				ShowResult	Gain
33.0	2	94.507	0.02	621.588	-1.0	-1.0	28.2526	5.099	70.0	5.0	Certain	6.3	-7.98	0.0	No		-14.2766439909297				ISITrial	Gain
34.0	2	99.639	0.033	626.72	-3.0	-3.0	27.8776	3.0	70.0	1.82	Certain	4.7	-10.29	3231.5	Yes	4.0	-14.9863945578231	1.617	101.256		GetAnswer	Gain
34.0	2	101.277	0.021	628.358	-3.0	-3.0	27.8776	4.0	70.0	1.82	Certain	4.7	-10.29	3231.5	Yes		-14.9863945578231				ShowChoice	Gain
34.0	2	105.306	0.029	632.387	-3.0	-3.0	27.8776	1.0	70.0	1.82	Certain	4.7	-10.29	3231.5	Yes		-14.9863945578231				ShowResult	Gain
34.0	2	106.326	0.02	633.407	-3.0	-3.0	27.8776	4.784	70.0	1.82	Certain	4.7	-10.29	3231.5	Yes		-14.9863945578231				ISITrial	Gain
34.0	2	114.383	0.028	641.464	-3.0	-3.0	27.8776	1.527	70.0	1.82	Certain	4.7	-10.29	3231.5	Yes	2{-2}2{-2}2{-2}2{-2}2{-2}	-14.9863945578231	1.527	115.91	632.0	TrialHappiness	Gain
34.0	2	118.412	4.029	645.493	-3.0	-3.0	27.8776	4.926	70.0	1.82	Certain	4.7	-10.29	3231.5	Yes		-14.9863945578231				ISIRate	Gain
35.0	2	123.36	0.022	650.441	-9.11	-2.0	26.7388	3.0	70.0	2.8	Outcome2	5.5	-9.11	0.0	No	2.0	-14.6077097505669	1.534	124.894		GetAnswer	Gain
35.0	2	124.915	0.021	651.996	-9.11	-2.0	26.7388	4.0	70.0	2.8	Outcome2	5.5	-9.11	0.0	No		-14.6077097505669				ShowChoice	Gain
35.0	2	128.943	0.028	656.024	-9.11	-2.0	26.7388	1.0	70.0	2.8	Outcome2	5.5	-9.11	0.0	No		-14.6077097505669				ShowResult	Gain
35.0	2	129.963	0.02	657.044	-9.11	-2.0	26.7388	2.098	70.0	2.8	Outcome2	5.5	-9.11	0.0	No		-14.6077097505669				ISITrial	Gain
36.0	2	132.086	0.025	659.167	-4.0	-4.0	26.2388	3.0	70.0	0.66	Certain	-11.94	3.3	3335.75	Yes	4.0	-15.2448979591837	1.475	133.561		GetAnswer	Mixed
36.0	2	133.574	0.013	660.655	-4.0	-4.0	26.2388	4.0	70.0	0.66	Certain	-11.94	3.3	3335.75	Yes		-15.2448979591837				ShowChoice	Mixed
36.0	2	137.586	0.012	664.667	-4.0	-4.0	26.2388	1.0	70.0	0.66	Certain	-11.94	3.3	3335.75	Yes		-15.2448979591837				ShowResult	Mixed
36.0	2	138.606	0.02	665.687	-4.0	-4.0	26.2388	5.156	70.0	0.66	Certain	-11.94	3.3	3335.75	Yes		-15.2448979591837				ISITrial	Mixed
36.0	2	147.148	0.024	674.229	-4.0	-4.0	26.2388	3.069	70.0	0.66	Certain	-11.94	3.3	3335.75	Yes	2{-2}4{-4}4{-4}4{-4}4{-4}4{-4}4{-4}	-15.2448979591837	3.069	150.217	620.0	TrialHappiness	Mixed
36.0	2	151.177	4.029	678.258	-4.0	-4.0	26.2388	5.343	70.0	0.66	Certain	-11.94	3.3	3335.75	Yes		-15.2448979591837				ISIRate	Mixed
37.0	2	156.543	0.023	683.624	-6.58	1.0	25.4163	3.0	70.0	2.22	Outcome1	-6.58	9.1	0.0	No	2.0	-15.6780045351474	0.873	157.416		GetAnswer	Gain
37.0	2	157.445	0.029	684.526	-6.58	1.0	25.4163	4.0	70.0	2.22	Outcome1	-6.58	9.1	0.0	No		-15.6780045351474				ShowChoice	Gain
37.0	2	161.457	0.012	688.538	-6.58	1.0	25.4163	1.0	70.0	2.22	Outcome1	-6.58	9.1	0.0	No		-15.6780045351474				ShowResult	Gain
37.0	2	162.477	0.02	689.558	-6.58	1.0	25.4163	3.598	70.0	2.22	Outcome1	-6.58	9.1	0.0	No		-15.6780045351474				ISITrial	Gain
38.0	2	166.105	0.03	693.186	-8.0	-8.0	24.4163	3.0	70.0	2.0	Certain	-16.0	0.3	0.0	No	4.0	-16.3015873015873	1.685	167.79		GetAnswer	Mixed
38.0	2	167.81	0.02	694.891	-8.0	-8.0	24.4163	4.0	70.0	2.0	Certain	-16.0	0.3	0.0	No		-16.3015873015873				ShowChoice	Mixed
38.0	2	171.822	0.012	698.903	-8.0	-8.0	24.4163	1.0	70.0	2.0	Certain	-16.0	0.3	0.0	No		-16.3015873015873				ShowResult	Mixed
38.0	2	172.842	0.02	699.923	-8.0	-8.0	24.4163	4.787	70.0	2.0	Certain	-16.0	0.3	0.0	No		-16.3015873015873				ISITrial	Mixed
39.0	2	177.656	0.027	704.737	3.28	2.0	24.8263	3.0	70.0	2.22	Outcome2	0.41	3.28	2864.25	Yes	2.0	2.86545729402872	1.494	179.15		GetAnswer	Loss
39.0	2	179.177	0.027	706.258	3.28	2.0	24.8263	4.0	70.0	2.22	Outcome2	0.41	3.28	2864.25	Yes		2.86545729402872				ShowChoice	Loss
39.0	2	183.189	0.012	710.27	3.28	2.0	24.8263	1.0	70.0	2.22	Outcome2	0.41	3.28	2864.25	Yes		2.86545729402872				ShowResult	Loss
39.0	2	184.209	0.02	711.29	3.28	2.0	24.8263	2.348	70.0	2.22	Outcome2	0.41	3.28	2864.25	Yes		2.86545729402872				ISITrial	Loss
39.0	2	189.475	0.028	716.556	3.28	2.0	24.8263	1.311	70.0	2.22	Outcome2	0.41	3.28	2864.25	Yes		2.86545729402872			656.0	TrialHappiness	Loss
39.0	2	193.503	4.028	720.584	3.28	2.0	24.8263	3.457	70.0	2.22	Outcome2	0.41	3.28	2864.25	Yes		2.86545729402872				ISIRate	Loss
40.0	2	196.98	0.02	724.061	-1.0	-1.0	24.7013	3.0	70.0	3.16	Certain	-10.46	7.7	0.0	No	4.0	-18.1609977324263	1.761	198.741		GetAnswer	Gain
40.0	2	198.769	0.028	725.85	-1.0	-1.0	24.7013	4.0	70.0	3.16	Certain	-10.46	7.7	0.0	No		-18.1609977324263				ShowChoice	Gain
40.0	2	202.798	0.029	729.879	-1.0	-1.0	24.7013	1.0	70.0	3.16	Certain	-10.46	7.7	0.0	No		-18.1609977324263				ShowResult	Gain
40.0	2	203.818	0.02	730.899	-1.0	-1.0	24.7013	3.158	70.0	3.16	Certain	-10.46	7.7	0.0	No		-18.1609977324263				ISITrial	Gain
41.0	2	207.01	0.034	734.091	-19.73	-10.0	22.2351	3.0	70.0	0.52	Outcome2	-0.9	-19.73	4000.0	Yes	2.0	-18.8253968253968	2.685	209.695		GetAnswer	Mixed
41.0	2	209.719	0.024	736.8	-19.73	-10.0	22.2351	4.0	70.0	0.52	Outcome2	-0.9	-19.73	4000.0	Yes		-18.8253968253968				ShowChoice	Mixed
41.0	2	213.747	0.028	740.828	-19.73	-10.0	22.2351	1.0	70.0	0.52	Outcome2	-0.9	-19.73	4000.0	Yes		-18.8253968253968				ShowResult	Mixed
41.0	2	214.767	0.02	741.848	-19.73	-10.0	22.2351	4.506	70.0	0.52	Outcome2	-0.9	-19.73	4000.0	Yes		-18.8253968253968				ISITrial	Mixed
41.0	2	223.326	0.029	750.407	-19.73	-10.0	22.2351	0.776	70.0	0.52	Outcome2	-0.9	-19.73	4000.0	Yes	2{-2}	-18.8253968253968	0.776	224.102	568.0	TrialHappiness	Mixed
41.0	2	227.355	4.029	754.436	-19.73	-10.0	22.2351	8.0	70.0	0.52	Outcome2	-0.9	-19.73	4000.0	Yes		-18.8253968253968				ISIRate	Mixed
42.0	2	235.379	0.024	762.46	-4.0	-4.0	21.7351	3.0	70.0	2.0	Certain	4.3	-13.69	0.0	No	4.0	-17.9931972789116	1.993	237.372		GetAnswer	Mixed
42.0	2	237.401	0.029	764.482	-4.0	-4.0	21.7351	4.0	70.0	2.0	Certain	4.3	-13.69	0.0	No		-17.9931972789116				ShowChoice	Mixed
42.0	2	241.413	0.012	768.494	-4.0	-4.0	21.7351	1.0	70.0	2.0	Certain	4.3	-13.69	0.0	No		-17.9931972789116				ShowResult	Mixed
42.0	2	242.433	0.02	769.514	-4.0	-4.0	21.7351	6.248	70.0	2.0	Certain	4.3	-13.69	0.0	No		-17.9931972789116				ISITrial	Mixed
43.0	2	248.702	0.021	775.783	-13.66	-4.0	20.0276	3.0	70.0	2.0	Outcome1	-13.66	4.9	2775.75	Yes	2.0	-18.557823129251698	1.613	250.315		GetAnswer	Gain
43.0	2	250.34	0.024	777.421	-13.66	-4.0	20.0276	4.0	70.0	2.0	Outcome1	-13.66	4.9	2775.75	Yes		-18.557823129251698				ShowChoice	Gain
43.0	2	254.352	0.012	781.433	-13.66	-4.0	20.0276	1.0	70.0	2.0	Outcome1	-13.66	4.9	2775.75	Yes		-18.557823129251698				ShowResult	Gain
43.0	2	255.372	0.02	782.453	-13.66	-4.0	20.0276	4.596	70.0	2.0	Outcome1	-13.66	4.9	2775.75	Yes		-18.557823129251698				ISITrial	Gain
43.0	2	262.777	0.015	789.858	-13.66	-4.0	20.0276	2.95	70.0	2.0	Outcome1	-13.66	4.9	2775.75	Yes		-18.557823129251698			552.0	TrialHappiness	Gain
43.0	2	266.789	4.012	793.87	-13.66	-4.0	20.0276	3.103	70.0	2.0	Outcome1	-13.66	4.9	2775.75	Yes		-18.557823129251698				ISIRate	Gain
44.0	2	269.915	0.023	796.996	0.0	0.0	20.0276	3.0	70.0	3.6	Certain	9.9	-8.95	0.0	No	4.0	-18.8503401360544	2.877	272.792		GetAnswer	Gain
44.0	2	272.807	0.015	799.888	0.0	0.0	20.0276	4.0	70.0	3.6	Certain	9.9	-8.95	0.0	No		-18.8503401360544				ShowChoice	Gain
44.0	2	276.819	0.012	803.9	0.0	0.0	20.0276	1.0	70.0	3.6	Certain	9.9	-8.95	0.0	No		-18.8503401360544				ShowResult	Gain
44.0	2	277.839	0.02	804.92	0.0	0.0	20.0276	2.42	70.0	3.6	Certain	9.9	-8.95	0.0	No		-18.8503401360544				ISITrial	Gain
45.0	2	280.28	0.021	807.361	-11.0	-11.0	18.6526	3.0	70.0	0.4	Certain	-20.5	-1.1	0.0	No	4.0	-19.3968253968254	2.522	282.802		GetAnswer	Mixed
45.0	2	282.821	0.019	809.902	-11.0	-11.0	18.6526	4.0	70.0	0.4	Certain	-20.5	-1.1	0.0	No		-19.3968253968254				ShowChoice	Mixed
45.0	2	286.833	0.012	813.914	-11.0	-11.0	18.6526	1.0	70.0	0.4	Certain	-20.5	-1.1	0.0	No		-19.3968253968254				ShowResult	Mixed
45.0	2	287.852	0.019	814.933	-11.0	-11.0	18.6526	3.144	70.0	0.4	Certain	-20.5	-1.1	0.0	No		-19.3968253968254				ISITrial	Mixed
46.0	2	291.012	0.016	818.093	1.78	0.0	18.8751	3.0	70.0	2.22	Outcome2	-1.16	1.78	3841.25	Yes	2.0	2.93707482993197	1.188	292.2		GetAnswer	Gain
46.0	2	292.216	0.016	819.297	1.78	0.0	18.8751	4.0	70.0	2.22	Outcome2	-1.16	1.78	3841.25	Yes		2.93707482993197				ShowChoice	Gain
46.0	2	296.228	0.012	823.309	1.78	0.0	18.8751	1.0	70.0	2.22	Outcome2	-1.16	1.78	3841.25	Yes		2.93707482993197				ShowResult	Gain
46.0	2	297.247	0.019	824.328	1.78	0.0	18.8751	2.246	70.0	2.22	Outcome2	-1.16	1.78	3841.25	Yes		2.93707482993197				ISITrial	Gain
46.0	2	303.366	0.021	830.447	1.78	0.0	18.8751	3.118	70.0	2.22	Outcome2	-1.16	1.78	3841.25	Yes		2.93707482993197			656.0	TrialHappiness	Gain
46.0	2	307.378	4.012	834.459	1.78	0.0	18.8751	7.365	70.0	2.22	Outcome2	-1.16	1.78	3841.25	Yes		2.93707482993197				ISIRate	Gain
47.0	2	314.766	0.023	841.847	-16.16	-5.0	16.8551	3.0	70.0	4.2	Outcome1	-16.16	6.1	0.0	No	2.0	-22.258503401360503	2.129	316.895		GetAnswer	Gain
47.0	2	316.923	0.028	844.004	-16.16	-5.0	16.8551	4.0	70.0	4.2	Outcome1	-16.16	6.1	0.0	No		-22.258503401360503				ShowChoice	Gain
47.0	2	320.935	0.012	848.016	-16.16	-5.0	16.8551	1.0	70.0	4.2	Outcome1	-16.16	6.1	0.0	No		-22.258503401360503				ShowResult	Gain
47.0	2	321.955	0.02	849.036	-16.16	-5.0	16.8551	2.0	70.0	4.2	Outcome1	-16.16	6.1	0.0	No		-22.258503401360503				ISITrial	Gain
48.0	2	323.977	0.022	851.058	2.0	2.0	17.1051	3.0	70.0	3.16	Certain	13.7	-9.22	2831.75	Yes	4.0	-22.9229024943311	1.948	325.925		GetAnswer	Loss
48.0	2	325.95	0.025	853.031	2.0	2.0	17.1051	4.0	70.0	3.16	Certain	13.7	-9.22	2831.75	Yes		-22.9229024943311				ShowChoice	Loss
48.0	2	329.962	0.012	857.043	2.0	2.0	17.1051	1.0	70.0	3.16	Certain	13.7	-9.22	2831.75	Yes		-22.9229024943311				ShowResult	Loss
48.0	2	330.982	0.02	858.063	2.0	2.0	17.1051	3.692	70.0	3.16	Certain	13.7	-9.22	2831.75	Yes		-22.9229024943311				ISITrial	Loss
48.0	2	337.551	0.026	864.632	2.0	2.0	17.1051	2.067	70.0	3.16	Certain	13.7	-9.22	2831.75	Yes		-22.9229024943311			628.0	TrialHappiness	Loss
48.0	2	341.563	4.012	868.644	2.0	2.0	17.1051	3.327	70.0	3.16	Certain	13.7	-9.22	2831.75	Yes		-22.9229024943311				ISIRate	Loss
49.0	2	344.907	0.017	871.988	0.32	-1.0	17.1451	3.0	70.0	0.66	Outcome1	0.32	-3.08	0.0	No	2.0	3.4021164021164	2.372	347.279		GetAnswer	Mixed
49.0	2	347.297	0.018	874.378	0.32	-1.0	17.1451	4.0	70.0	0.66	Outcome1	0.32	-3.08	0.0	No		3.4021164021164				ShowChoice	Mixed
49.0	2	351.309	0.012	878.39	0.32	-1.0	17.1451	1.0	70.0	0.66	Outcome1	0.32	-3.08	0.0	No		3.4021164021164				ShowResult	Mixed
49.0	2	352.329	0.02	879.41	0.32	-1.0	17.1451	8.0	70.0	0.66	Outcome1	0.32	-3.08	0.0	No		3.4021164021164				ISITrial	Mixed
50.0	2	360.353	0.024	887.434	-9.0	-9.0	16.0201	3.0	70.0	0.2	Certain	2.5	-21.24	3547.25	Yes	4.0	-23.743764172335602	1.649	362.002		GetAnswer	Mixed
50.0	2	362.024	0.022	889.105	-9.0	-9.0	16.0201	4.0	70.0	0.2	Certain	2.5	-21.24	3547.25	Yes		-23.743764172335602				ShowChoice	Mixed
50.0	2	366.036	0.012	893.117	-9.0	-9.0	16.0201	1.0	70.0	0.2	Certain	2.5	-21.24	3547.25	Yes		-23.743764172335602				ShowResult	Mixed
50.0	2	367.056	0.02	894.137	-9.0	-9.0	16.0201	7.537	70.0	0.2	Certain	2.5	-21.24	3547.25	Yes		-23.743764172335602				ISITrial	Mixed
50.0	2	378.19	0.031	905.271	-9.0	-9.0	16.0201	2.398	70.0	0.2	Certain	2.5	-21.24	3547.25	Yes	2{-2}2{-2}2{-2}2{-2}4{-4}	-23.743764172335602	2.398	380.588	588.0	TrialHappiness	Mixed
50.0	2	382.202	4.012	909.283	-9.0	-9.0	16.0201	6.189	70.0	0.2	Certain	2.5	-21.24	3547.25	Yes		-23.743764172335602				ISIRate	Mixed
51.0	2	388.42	0.029	915.501	-14.2	-2.0	14.2451	3.0	70.0	2.8	Outcome1	-14.2	9.5	0.0	No	2.0	-23.6961451247166	1.381	389.801		GetAnswer	Gain
51.0	2	389.824	0.023	916.905	-14.2	-2.0	14.2451	4.0	70.0	2.8	Outcome1	-14.2	9.5	0.0	No		-23.6961451247166				ShowChoice	Gain
51.0	2	393.836	0.012	920.917	-14.2	-2.0	14.2451	1.0	70.0	2.8	Outcome1	-14.2	9.5	0.0	No		-23.6961451247166				ShowResult	Gain
51.0	2	394.856	0.02	921.937	-14.2	-2.0	14.2451	5.508	70.0	2.8	Outcome1	-14.2	9.5	0.0	No		-23.6961451247166				ISITrial	Gain
52.0	2	400.389	0.025	927.47	1.98	0.0	14.4926	3.0	70.0	3.6	Outcome2	-1.41	1.98	0.0	No	2.0	3.3939909297052204	1.728	402.117		GetAnswer	Gain
52.0	2	402.145	0.027	929.226	1.98	0.0	14.4926	4.0	70.0	3.6	Outcome2	-1.41	1.98	0.0	No		3.3939909297052204				ShowChoice	Gain
52.0	2	406.157	0.012	933.238	1.98	0.0	14.4926	1.0	70.0	3.6	Outcome2	-1.41	1.98	0.0	No		3.3939909297052204				ShowResult	Gain
52.0	2	407.176	0.019	934.257	1.98	0.0	14.4926	5.913	70.0	3.6	Outcome2	-1.41	1.98	0.0	No		3.3939909297052204				ISITrial	Gain
53.0	2	413.111	0.022	940.192	0.72	-1.0	14.5826	3.0	70.0	0.4	Outcome2	-2.72	0.72	2996.75	Yes	2.0	3.4429327286470097	2.132	415.243		GetAnswer	Mixed
53.0	2	415.267	0.024	942.348	0.72	-1.0	14.5826	4.0	70.0	0.4	Outcome2	-2.72	0.72	2996.75	Yes		3.4429327286470097				ShowChoice	Mixed
53.0	2	419.279	0.012	946.36	0.72	-1.0	14.5826	1.0	70.0	0.4	Outcome2	-2.72	0.72	2996.75	Yes		3.4429327286470097				ShowResult	Mixed
53.0	2	420.299	0.02	947.38	0.72	-1.0	14.5826	3.66	70.0	0.4	Outcome2	-2.72	0.72	2996.75	Yes		3.4429327286470097				ISITrial	Mixed
53.0	2	427.002	0.028	954.083	0.72	-1.0	14.5826	1.678	70.0	0.4	Outcome2	-2.72	0.72	2996.75	Yes		3.4429327286470097			600.0	TrialHappiness	Mixed
53.0	2	431.014	4.012	958.095	0.72	-1.0	14.5826	3.987	70.0	0.4	Outcome2	-2.72	0.72	2996.75	Yes		3.4429327286470097				ISIRate	Mixed
54.0	2	435.026	0.025	962.107	-26.16	-13.0	11.3126	3.0	70.0	0.82	Outcome1	-26.16	-0.5	0.0	No	2.0	-25.662131519274396	2.835	437.861		GetAnswer	Mixed
54.0	2	437.885	0.024	964.966	-26.16	-13.0	11.3126	4.0	70.0	0.82	Outcome1	-26.16	-0.5	0.0	No		-25.662131519274396				ShowChoice	Mixed
54.0	2	441.897	0.012	968.978	-26.16	-13.0	11.3126	1.0	70.0	0.82	Outcome1	-26.16	-0.5	0.0	No		-25.662131519274396				ShowResult	Mixed
54.0	2	442.917	0.02	969.998	-26.16	-13.0	11.3126	8.0	70.0	0.82	Outcome1	-26.16	-0.5	0.0	No		-25.662131519274396				ISITrial	Mixed
	2	450.941	0.024	978.022				-0.001								{SPACE}		55.095	506.036		Rest	
	2	506.056	0.019	1033.137				4.0													BlockHappyPreview	
	2	510.068	0.012	1037.149				1.64								2{-2}2{-2}2{-2}2{-2}		1.64	511.708	604.0	BlockStartHappiness	
	2	517.64	0.02	1044.721				-0.001								5.0		2.02	519.66		ScanWait	
	3	0.02	0.02	1046.761				10.0													GetReady	
55.0	3	10.05	0.03	1056.791	12.9	3.47	12.9251	3.0	955.0	2.0	Outcome2	6.94	12.9	2533.25	Yes	2.0	5.96262740656852	1.192	11.242		GetAnswer	Loss
55.0	3	11.27	0.028	1058.011	12.9	3.47	12.9251	4.0	955.0	2.0	Outcome2	6.94	12.9	2533.25	Yes		5.96262740656852				ShowChoice	Loss
55.0	3	15.282	0.012	1062.023	12.9	3.47	12.9251	1.0	955.0	2.0	Outcome2	6.94	12.9	2533.25	Yes		5.96262740656852				ShowResult	Loss
55.0	3	16.302	0.02	1063.043	12.9	3.47	12.9251	7.709	955.0	2.0	Outcome2	6.94	12.9	2533.25	Yes		5.96262740656852				ISITrial	Loss
55.0	3	26.583	0.025	1073.324	12.9	3.47	12.9251	2.335	955.0	2.0	Outcome2	6.94	12.9	2533.25	Yes	2{-2}2{-2}	5.96262740656852	2.335	28.918	676.0	TrialHappiness	Loss
55.0	3	30.595	4.012	1077.336	12.9	3.47	12.9251	2.133	955.0	2.0	Outcome2	6.94	12.9	2533.25	Yes		5.96262740656852				ISIRate	Loss
56.0	3	32.751	0.023	1079.492	2.1	0.0	13.1876	3.0	955.0	1.5	Outcome2	-3.04	2.1	0.0	No	2.0	5.13703284258211	1.701	34.452		GetAnswer	Mixed
56.0	3	34.473	0.02	1081.214	2.1	0.0	13.1876	4.0	955.0	1.5	Outcome2	-3.04	2.1	0.0	No		5.13703284258211				ShowChoice	Mixed
56.0	3	38.485	0.012	1085.226	2.1	0.0	13.1876	1.0	955.0	1.5	Outcome2	-3.04	2.1	0.0	No		5.13703284258211				ShowResult	Mixed
56.0	3	39.505	0.02	1086.246	2.1	0.0	13.1876	4.697	955.0	1.5	Outcome2	-3.04	2.1	0.0	No		5.13703284258211				ISITrial	Mixed
57.0	3	44.219	0.017	1090.96	7.11	3.56	14.0764	3.0	955.0	5.0	Outcome1	7.11	8.3	0.0	No	2.0	-1.19167610419026	1.151	45.37		GetAnswer	Gain
57.0	3	45.389	0.019	1092.13	7.11	3.56	14.0764	4.0	955.0	5.0	Outcome1	7.11	8.3	0.0	No		-1.19167610419026				ShowChoice	Gain
57.0	3	49.401	0.012	1096.142	7.11	3.56	14.0764	1.0	955.0	5.0	Outcome1	7.11	8.3	0.0	No		-1.19167610419026				ShowResult	Gain
57.0	3	50.421	0.02	1097.162	7.11	3.56	14.0764	4.291	955.0	5.0	Outcome1	7.11	8.3	0.0	No		-1.19167610419026				ISITrial	Gain
58.0	3	54.734	0.022	1101.475	10.7	2.46	15.4139	3.0	955.0	1.82	Outcome1	10.7	4.93	3045.75	Yes	2.0	5.7689694224235595	1.286	56.02		GetAnswer	Loss
58.0	3	56.037	0.017	1102.778	10.7	2.46	15.4139	4.0	955.0	1.82	Outcome1	10.7	4.93	3045.75	Yes		5.7689694224235595				ShowChoice	Loss
58.0	3	60.049	0.012	1106.79	10.7	2.46	15.4139	1.0	955.0	1.82	Outcome1	10.7	4.93	3045.75	Yes		5.7689694224235595				ShowResult	Loss
58.0	3	61.069	0.02	1107.81	10.7	2.46	15.4139	2.037	955.0	1.82	Outcome1	10.7	4.93	3045.75	Yes		5.7689694224235595				ISITrial	Loss
58.0	3	66.201	0.03	1112.942	10.7	2.46	15.4139	2.612	955.0	1.82	Outcome1	10.7	4.93	3045.75	Yes		5.7689694224235595			692.0	TrialHappiness	Loss
58.0	3	70.213	4.012	1116.954	10.7	2.46	15.4139	4.183	955.0	1.82	Outcome1	10.7	4.93	3045.75	Yes		5.7689694224235595				ISIRate	Loss
59.0	3	74.426	0.03	1121.167	12.72	6.36	17.0039	3.0	955.0	3.6	Outcome1	12.72	13.9	0.0	No	2.0	-1.17940732351831	0.993	75.419		GetAnswer	Loss
59.0	3	75.446	0.027	1122.187	12.72	6.36	17.0039	4.0	955.0	3.6	Outcome1	12.72	13.9	0.0	No		-1.17940732351831				ShowChoice	Loss
59.0	3	79.458	0.012	1126.199	12.72	6.36	17.0039	1.0	955.0	3.6	Outcome1	12.72	13.9	0.0	No		-1.17940732351831				ShowResult	Loss
59.0	3	80.477	0.019	1127.218	12.72	6.36	17.0039	5.064	955.0	3.6	Outcome1	12.72	13.9	0.0	No		-1.17940732351831				ISITrial	Loss
60.0	3	85.559	0.018	1132.3	-0.1	-3.0	16.9914	3.0	955.0	1.2	Outcome2	-6.21	-0.1	3562.5	Yes	2.0	6.1109852774631905	1.964	87.523		GetAnswer	Mixed
60.0	3	87.548	0.024	1134.289	-0.1	-3.0	16.9914	4.0	955.0	1.2	Outcome2	-6.21	-0.1	3562.5	Yes		6.1109852774631905				ShowChoice	Mixed
60.0	3	91.56	0.012	1138.301	-0.1	-3.0	16.9914	1.0	955.0	1.2	Outcome2	-6.21	-0.1	3562.5	Yes		6.1109852774631905				ShowResult	Mixed
60.0	3	92.58	0.02	1139.321	-0.1	-3.0	16.9914	8.0	955.0	1.2	Outcome2	-6.21	-0.1	3562.5	Yes		6.1109852774631905				ISITrial	Mixed
60.0	3	104.182	0.016	1150.923	-0.1	-3.0	16.9914	1.48	955.0	1.2	Outcome2	-6.21	-0.1	3562.5	Yes		6.1109852774631905			684.0	TrialHappiness	Mixed
60.0	3	108.194	4.012	1154.935	-0.1	-3.0	16.9914	6.25	955.0	1.2	Outcome2	-6.21	-0.1	3562.5	Yes		6.1109852774631905				ISIRate	Mixed
61.0	3	114.462	0.018	1161.203	1.84	2.0	17.2214	3.0	955.0	0.52	Outcome2	3.1	1.84	0.0	No	2.0	-1.26151377878445	0.964	115.426		GetAnswer	Mixed
61.0	3	115.449	0.023	1162.19	1.84	2.0	17.2214	4.0	955.0	0.52	Outcome2	3.1	1.84	0.0	No		-1.26151377878445				ShowChoice	Mixed
61.0	3	119.461	0.012	1166.202	1.84	2.0	17.2214	1.0	955.0	0.52	Outcome2	3.1	1.84	0.0	No		-1.26151377878445				ShowResult	Mixed
61.0	3	120.48	0.019	1167.221	1.84	2.0	17.2214	4.586	955.0	0.52	Outcome2	3.1	1.84	0.0	No		-1.26151377878445				ISITrial	Mixed
62.0	3	125.094	0.028	1171.835	-1.5	-5.0	17.0339	3.0	955.0	0.2	Outcome2	-8.35	-1.5	3748.75	Yes	2.0	6.85164212910532	2.472	127.566		GetAnswer	Mixed
62.0	3	127.585	0.019	1174.326	-1.5	-5.0	17.0339	4.0	955.0	0.2	Outcome2	-8.35	-1.5	3748.75	Yes		6.85164212910532				ShowChoice	Mixed
62.0	3	131.597	0.012	1178.338	-1.5	-5.0	17.0339	1.0	955.0	0.2	Outcome2	-8.35	-1.5	3748.75	Yes		6.85164212910532				ShowResult	Mixed
62.0	3	132.617	0.02	1179.358	-1.5	-5.0	17.0339	5.212	955.0	0.2	Outcome2	-8.35	-1.5	3748.75	Yes		6.85164212910532				ISITrial	Mixed
62.0	3	141.627	0.029	1188.368	-1.5	-5.0	17.0339	3.902	955.0	0.2	Outcome2	-8.35	-1.5	3748.75	Yes		6.85164212910532			700.0	TrialHappiness	Mixed
62.0	3	145.639	4.012	1192.38	-1.5	-5.0	17.0339	6.995	955.0	0.2	Outcome2	-8.35	-1.5	3748.75	Yes		6.85164212910532				ISIRate	Mixed
63.0	3	152.66	0.026	1199.401	11.45	5.72	18.4652	3.0	955.0	1.82	Outcome2	12.7	11.45	0.0	No	2.0	-1.24773499433749	0.883	153.543		GetAnswer	Loss
63.0	3	153.563	0.02	1200.304	11.45	5.72	18.4652	4.0	955.0	1.82	Outcome2	12.7	11.45	0.0	No		-1.24773499433749				ShowChoice	Loss
63.0	3	157.575	0.012	1204.316	11.45	5.72	18.4652	1.0	955.0	1.82	Outcome2	12.7	11.45	0.0	No		-1.24773499433749				ShowResult	Loss
63.0	3	158.594	0.019	1205.335	11.45	5.72	18.4652	5.595	955.0	1.82	Outcome2	12.7	11.45	0.0	No		-1.24773499433749				ISITrial	Loss
64.0	3	164.211	0.022	1210.952	12.5	2.66	20.0277	3.0	955.0	1.68	Outcome2	5.32	12.5	0.0	No	2.0	7.17553793884485	1.245	165.456		GetAnswer	Loss
64.0	3	165.482	0.026	1212.223	12.5	2.66	20.0277	4.0	955.0	1.68	Outcome2	5.32	12.5	0.0	No		7.17553793884485				ShowChoice	Loss
64.0	3	169.494	0.012	1216.235	12.5	2.66	20.0277	1.0	955.0	1.68	Outcome2	5.32	12.5	0.0	No		7.17553793884485				ShowResult	Loss
64.0	3	170.513	0.019	1217.254	12.5	2.66	20.0277	5.47	955.0	1.68	Outcome2	5.32	12.5	0.0	No		7.17553793884485				ISITrial	Loss
65.0	3	176.013	0.03	1222.754	3.5	0.0	20.4652	3.0	955.0	0.82	Outcome1	3.5	-3.96	2996.75	Yes	2.0	7.4643261608154	1.755	177.768		GetAnswer	Mixed
65.0	3	177.785	0.017	1224.526	3.5	0.0	20.4652	4.0	955.0	0.82	Outcome1	3.5	-3.96	2996.75	Yes		7.4643261608154				ShowChoice	Mixed
65.0	3	181.797	0.012	1228.538	3.5	0.0	20.4652	1.0	955.0	0.82	Outcome1	3.5	-3.96	2996.75	Yes		7.4643261608154				ShowResult	Mixed
65.0	3	182.817	0.02	1229.558	3.5	0.0	20.4652	3.344	955.0	0.82	Outcome1	3.5	-3.96	2996.75	Yes		7.4643261608154				ISITrial	Mixed
65.0	3	189.203	0.029	1235.944	3.5	0.0	20.4652	2.465	955.0	0.82	Outcome1	3.5	-3.96	2996.75	Yes		7.4643261608154			760.0	TrialHappiness	Mixed
65.0	3	193.215	4.012	1239.956	3.5	0.0	20.4652	3.987	955.0	0.82	Outcome1	3.5	-3.96	2996.75	Yes		7.4643261608154				ISIRate	Mixed
66.0	3	197.227	0.025	1243.968	11.1	2.18	21.8527	3.0	955.0	2.22	Outcome1	11.1	4.37	0.0	No	2.0	6.73386183465459	1.151	198.378		GetAnswer	Loss
66.0	3	198.397	0.019	1245.138	11.1	2.18	21.8527	4.0	955.0	2.22	Outcome1	11.1	4.37	0.0	No		6.73386183465459				ShowChoice	Loss
66.0	3	202.409	0.012	1249.15	11.1	2.18	21.8527	1.0	955.0	2.22	Outcome1	11.1	4.37	0.0	No		6.73386183465459				ShowResult	Loss
66.0	3	203.429	0.02	1250.17	11.1	2.18	21.8527	3.959	955.0	2.22	Outcome1	11.1	4.37	0.0	No		6.73386183465459				ISITrial	Loss
67.0	3	207.407	0.019	1254.148	9.41	4.7	23.0289	3.0	955.0	1.68	Outcome1	9.41	10.5	2918.5	Yes	2.0	-1.09484711211778	1.038	208.445		GetAnswer	Loss
67.0	3	208.46	0.015	1255.201	9.41	4.7	23.0289	4.0	955.0	1.68	Outcome1	9.41	10.5	2918.5	Yes		-1.09484711211778				ShowChoice	Loss
67.0	3	212.472	0.012	1259.213	9.41	4.7	23.0289	1.0	955.0	1.68	Outcome1	9.41	10.5	2918.5	Yes		-1.09484711211778				ShowResult	Loss
67.0	3	213.492	0.02	1260.233	9.41	4.7	23.0289	4.199	955.0	1.68	Outcome1	9.41	10.5	2918.5	Yes		-1.09484711211778				ISITrial	Loss
67.0	3	220.647	0.024	1267.388	9.41	4.7	23.0289	1.499	955.0	1.68	Outcome1	9.41	10.5	2918.5	Yes		-1.09484711211778			732.0	TrialHappiness	Loss
67.0	3	224.659	4.012	1271.4	9.41	4.7	23.0289	3.674	955.0	1.68	Outcome1	9.41	10.5	2918.5	Yes		-1.09484711211778				ISIRate	Loss
68.0	3	228.353	0.02	1275.094	9.67	4.84	24.2377	3.0	955.0	2.0	Outcome2	10.9	9.67	0.0	No	2.0	-1.22687806719517	1.065	229.418		GetAnswer	Loss
68.0	3	229.44	0.022	1276.181	9.67	4.84	24.2377	4.0	955.0	2.0	Outcome2	10.9	9.67	0.0	No		-1.22687806719517				ShowChoice	Loss
68.0	3	233.452	0.012	1280.193	9.67	4.84	24.2377	1.0	955.0	2.0	Outcome2	10.9	9.67	0.0	No		-1.22687806719517				ShowResult	Loss
68.0	3	234.472	0.02	1281.213	9.67	4.84	24.2377	2.185	955.0	2.0	Outcome2	10.9	9.67	0.0	No		-1.22687806719517				ISITrial	Loss
69.0	3	236.678	0.021	1283.419	-0.75	0.0	24.1439	3.0	955.0	0.2	Outcome2	0.5	-0.75	0.0	No	2.0	-1.24792374480936	2.247	238.925		GetAnswer	Mixed
69.0	3	238.952	0.027	1285.693	-0.75	0.0	24.1439	4.0	955.0	0.2	Outcome2	0.5	-0.75	0.0	No		-1.24792374480936				ShowChoice	Mixed
69.0	3	242.98	0.028	1289.721	-0.75	0.0	24.1439	1.0	955.0	0.2	Outcome2	0.5	-0.75	0.0	No		-1.24792374480936				ShowResult	Mixed
69.0	3	244.0	0.02	1290.741	-0.75	0.0	24.1439	2.0	955.0	0.2	Outcome2	0.5	-0.75	0.0	No		-1.24792374480936				ISITrial	Mixed
70.0	3	246.023	0.023	1292.764	6.7	2.0	24.9814	3.0	955.0	1.82	Outcome1	6.7	-1.46	3651.25	Yes	2.0	8.156285390713482	1.623	247.646		GetAnswer	Gain
70.0	3	247.661	0.015	1294.402	6.7	2.0	24.9814	4.0	955.0	1.82	Outcome1	6.7	-1.46	3651.25	Yes		8.156285390713482				ShowChoice	Gain
70.0	3	251.673	0.012	1298.414	6.7	2.0	24.9814	1.0	955.0	1.82	Outcome1	6.7	-1.46	3651.25	Yes		8.156285390713482				ShowResult	Gain
70.0	3	252.693	0.02	1299.434	6.7	2.0	24.9814	2.623	955.0	1.82	Outcome1	6.7	-1.46	3651.25	Yes		8.156285390713482				ISITrial	Gain
70.0	3	259.012	0.027	1305.753	6.7	2.0	24.9814	1.896	955.0	1.82	Outcome1	6.7	-1.46	3651.25	Yes		8.156285390713482			724.0	TrialHappiness	Gain
70.0	3	263.024	4.012	1309.765	6.7	2.0	24.9814	6.605	955.0	1.82	Outcome1	6.7	-1.46	3651.25	Yes		8.156285390713482				ISIRate	Gain
71.0	3	269.66	0.031	1316.401	-1.3	-5.0	24.8189	3.0	955.0	0.3	Outcome2	-9.84	-1.3	0.0	No	2.0	8.54473386183465	2.53	272.19		GetAnswer	Mixed
71.0	3	272.218	0.028	1318.959	-1.3	-5.0	24.8189	4.0	955.0	0.3	Outcome2	-9.84	-1.3	0.0	No		8.54473386183465				ShowChoice	Mixed
71.0	3	276.23	0.012	1322.971	-1.3	-5.0	24.8189	1.0	955.0	0.3	Outcome2	-9.84	-1.3	0.0	No		8.54473386183465				ShowResult	Mixed
71.0	3	277.25	0.02	1323.991	-1.3	-5.0	24.8189	5.499	955.0	0.3	Outcome2	-9.84	-1.3	0.0	No		8.54473386183465				ISITrial	Mixed
72.0	3	282.766	0.017	1329.507	0.0	0.0	24.8189	3.0	955.0	1.0	Certain	3.7	-5.11	3080.5	Yes	4.0	8.806342015855039	1.842	284.608		GetAnswer	Mixed
72.0	3	284.622	0.013	1331.363	0.0	0.0	24.8189	4.0	955.0	1.0	Certain	3.7	-5.11	3080.5	Yes		8.806342015855039				ShowChoice	Mixed
72.0	3	288.634	0.012	1335.375	0.0	0.0	24.8189	1.0	955.0	1.0	Certain	3.7	-5.11	3080.5	Yes		8.806342015855039				ShowResult	Mixed
72.0	3	289.653	0.019	1336.394	0.0	0.0	24.8189	5.672	955.0	1.0	Certain	3.7	-5.11	3080.5	Yes		8.806342015855039				ISITrial	Mixed
72.0	3	298.446	0.029	1345.187	0.0	0.0	24.8189	3.585	955.0	1.0	Certain	3.7	-5.11	3080.5	Yes		8.806342015855039			748.0	TrialHappiness	Mixed
72.0	3	302.458	4.012	1349.199	0.0	0.0	24.8189	4.322	955.0	1.0	Certain	3.7	-5.11	3080.5	Yes		8.806342015855039				ISIRate	Mixed
73.0	3	306.805	0.025	1353.546	11.5	1.42	26.2564	3.0	955.0	2.8	Outcome1	11.5	2.84	0.0	No	2.0	8.66024915062288	0.981	307.786		GetAnswer	Loss
73.0	3	307.808	0.022	1354.549	11.5	1.42	26.2564	4.0	955.0	2.8	Outcome1	11.5	2.84	0.0	No		8.66024915062288				ShowChoice	Loss
73.0	3	311.82	0.012	1358.561	11.5	1.42	26.2564	1.0	955.0	2.8	Outcome1	11.5	2.84	0.0	No		8.66024915062288				ShowResult	Loss
73.0	3	312.839	0.019	1359.58	11.5	1.42	26.2564	4.616	955.0	2.8	Outcome1	11.5	2.84	0.0	No		8.66024915062288				ISITrial	Loss
74.0	3	317.487	0.032	1364.228	0.1	-4.0	26.2689	3.0	955.0	1.5	Outcome2	-8.79	0.1	3056.25	Yes		8.89467723669309				GetAnswer	Mixed
74.0	3	320.512	0.025	1367.253	0.1	-4.0	26.2689	4.0	955.0	1.5	Outcome2	-8.79	0.1	3056.25	Yes		8.89467723669309				ShowChoice	Mixed
74.0	3	324.524	0.012	1371.265	0.1	-4.0	26.2689	1.0	955.0	1.5	Outcome2	-8.79	0.1	3056.25	Yes		8.89467723669309				ShowResult	Mixed
74.0	3	325.544	0.02	1372.285	0.1	-4.0	26.2689	3.909	955.0	1.5	Outcome2	-8.79	0.1	3056.25	Yes		8.89467723669309				ISITrial	Mixed
74.0	3	332.548	0.019	1379.289	0.1	-4.0	26.2689	3.638	955.0	1.5	Outcome2	-8.79	0.1	3056.25	Yes		8.89467723669309			824.0	TrialHappiness	Mixed
74.0	3	336.56	4.012	1383.301	0.1	-4.0	26.2689	4.225	955.0	1.5	Outcome2	-8.79	0.1	3056.25	Yes		8.89467723669309				ISIRate	Mixed
75.0	3	340.806	0.021	1387.547	10.1	1.13	27.5314	3.0	955.0	4.2	Outcome2	2.26	10.1	0.0	No	2.0	7.83805209513024	1.071	341.877		GetAnswer	Gain
75.0	3	341.893	0.016	1388.634	10.1	1.13	27.5314	4.0	955.0	4.2	Outcome2	2.26	10.1	0.0	No		7.83805209513024				ShowChoice	Gain
75.0	3	345.905	0.012	1392.646	10.1	1.13	27.5314	1.0	955.0	4.2	Outcome2	2.26	10.1	0.0	No		7.83805209513024				ShowResult	Gain
75.0	3	346.925	0.02	1393.666	10.1	1.13	27.5314	4.979	955.0	4.2	Outcome2	2.26	10.1	0.0	No		7.83805209513024				ISITrial	Gain
76.0	3	351.923	0.019	1398.664	8.5	0.26	28.5939	3.0	955.0	1.68	Outcome2	0.51	8.5	0.0	No	2.0	7.98640996602492	1.879	353.802		GetAnswer	Gain
76.0	3	353.829	0.027	1400.57	8.5	0.26	28.5939	4.0	955.0	1.68	Outcome2	0.51	8.5	0.0	No		7.98640996602492				ShowChoice	Gain
76.0	3	357.841	0.012	1404.582	8.5	0.26	28.5939	1.0	955.0	1.68	Outcome2	0.51	8.5	0.0	No		7.98640996602492				ShowResult	Gain
76.0	3	358.861	0.02	1405.602	8.5	0.26	28.5939	3.931	955.0	1.68	Outcome2	0.51	8.5	0.0	No		7.98640996602492				ISITrial	Gain
77.0	3	362.822	0.03	1409.563	-1.0	-1.0	28.4689	3.0	955.0	0.3	Certain	2.7	-5.43	4000.0	Yes	4.0	8.13476783691959	2.123	364.945		GetAnswer	Mixed
77.0	3	364.962	0.017	1411.703	-1.0	-1.0	28.4689	4.0	955.0	0.3	Certain	2.7	-5.43	4000.0	Yes		8.13476783691959				ShowChoice	Mixed
77.0	3	368.974	0.012	1415.715	-1.0	-1.0	28.4689	1.0	955.0	0.3	Certain	2.7	-5.43	4000.0	Yes		8.13476783691959				ShowResult	Mixed
77.0	3	369.994	0.02	1416.735	-1.0	-1.0	28.4689	7.022	955.0	0.3	Certain	2.7	-5.43	4000.0	Yes		8.13476783691959				ISITrial	Mixed
77.0	3	381.06	0.028	1427.801	-1.0	-1.0	28.4689	3.251	955.0	0.3	Certain	2.7	-5.43	4000.0	Yes		8.13476783691959			788.0	TrialHappiness	Mixed
77.0	3	385.072	4.012	1431.813	-1.0	-1.0	28.4689	8.0	955.0	0.3	Certain	2.7	-5.43	4000.0	Yes		8.13476783691959				ISIRate	Mixed
78.0	3	393.096	0.024	1439.837	2.72	1.36	28.8089	3.0	955.0	1.2	Outcome2	3.9	2.72	0.0	No	2.0	-1.1825217063042701	1.26	394.356		GetAnswer	Mixed
78.0	3	394.384	0.028	1441.125	2.72	1.36	28.8089	4.0	955.0	1.2	Outcome2	3.9	2.72	0.0	No		-1.1825217063042701				ShowChoice	Mixed
78.0	3	398.396	0.012	1445.137	2.72	1.36	28.8089	1.0	955.0	1.2	Outcome2	3.9	2.72	0.0	No		-1.1825217063042701				ShowResult	Mixed
78.0	3	399.415	0.019	1446.156	2.72	1.36	28.8089	2.078	955.0	1.2	Outcome2	3.9	2.72	0.0	No		-1.1825217063042701				ISITrial	Mixed
79.0	3	401.522	0.029	1448.263	12.3	1.61	30.3464	3.0	955.0	5.0	Outcome1	12.3	3.22	2729.5	Yes	2.0	9.08380520951302	1.44	402.962		GetAnswer	Loss
79.0	3	402.976	0.014	1449.717	12.3	1.61	30.3464	4.0	955.0	5.0	Outcome1	12.3	3.22	2729.5	Yes		9.08380520951302				ShowChoice	Loss
79.0	3	406.988	0.012	1453.729	12.3	1.61	30.3464	1.0	955.0	5.0	Outcome1	12.3	3.22	2729.5	Yes		9.08380520951302				ShowResult	Loss
79.0	3	408.008	0.02	1454.749	12.3	1.61	30.3464	3.829	955.0	5.0	Outcome1	12.3	3.22	2729.5	Yes		9.08380520951302				ISITrial	Loss
79.0	3	414.611	0.029	1461.352	12.3	1.61	30.3464	1.846	955.0	5.0	Outcome1	12.3	3.22	2729.5	Yes		9.08380520951302			776.0	TrialHappiness	Loss
79.0	3	418.623	4.012	1465.364	12.3	1.61	30.3464	2.918	955.0	5.0	Outcome1	12.3	3.22	2729.5	Yes		9.08380520951302				ISIRate	Loss
80.0	3	421.565	0.024	1468.306	-0.3	-5.0	30.3089	3.0	955.0	1.0	Outcome1	-0.3	-9.78	0.0	No	2.0	9.47678369195923	2.228	423.793		GetAnswer	Mixed
80.0	3	423.805	0.012	1470.546	-0.3	-5.0	30.3089	4.0	955.0	1.0	Outcome1	-0.3	-9.78	0.0	No		9.47678369195923				ShowChoice	Mixed
80.0	3	427.817	0.012	1474.558	-0.3	-5.0	30.3089	1.0	955.0	1.0	Outcome1	-0.3	-9.78	0.0	No		9.47678369195923				ShowResult	Mixed
80.0	3	428.837	0.02	1475.578	-0.3	-5.0	30.3089	3.336	955.0	1.0	Outcome1	-0.3	-9.78	0.0	No		9.47678369195923				ISITrial	Mixed
81.0	3	432.197	0.024	1478.938	8.22	4.11	31.3364	3.0	955.0	2.8	Outcome1	8.22	9.5	3923.75	Yes	2.0	-1.2796338240845602	1.277	433.474		GetAnswer	Gain
81.0	3	433.501	0.027	1480.242	8.22	4.11	31.3364	4.0	955.0	2.8	Outcome1	8.22	9.5	3923.75	Yes		-1.2796338240845602				ShowChoice	Gain
81.0	3	437.513	0.012	1484.254	8.22	4.11	31.3364	1.0	955.0	2.8	Outcome1	8.22	9.5	3923.75	Yes		-1.2796338240845602				ShowResult	Gain
81.0	3	438.532	0.019	1485.273	8.22	4.11	31.3364	3.919	955.0	2.8	Outcome1	8.22	9.5	3923.75	Yes		-1.2796338240845602				ISITrial	Gain
81.0	3	446.423	0.022	1493.164	8.22	4.11	31.3364	2.891	955.0	2.8	Outcome1	8.22	9.5	3923.75	Yes		-1.2796338240845602			756.0	TrialHappiness	Gain
81.0	3	450.435	4.012	1497.176	8.22	4.11	31.3364	7.695	955.0	2.8	Outcome1	8.22	9.5	3923.75	Yes		-1.2796338240845602				ISIRate	Gain
	3	458.158	0.028	1504.899				3.0													CurrentEarnings	
	3	461.183	0.025	1507.924				-0.001								{SPACE}		12.32	473.503		Goodbye	
