trial_number	block	onset	onset_delay	onset_unadjusted	amount_change	certain_amount	current_amount	duration	mood_target	multiplier	outcome	outcome1_amount	outcome2_amount	question_duration	rating	response	rpe	rt	rt_time	slider_response	trial_phase	trial_type
	0	-46.871	0.013	30.123				-0.001								{SPACE}		8.891	-37.98		Welcome	
	0	-37.952	0.028	39.042				5.0													LifeHappyPreview	
	0	-32.921	0.031	44.073				4.962												904.0	LifeHappiness	
	0	-14.649	0.02	62.345				4.0													BlockHappyPreview	
	0	-10.637	0.012	66.357				3.908												780.0	BlockStartHappiness	
	0	-0.44	0.021	76.554				-0.001								5.0					ScanWait	
	1	0.028	0.028	77.022				10.0													GetReady	
1.0	1	10.058	0.03	87.052	6.79	3.4	10.8488	3.0	955.0	2.8	Outcome2	7.5	6.79	0.0	No	2.0	-0.710173650434126	1.951	12.009		GetAnswer	Gain
1.0	1	12.03	0.021	89.024	6.79	3.4	10.8488	4.0	955.0	2.8	Outcome2	7.5	6.79	0.0	No		-0.710173650434126				ShowChoice	Gain
1.0	1	16.059	0.029	93.053	6.79	3.4	10.8488	1.0	955.0	2.8	Outcome2	7.5	6.79	0.0	No		-0.710173650434126				ShowResult	Gain
1.0	1	17.079	0.02	94.073	6.79	3.4	10.8488	2.431	955.0	2.8	Outcome2	7.5	6.79	0.0	No		-0.710173650434126				ISITrial	Gain
2.0	1	19.536	0.026	96.53	-1.0	-1.0	10.7238	3.0	955.0	0.52	Certain	-0.9	-1.63	0.0	No	4.0	-0.7266893167232921	1.578	21.114		GetAnswer	Mixed
2.0	1	21.141	0.027	98.135	-1.0	-1.0	10.7238	4.0	955.0	0.52	Certain	-0.9	-1.63	0.0	No		-0.7266893167232921				ShowChoice	Mixed
2.0	1	25.17	0.029	102.164	-1.0	-1.0	10.7238	1.0	955.0	0.52	Certain	-0.9	-1.63	0.0	No		-0.7266893167232921				ShowResult	Mixed
2.0	1	26.189	0.019	103.183	-1.0	-1.0	10.7238	4.568	955.0	0.52	Certain	-0.9	-1.63	0.0	No		-0.7266893167232921				ISITrial	Mixed
3.0	1	30.786	0.029	107.78	10.3	3.46	12.0113	3.0	955.0	5.0	Outcome1	10.3	6.93	2868.0	Yes	2.0	3.3691959229898103	1.076	31.862		GetAnswer	Gain
3.0	1	31.89	0.028	108.884	10.3	3.46	12.0113	4.0	955.0	5.0	Outcome1	10.3	6.93	2868.0	Yes		3.3691959229898103				ShowChoice	Gain
3.0	1	35.918	0.028	112.912	10.3	3.46	12.0113	1.0	955.0	5.0	Outcome1	10.3	6.93	2868.0	Yes		3.3691959229898103				ShowResult	Gain
3.0	1	36.938	0.02	113.932	10.3	3.46	12.0113	3.243	955.0	5.0	Outcome1	10.3	6.93	2868.0	Yes		3.3691959229898103				ISITrial	Gain
3.0	1	43.09	0.024	120.084	10.3	3.46	12.0113	3.083	955.0	5.0	Outcome1	10.3	6.93	2868.0	Yes		3.3691959229898103			896.0	TrialHappiness	Gain
3.0	1	47.119	4.029	124.113	10.3	3.46	12.0113	3.472	955.0	5.0	Outcome1	10.3	6.93	2868.0	Yes		3.3691959229898103				ISIRate	Gain
4.0	1	50.612	0.021	127.606	6.5	2.45	12.8238	3.0	955.0	1.68	Outcome2	4.9	6.5	0.0	No	2.0	1.59682899207248	0.949	51.561		GetAnswer	Gain
4.0	1	51.582	0.021	128.576	6.5	2.45	12.8238	4.0	955.0	1.68	Outcome2	4.9	6.5	0.0	No		1.59682899207248				ShowChoice	Gain
4.0	1	55.611	0.029	132.605	6.5	2.45	12.8238	1.0	955.0	1.68	Outcome2	4.9	6.5	0.0	No		1.59682899207248				ShowResult	Gain
4.0	1	56.63	0.019	133.624	6.5	2.45	12.8238	2.011	955.0	1.68	Outcome2	4.9	6.5	0.0	No		1.59682899207248				ISITrial	Gain
5.0	1	58.67	0.029	135.664	2.61	1.3	13.1501	3.0	955.0	0.4	Outcome2	2.9	2.61	2582.5	Yes	2.0	-0.294545111362778	0.849	59.519		GetAnswer	Mixed
5.0	1	59.539	0.02	136.533	2.61	1.3	13.1501	4.0	955.0	0.4	Outcome2	2.9	2.61	2582.5	Yes		-0.294545111362778				ShowChoice	Mixed
5.0	1	63.568	0.029	140.562	2.61	1.3	13.1501	1.0	955.0	0.4	Outcome2	2.9	2.61	2582.5	Yes		-0.294545111362778				ShowResult	Mixed
5.0	1	64.588	0.02	141.582	2.61	1.3	13.1501	5.129	955.0	0.4	Outcome2	2.9	2.61	2582.5	Yes		-0.294545111362778				ISITrial	Mixed
5.0	1	72.344	0.026	149.338	2.61	1.3	13.1501	1.444	955.0	0.4	Outcome2	2.9	2.61	2582.5	Yes		-0.294545111362778			840.0	TrialHappiness	Mixed
5.0	1	76.373	4.029	153.367	2.61	1.3	13.1501	2.33	955.0	0.4	Outcome2	2.9	2.61	2582.5	Yes		-0.294545111362778				ISIRate	Mixed
6.0	1	78.73	0.027	155.724	11.57	5.78	14.5963	3.0	955.0	4.2	Outcome2	12.1	11.57	0.0	No	2.0	-0.527368818422046	0.939	79.669		GetAnswer	Loss
6.0	1	79.699	0.03	156.693	11.57	5.78	14.5963	4.0	955.0	4.2	Outcome2	12.1	11.57	0.0	No		-0.527368818422046				ShowChoice	Loss
6.0	1	83.711	0.012	160.705	11.57	5.78	14.5963	1.0	955.0	4.2	Outcome2	12.1	11.57	0.0	No		-0.527368818422046				ShowResult	Loss
6.0	1	84.731	0.02	161.725	11.57	5.78	14.5963	6.232	955.0	4.2	Outcome2	12.1	11.57	0.0	No		-0.527368818422046				ISITrial	Loss
7.0	1	90.983	0.02	167.977	13.7	5.44	16.3088	3.0	955.0	3.16	Outcome2	10.89	13.7	0.0	No	2.0	2.8120045300113303	0.974	91.957		GetAnswer	Loss
7.0	1	91.986	0.029	168.98	13.7	5.44	16.3088	4.0	955.0	3.16	Outcome2	10.89	13.7	0.0	No		2.8120045300113303				ShowChoice	Loss
7.0	1	95.998	0.012	172.992	13.7	5.44	16.3088	1.0	955.0	3.16	Outcome2	10.89	13.7	0.0	No		2.8120045300113303				ShowResult	Loss
7.0	1	97.018	0.02	174.012	13.7	5.44	16.3088	2.305	955.0	3.16	Outcome2	10.89	13.7	0.0	No		2.8120045300113303				ISITrial	Loss
8.0	1	99.341	0.018	176.335	5.3	1.18	16.9713	3.0	955.0	2.48	Outcome1	5.3	2.36	3112.5	Yes	2.0	2.9422423556058903	0.926	100.267		GetAnswer	Gain
8.0	1	100.294	0.027	177.288	5.3	1.18	16.9713	4.0	955.0	2.48	Outcome1	5.3	2.36	3112.5	Yes		2.9422423556058903				ShowChoice	Gain
8.0	1	104.306	0.012	181.3	5.3	1.18	16.9713	1.0	955.0	2.48	Outcome1	5.3	2.36	3112.5	Yes		2.9422423556058903				ShowResult	Gain
8.0	1	105.326	0.02	182.32	5.3	1.18	16.9713	3.506	955.0	2.48	Outcome1	5.3	2.36	3112.5	Yes		2.9422423556058903				ISITrial	Gain
8.0	1	111.996	0.031	188.99	5.3	1.18	16.9713	1.427	955.0	2.48	Outcome1	5.3	2.36	3112.5	Yes		2.9422423556058903			872.0	TrialHappiness	Gain
8.0	1	116.025	4.029	193.019	5.3	1.18	16.9713	4.45	955.0	2.48	Outcome1	5.3	2.36	3112.5	Yes		2.9422423556058903				ISIRate	Gain
9.0	1	120.505	0.03	197.499	9.9	3.68	18.2088	3.0	955.0	3.6	Outcome2	7.37	9.9	0.0	No	2.0	2.52887882219706	0.777	121.282		GetAnswer	Gain
9.0	1	121.307	0.025	198.301	9.9	3.68	18.2088	4.0	955.0	3.6	Outcome2	7.37	9.9	0.0	No		2.52887882219706				ShowChoice	Gain
9.0	1	125.319	0.012	202.313	9.9	3.68	18.2088	1.0	955.0	3.6	Outcome2	7.37	9.9	0.0	No		2.52887882219706				ShowResult	Gain
9.0	1	126.339	0.02	203.333	9.9	3.68	18.2088	2.0	955.0	3.6	Outcome2	7.37	9.9	0.0	No		2.52887882219706				ISITrial	Gain
10.0	1	128.362	0.023	205.356	2.1	1.0	18.4713	3.0	955.0	1.5	Outcome1	2.1	-0.52	4000.0	Yes	2.0	2.62287655719139	0.913	129.275		GetAnswer	Mixed
10.0	1	129.298	0.023	206.292	2.1	1.0	18.4713	4.0	955.0	1.5	Outcome1	2.1	-0.52	4000.0	Yes		2.62287655719139				ShowChoice	Mixed
10.0	1	133.326	0.028	210.32	2.1	1.0	18.4713	1.0	955.0	1.5	Outcome1	2.1	-0.52	4000.0	Yes		2.62287655719139				ShowResult	Mixed
10.0	1	134.346	0.02	211.34	2.1	1.0	18.4713	2.0	955.0	1.5	Outcome1	2.1	-0.52	4000.0	Yes		2.62287655719139				ISITrial	Mixed
10.0	1	140.398	0.029	217.392	2.1	1.0	18.4713	1.426	955.0	1.5	Outcome1	2.1	-0.52	4000.0	Yes		2.62287655719139			888.0	TrialHappiness	Mixed
10.0	1	144.426	4.028	221.42	2.1	1.0	18.4713	8.0	955.0	1.5	Outcome1	2.1	-0.52	4000.0	Yes		2.62287655719139				ISIRate	Mixed
11.0	1	152.45	0.024	229.444	2.92	1.46	18.8363	3.0	955.0	0.66	Outcome2	3.3	2.92	0.0	No	2.0	-0.38080407701019203	0.929	153.379		GetAnswer	Mixed
11.0	1	153.403	0.024	230.397	2.92	1.46	18.8363	4.0	955.0	0.66	Outcome2	3.3	2.92	0.0	No		-0.38080407701019203				ShowChoice	Mixed
11.0	1	157.432	0.029	234.426	2.92	1.46	18.8363	1.0	955.0	0.66	Outcome2	3.3	2.92	0.0	No		-0.38080407701019203				ShowResult	Mixed
11.0	1	158.452	0.02	235.446	2.92	1.46	18.8363	3.324	955.0	0.66	Outcome2	3.3	2.92	0.0	No		-0.38080407701019203				ISITrial	Mixed
12.0	1	161.795	0.019	238.789	1.51	1.0	19.0251	3.0	955.0	1.2	Outcome2	1.9	1.51	2618.75	Yes	2.0	-0.387127217818044	1.085	162.88		GetAnswer	Mixed
12.0	1	162.898	0.018	239.892	1.51	1.0	19.0251	4.0	955.0	1.2	Outcome2	1.9	1.51	2618.75	Yes		-0.387127217818044				ShowChoice	Mixed
12.0	1	166.91	0.012	243.904	1.51	1.0	19.0251	1.0	955.0	1.2	Outcome2	1.9	1.51	2618.75	Yes		-0.387127217818044				ShowResult	Mixed
12.0	1	167.93	0.02	244.924	1.51	1.0	19.0251	6.642	955.0	1.2	Outcome2	1.9	1.51	2618.75	Yes		-0.387127217818044				ISITrial	Mixed
12.0	1	177.241	0.022	254.235	1.51	1.0	19.0251	1.36	955.0	1.2	Outcome2	1.9	1.51	2618.75	Yes		-0.387127217818044			864.0	TrialHappiness	Mixed
12.0	1	181.27	4.029	258.264	1.51	1.0	19.0251	2.475	955.0	1.2	Outcome2	1.9	1.51	2618.75	Yes		-0.387127217818044				ISIRate	Mixed
13.0	1	183.777	0.032	260.771	5.81	2.9	19.7514	3.0	955.0	5.0	Outcome1	5.81	6.3	0.0	No	2.0	-0.490845602114005	0.888	184.665		GetAnswer	Gain
13.0	1	184.68	0.015	261.674	5.81	2.9	19.7514	4.0	955.0	5.0	Outcome1	5.81	6.3	0.0	No		-0.490845602114005				ShowChoice	Gain
13.0	1	188.709	0.029	265.703	5.81	2.9	19.7514	1.0	955.0	5.0	Outcome1	5.81	6.3	0.0	No		-0.490845602114005				ShowResult	Gain
13.0	1	189.728	0.019	266.722	5.81	2.9	19.7514	3.48	955.0	5.0	Outcome1	5.81	6.3	0.0	No		-0.490845602114005				ISITrial	Gain
14.0	1	193.239	0.031	270.233	13.1	5.0	21.3889	3.0	955.0	2.22	Outcome2	9.99	13.1	0.0	No	2.0	3.1075877689694202	0.855	194.094		GetAnswer	Loss
14.0	1	194.125	0.031	271.119	13.1	5.0	21.3889	4.0	955.0	2.22	Outcome2	9.99	13.1	0.0	No		3.1075877689694202				ShowChoice	Loss
14.0	1	198.154	0.029	275.148	13.1	5.0	21.3889	1.0	955.0	2.22	Outcome2	9.99	13.1	0.0	No		3.1075877689694202				ShowResult	Loss
14.0	1	199.173	0.019	276.167	13.1	5.0	21.3889	5.019	955.0	2.22	Outcome2	9.99	13.1	0.0	No		3.1075877689694202				ISITrial	Loss
15.0	1	204.222	0.03	281.216	8.1	2.44	22.4014	3.0	955.0	4.2	Outcome1	8.1	4.89	3348.5	Yes	2.0	3.2106455266138196	0.903	205.125		GetAnswer	Gain
15.0	1	205.141	0.016	282.135	8.1	2.44	22.4014	4.0	955.0	4.2	Outcome1	8.1	4.89	3348.5	Yes		3.2106455266138196				ShowChoice	Gain
15.0	1	209.153	0.012	286.147	8.1	2.44	22.4014	1.0	955.0	4.2	Outcome1	8.1	4.89	3348.5	Yes		3.2106455266138196				ShowResult	Gain
15.0	1	210.173	0.02	287.167	8.1	2.44	22.4014	7.614	955.0	4.2	Outcome1	8.1	4.89	3348.5	Yes		3.2106455266138196				ISITrial	Gain
15.0	1	221.189	0.029	298.183	8.1	2.44	22.4014	1.293	955.0	4.2	Outcome1	8.1	4.89	3348.5	Yes	2{-2}	3.2106455266138196	1.293	222.482	872.0	TrialHappiness	Gain
15.0	1	225.218	4.029	302.212	8.1	2.44	22.4014	5.394	955.0	4.2	Outcome1	8.1	4.89	3348.5	Yes		3.2106455266138196				ISIRate	Gain
16.0	1	230.634	0.022	307.628	3.5	2.0	22.8389	3.0	955.0	0.82	Outcome1	3.5	0.32	0.0	No	2.0	3.1778029445073597	0.833	231.467		GetAnswer	Mixed
16.0	1	231.487	0.02	308.481	3.5	2.0	22.8389	4.0	955.0	0.82	Outcome1	3.5	0.32	0.0	No		3.1778029445073597				ShowChoice	Mixed
16.0	1	235.515	0.028	312.509	3.5	2.0	22.8389	1.0	955.0	0.82	Outcome1	3.5	0.32	0.0	No		3.1778029445073597				ShowResult	Mixed
16.0	1	236.535	0.02	313.529	3.5	2.0	22.8389	3.008	955.0	0.82	Outcome1	3.5	0.32	0.0	No		3.1778029445073597				ISITrial	Mixed
17.0	1	239.577	0.034	316.571	6.9	1.82	23.7014	3.0	955.0	2.0	Outcome2	3.63	6.9	3041.5	Yes	2.0	3.2718006795017005	1.314	240.891		GetAnswer	Gain
17.0	1	240.915	0.024	317.909	6.9	1.82	23.7014	4.0	955.0	2.0	Outcome2	3.63	6.9	3041.5	Yes		3.2718006795017005				ShowChoice	Gain
17.0	1	244.943	0.028	321.937	6.9	1.82	23.7014	1.0	955.0	2.0	Outcome2	3.63	6.9	3041.5	Yes		3.2718006795017005				ShowResult	Gain
17.0	1	245.963	0.02	322.957	6.9	1.82	23.7014	3.566	955.0	2.0	Outcome2	3.63	6.9	3041.5	Yes		3.2718006795017005				ISITrial	Gain
17.0	1	252.633	0.034	329.627	6.9	1.82	23.7014	1.276	955.0	2.0	Outcome2	3.63	6.9	3041.5	Yes		3.2718006795017005			872.0	TrialHappiness	Gain
17.0	1	256.645	4.012	333.639	6.9	1.82	23.7014	4.166	955.0	2.0	Outcome2	3.63	6.9	3041.5	Yes		3.2718006795017005				ISIRate	Gain
18.0	1	260.841	0.03	337.835	5.0	2.5	24.3264	3.0	955.0	2.8	Outcome2	5.5	5.0	0.0	No	2.0	-0.49981124952812395	1.084	261.925		GetAnswer	Gain
18.0	1	261.944	0.019	338.938	5.0	2.5	24.3264	4.0	955.0	2.8	Outcome2	5.5	5.0	0.0	No		-0.49981124952812395				ShowChoice	Gain
18.0	1	265.973	0.029	342.967	5.0	2.5	24.3264	1.0	955.0	2.8	Outcome2	5.5	5.0	0.0	No		-0.49981124952812395				ShowResult	Gain
18.0	1	266.993	0.02	343.987	5.0	2.5	24.3264	6.787	955.0	2.8	Outcome2	5.5	5.0	0.0	No		-0.49981124952812395				ISITrial	Gain
19.0	1	273.813	0.033	350.807	7.39	3.7	25.2502	3.0	955.0	3.6	Outcome2	7.9	7.39	0.0	No	2.0	-0.5076443941109849	1.039	274.852		GetAnswer	Gain
19.0	1	274.883	0.031	351.877	7.39	3.7	25.2502	4.0	955.0	3.6	Outcome2	7.9	7.39	0.0	No		-0.5076443941109849				ShowChoice	Gain
19.0	1	278.912	0.029	355.906	7.39	3.7	25.2502	1.0	955.0	3.6	Outcome2	7.9	7.39	0.0	No		-0.5076443941109849				ShowResult	Gain
19.0	1	279.931	0.019	356.925	7.39	3.7	25.2502	2.0	955.0	3.6	Outcome2	7.9	7.39	0.0	No		-0.5076443941109849				ISITrial	Gain
20.0	1	281.954	0.023	358.948	2.58	1.29	25.5727	3.0	955.0	0.52	Outcome2	3.1	2.58	2921.25	Yes	2.0	-0.515477538693847	1.227	283.181		GetAnswer	Mixed
20.0	1	283.208	0.027	360.202	2.58	1.29	25.5727	4.0	955.0	0.52	Outcome2	3.1	2.58	2921.25	Yes		-0.515477538693847				ShowChoice	Mixed
20.0	1	287.237	0.029	364.231	2.58	1.29	25.5727	1.0	955.0	0.52	Outcome2	3.1	2.58	2921.25	Yes		-0.515477538693847				ShowResult	Mixed
20.0	1	288.256	0.019	365.25	2.58	1.29	25.5727	8.0	955.0	0.52	Outcome2	3.1	2.58	2921.25	Yes		-0.515477538693847				ISITrial	Mixed
20.0	1	299.222	0.021	376.216	2.58	1.29	25.5727	1.26	955.0	0.52	Outcome2	3.1	2.58	2921.25	Yes		-0.515477538693847			864.0	TrialHappiness	Mixed
20.0	1	303.251	4.029	380.245	2.58	1.29	25.5727	3.685	955.0	0.52	Outcome2	3.1	2.58	2921.25	Yes		-0.515477538693847				ISIRate	Mixed
21.0	1	306.962	0.026	383.956	-3.0	-3.0	25.1977	3.0	955.0	0.4	Certain	-4.88	-1.1	0.0	No	4.0	3.7836919592298996	1.396	308.358		GetAnswer	Mixed
21.0	1	308.383	0.025	385.377	-3.0	-3.0	25.1977	4.0	955.0	0.4	Certain	-4.88	-1.1	0.0	No		3.7836919592298996				ShowChoice	Mixed
21.0	1	312.412	0.029	389.406	-3.0	-3.0	25.1977	1.0	955.0	0.4	Certain	-4.88	-1.1	0.0	No		3.7836919592298996				ShowResult	Mixed
21.0	1	313.432	0.02	390.426	-3.0	-3.0	25.1977	3.555	955.0	0.4	Certain	-4.88	-1.1	0.0	No		3.7836919592298996				ISITrial	Mixed
22.0	1	317.009	0.022	394.003	0.0	0.0	25.1977	3.0	955.0	1.5	Certain	0.1	-0.46	3219.5	Yes	4.0	-0.564363910909777	1.62	318.629		GetAnswer	Mixed
22.0	1	318.647	0.018	395.641	0.0	0.0	25.1977	4.0	955.0	1.5	Certain	0.1	-0.46	3219.5	Yes		-0.564363910909777				ShowChoice	Mixed
22.0	1	322.659	0.012	399.653	0.0	0.0	25.1977	1.0	955.0	1.5	Certain	0.1	-0.46	3219.5	Yes		-0.564363910909777				ShowResult	Mixed
22.0	1	323.679	0.02	400.673	0.0	0.0	25.1977	6.793	955.0	1.5	Certain	0.1	-0.46	3219.5	Yes		-0.564363910909777				ISITrial	Mixed
22.0	1	333.742	0.023	410.736	0.0	0.0	25.1977	1.36	955.0	1.5	Certain	0.1	-0.46	3219.5	Yes		-0.564363910909777			880.0	TrialHappiness	Mixed
22.0	1	337.771	4.029	414.765	0.0	0.0	25.1977	4.878	955.0	1.5	Certain	0.1	-0.46	3219.5	Yes		-0.564363910909777				ISIRate	Mixed
23.0	1	342.669	0.02	419.663	-1.01	-1.0	25.0715	3.0	955.0	0.82	Outcome1	-1.01	-0.5	0.0	No	2.0	-0.508021895054738	2.047	344.716		GetAnswer	Mixed
23.0	1	344.742	0.026	421.736	-1.01	-1.0	25.0715	4.0	955.0	0.82	Outcome1	-1.01	-0.5	0.0	No		-0.508021895054738				ShowChoice	Mixed
23.0	1	348.771	0.029	425.765	-1.01	-1.0	25.0715	1.0	955.0	0.82	Outcome1	-1.01	-0.5	0.0	No		-0.508021895054738				ShowResult	Mixed
23.0	1	349.79	0.019	426.784	-1.01	-1.0	25.0715	8.0	955.0	0.82	Outcome1	-1.01	-0.5	0.0	No		-0.508021895054738				ISITrial	Mixed
24.0	1	357.814	0.024	434.808	7.1	1.65	25.959	3.0	955.0	2.22	Outcome2	3.3	7.1	3255.0	Yes	2.0	3.80294450736127	1.197	359.011		GetAnswer	Gain
24.0	1	359.035	0.024	436.029	7.1	1.65	25.959	4.0	955.0	2.22	Outcome2	3.3	7.1	3255.0	Yes		3.80294450736127				ShowChoice	Gain
24.0	1	363.063	0.028	440.057	7.1	1.65	25.959	1.0	955.0	2.22	Outcome2	3.3	7.1	3255.0	Yes		3.80294450736127				ShowResult	Gain
24.0	1	364.083	0.02	441.077	7.1	1.65	25.959	2.0	955.0	2.22	Outcome2	3.3	7.1	3255.0	Yes		3.80294450736127				ISITrial	Gain
24.0	1	369.382	0.021	446.376	7.1	1.65	25.959	1.327	955.0	2.22	Outcome2	3.3	7.1	3255.0	Yes		3.80294450736127			872.0	TrialHappiness	Gain
24.0	1	373.411	4.029	450.405	7.1	1.65	25.959	5.02	955.0	2.22	Outcome2	3.3	7.1	3255.0	Yes		3.80294450736127				ISIRate	Gain
25.0	1	378.459	0.028	455.453	9.7	2.84	27.1715	3.0	955.0	3.16	Outcome2	5.68	9.7	0.0	No	2.0	4.0237825594564	0.896	379.355		GetAnswer	Gain
25.0	1	379.379	0.024	456.373	9.7	2.84	27.1715	4.0	955.0	3.16	Outcome2	5.68	9.7	0.0	No		4.0237825594564				ShowChoice	Gain
25.0	1	383.407	0.028	460.401	9.7	2.84	27.1715	1.0	955.0	3.16	Outcome2	5.68	9.7	0.0	No		4.0237825594564				ShowResult	Gain
25.0	1	384.427	0.02	461.421	9.7	2.84	27.1715	3.749	955.0	3.16	Outcome2	5.68	9.7	0.0	No		4.0237825594564				ISITrial	Gain
26.0	1	388.205	0.029	465.199	12.7	4.29	28.759	3.0	955.0	1.82	Outcome2	8.58	12.7	0.0	No	2.0	4.11778029445073	1.112	389.317		GetAnswer	Loss
26.0	1	389.342	0.025	466.336	12.7	4.29	28.759	4.0	955.0	1.82	Outcome2	8.58	12.7	0.0	No		4.11778029445073				ShowChoice	Loss
26.0	1	393.371	0.029	470.365	12.7	4.29	28.759	1.0	955.0	1.82	Outcome2	8.58	12.7	0.0	No		4.11778029445073				ShowResult	Loss
26.0	1	394.39	0.019	471.384	12.7	4.29	28.759	7.834	955.0	1.82	Outcome2	8.58	12.7	0.0	No		4.11778029445073				ISITrial	Loss
27.0	1	402.247	0.023	479.241	2.0	2.0	29.009	3.0	955.0	1.68	Certain	0.29	4.5	2549.75	Yes	4.0	4.21177802944507	1.578	403.825		GetAnswer	Gain
27.0	1	403.852	0.027	480.846	2.0	2.0	29.009	4.0	955.0	1.68	Certain	0.29	4.5	2549.75	Yes		4.21177802944507				ShowChoice	Gain
27.0	1	407.864	0.012	484.858	2.0	2.0	29.009	1.0	955.0	1.68	Certain	0.29	4.5	2549.75	Yes		4.21177802944507				ShowResult	Gain
27.0	1	408.884	0.02	485.878	2.0	2.0	29.009	4.225	955.0	1.68	Certain	0.29	4.5	2549.75	Yes		4.21177802944507				ISITrial	Gain
27.0	1	415.704	0.024	492.698	2.0	2.0	29.009	1.343	955.0	1.68	Certain	0.29	4.5	2549.75	Yes		4.21177802944507			880.0	TrialHappiness	Gain
27.0	1	419.733	4.029	496.727	2.0	2.0	29.009	2.199	955.0	1.68	Certain	0.29	4.5	2549.75	Yes		4.21177802944507				ISIRate	Gain
	1	421.956	0.024	498.95				-0.001								{SPACE}		98.915	520.871		Rest	
	1	520.885	0.014	597.879				4.0													BlockHappyPreview	
	1	524.897	0.012	601.891				1.343												848.0	BlockStartHappiness	
	1	530.129	0.011	607.123				-0.001								5.0		6.016	536.145		ScanWait	
	2	0.019	0.019	613.158				10.0													GetReady	
28.0	2	10.032	0.013	623.171	1.0	1.0	29.134	3.0	70.0	5.0	Certain	8.3	-4.93	0.0	No	4.0	-13.2312925170068	1.482	11.514		GetAnswer	Gain
28.0	2	11.537	0.023	624.676	1.0	1.0	29.134	4.0	70.0	5.0	Certain	8.3	-4.93	0.0	No		-13.2312925170068				ShowChoice	Gain
28.0	2	15.549	0.012	628.688	1.0	1.0	29.134	1.0	70.0	5.0	Certain	8.3	-4.93	0.0	No		-13.2312925170068				ShowResult	Gain
28.0	2	16.569	0.02	629.708	1.0	1.0	29.134	3.575	70.0	5.0	Certain	8.3	-4.93	0.0	No		-13.2312925170068				ISITrial	Gain
29.0	2	20.163	0.019	633.302	1.0	1.0	29.259	3.0	70.0	1.82	Certain	-5.41	8.7	3529.0	Yes	4.0	-14.1133786848073	1.259	21.422		GetAnswer	Gain
29.0	2	21.433	0.011	634.572	1.0	1.0	29.259	4.0	70.0	1.82	Certain	-5.41	8.7	3529.0	Yes		-14.1133786848073				ShowChoice	Gain
29.0	2	25.445	0.012	638.584	1.0	1.0	29.259	1.0	70.0	1.82	Certain	-5.41	8.7	3529.0	Yes		-14.1133786848073				ShowResult	Gain
29.0	2	26.465	0.02	639.604	1.0	1.0	29.259	3.955	70.0	1.82	Certain	-5.41	8.7	3529.0	Yes		-14.1133786848073				ISITrial	Gain
29.0	2	33.987	0.015	647.126	1.0	1.0	29.259	1.177	70.0	1.82	Certain	-5.41	8.7	3529.0	Yes		-14.1133786848073			800.0	TrialHappiness	Gain
29.0	2	37.999	4.012	651.138	1.0	1.0	29.259	6.116	70.0	1.82	Certain	-5.41	8.7	3529.0	Yes		-14.1133786848073				ISIRate	Gain
30.0	2	44.134	0.019	657.273	0.0	0.0	29.259	3.0	70.0	1.82	Certain	6.7	-7.48	0.0	No	4.0	-14.179138321995499	1.29	45.424		GetAnswer	Gain
30.0	2	45.438	0.014	658.577	0.0	0.0	29.259	4.0	70.0	1.82	Certain	6.7	-7.48	0.0	No		-14.179138321995499				ShowChoice	Gain
30.0	2	49.45	0.012	662.589	0.0	0.0	29.259	1.0	70.0	1.82	Certain	6.7	-7.48	0.0	No		-14.179138321995499				ShowResult	Gain
30.0	2	50.47	0.02	663.609	0.0	0.0	29.259	4.453	70.0	1.82	Certain	6.7	-7.48	0.0	No		-14.179138321995499				ISITrial	Gain
31.0	2	54.95	0.027	668.089	2.0	2.0	29.509	3.0	70.0	2.8	Certain	-5.51	9.5	2503.25	Yes	4.0	-15.0068027210884	1.278	56.228		GetAnswer	Gain
31.0	2	56.254	0.026	669.393	2.0	2.0	29.509	4.0	70.0	2.8	Certain	-5.51	9.5	2503.25	Yes		-15.0068027210884				ShowChoice	Gain
31.0	2	60.266	0.012	673.405	2.0	2.0	29.509	1.0	70.0	2.8	Certain	-5.51	9.5	2503.25	Yes		-15.0068027210884				ShowResult	Gain
31.0	2	61.286	0.02	674.425	2.0	2.0	29.509	4.786	70.0	2.8	Certain	-5.51	9.5	2503.25	Yes		-15.0068027210884				ISITrial	Gain
31.0	2	68.608	0.022	681.747	2.0	2.0	29.509	1.259	70.0	2.8	Certain	-5.51	9.5	2503.25	Yes	2{-2}	-15.0068027210884	1.259	69.867	816.0	TrialHappiness	Gain
31.0	2	72.62	4.012	685.759	2.0	2.0	29.509	2.013	70.0	2.8	Certain	-5.51	9.5	2503.25	Yes		-15.0068027210884				ISIRate	Gain
32.0	2	74.659	0.026	687.798	-2.6	-2.6	29.184	3.0	70.0	2.0	Certain	-5.21	10.9	0.0	No	4.0	-16.1065759637188	1.811	76.47		GetAnswer	Loss
32.0	2	76.481	0.011	689.62	-2.6	-2.6	29.184	4.0	70.0	2.0	Certain	-5.21	10.9	0.0	No		-16.1065759637188				ShowChoice	Loss
32.0	2	80.493	0.012	693.632	-2.6	-2.6	29.184	1.0	70.0	2.0	Certain	-5.21	10.9	0.0	No		-16.1065759637188				ShowResult	Loss
32.0	2	81.513	0.02	694.652	-2.6	-2.6	29.184	2.0	70.0	2.0	Certain	-5.21	10.9	0.0	No		-16.1065759637188				ISITrial	Loss
33.0	2	83.536	0.023	696.675	-2.0	-2.0	28.934	3.0	70.0	0.66	Certain	-3.57	-0.18	0.0	No	4.0	3.38624338624339	1.854	85.39		GetAnswer	Mixed
33.0	2	85.408	0.018	698.547	-2.0	-2.0	28.934	4.0	70.0	0.66	Certain	-3.57	-0.18	0.0	No		3.38624338624339				ShowChoice	Mixed
33.0	2	89.42	0.012	702.559	-2.0	-2.0	28.934	1.0	70.0	0.66	Certain	-3.57	-0.18	0.0	No		3.38624338624339				ShowResult	Mixed
33.0	2	90.44	0.02	703.579	-2.0	-2.0	28.934	5.099	70.0	0.66	Certain	-3.57	-0.18	0.0	No		3.38624338624339				ISITrial	Mixed
34.0	2	95.555	0.016	708.694	-1.0	-1.0	28.809	3.0	70.0	2.0	Certain	0.08	-3.38	3231.5	Yes	4.0	3.4567271352985602	1.687	97.242		GetAnswer	Mixed
34.0	2	97.26	0.018	710.399	-1.0	-1.0	28.809	4.0	70.0	2.0	Certain	0.08	-3.38	3231.5	Yes		3.4567271352985602				ShowChoice	Mixed
34.0	2	101.272	0.012	714.411	-1.0	-1.0	28.809	1.0	70.0	2.0	Certain	0.08	-3.38	3231.5	Yes		3.4567271352985602				ShowResult	Mixed
34.0	2	102.292	0.02	715.431	-1.0	-1.0	28.809	4.784	70.0	2.0	Certain	0.08	-3.38	3231.5	Yes		3.4567271352985602				ISITrial	Mixed
34.0	2	110.349	0.028	723.488	-1.0	-1.0	28.809	1.261	70.0	2.0	Certain	0.08	-3.38	3231.5	Yes		3.4567271352985602			824.0	TrialHappiness	Mixed
34.0	2	114.361	4.012	727.5	-1.0	-1.0	28.809	4.926	70.0	2.0	Certain	0.08	-3.38	3231.5	Yes		3.4567271352985602				ISIRate	Mixed
35.0	2	119.309	0.022	732.448	-2.0	-2.0	28.559	3.0	70.0	2.48	Certain	7.3	-11.48	0.0	No	4.0	-18.7800453514739	1.348	120.657		GetAnswer	Gain
35.0	2	120.68	0.023	733.819	-2.0	-2.0	28.559	4.0	70.0	2.48	Certain	7.3	-11.48	0.0	No		-18.7800453514739				ShowChoice	Gain
35.0	2	124.692	0.012	737.831	-2.0	-2.0	28.559	1.0	70.0	2.48	Certain	7.3	-11.48	0.0	No		-18.7800453514739				ShowResult	Gain
35.0	2	125.712	0.02	738.851	-2.0	-2.0	28.559	2.098	70.0	2.48	Certain	7.3	-11.48	0.0	No		-18.7800453514739				ISITrial	Gain
36.0	2	127.835	0.025	740.974	-5.0	-5.0	27.934	3.0	70.0	1.82	Certain	-14.93	4.7	3335.75	Yes	4.0	-19.6349206349206	1.612	129.447		GetAnswer	Gain
36.0	2	129.473	0.026	742.612	-5.0	-5.0	27.934	4.0	70.0	1.82	Certain	-14.93	4.7	3335.75	Yes		-19.6349206349206				ShowChoice	Gain
36.0	2	133.485	0.012	746.624	-5.0	-5.0	27.934	1.0	70.0	1.82	Certain	-14.93	4.7	3335.75	Yes		-19.6349206349206				ShowResult	Gain
36.0	2	134.505	0.02	747.644	-5.0	-5.0	27.934	5.156	70.0	1.82	Certain	-14.93	4.7	3335.75	Yes		-19.6349206349206				ISITrial	Gain
36.0	2	143.047	0.024	756.186	-5.0	-5.0	27.934	2.8	70.0	1.82	Certain	-14.93	4.7	3335.75	Yes		-19.6349206349206			824.0	TrialHappiness	Gain
36.0	2	147.059	4.012	760.198	-5.0	-5.0	27.934	5.343	70.0	1.82	Certain	-14.93	4.7	3335.75	Yes		-19.6349206349206				ISIRate	Gain
37.0	2	152.425	0.023	765.564	0.0	0.0	27.934	3.0	70.0	4.2	Certain	-10.39	10.1	0.0	No	4.0	-20.4897959183673	1.306	153.731		GetAnswer	Gain
37.0	2	153.745	0.014	766.884	0.0	0.0	27.934	4.0	70.0	4.2	Certain	-10.39	10.1	0.0	No		-20.4897959183673				ShowChoice	Gain
37.0	2	157.757	0.012	770.896	0.0	0.0	27.934	1.0	70.0	4.2	Certain	-10.39	10.1	0.0	No		-20.4897959183673				ShowResult	Gain
37.0	2	158.777	0.02	771.916	0.0	0.0	27.934	3.598	70.0	4.2	Certain	-10.39	10.1	0.0	No		-20.4897959183673				ISITrial	Gain
38.0	2	162.405	0.03	775.544	-2.0	-2.0	27.684	3.0	70.0	0.2	Certain	-3.65	0.12	0.0	No	4.0	3.77343159486017	1.681	164.086		GetAnswer	Mixed
38.0	2	164.11	0.024	777.249	-2.0	-2.0	27.684	4.0	70.0	0.2	Certain	-3.65	0.12	0.0	No		3.77343159486017				ShowChoice	Mixed
38.0	2	168.122	0.012	781.261	-2.0	-2.0	27.684	1.0	70.0	0.2	Certain	-3.65	0.12	0.0	No		3.77343159486017				ShowResult	Mixed
38.0	2	169.141	0.019	782.28	-2.0	-2.0	27.684	4.787	70.0	0.2	Certain	-3.65	0.12	0.0	No		3.77343159486017				ISITrial	Mixed
39.0	2	173.956	0.028	787.095	-9.0	-9.0	26.559	3.0	70.0	2.0	Certain	2.3	-19.9	2864.25	Yes	4.0	-22.1995464852608	1.808	175.764		GetAnswer	Mixed
39.0	2	175.778	0.014	788.917	-9.0	-9.0	26.559	4.0	70.0	2.0	Certain	2.3	-19.9	2864.25	Yes		-22.1995464852608				ShowChoice	Mixed
39.0	2	179.79	0.012	792.929	-9.0	-9.0	26.559	1.0	70.0	2.0	Certain	2.3	-19.9	2864.25	Yes		-22.1995464852608				ShowResult	Mixed
39.0	2	180.81	0.02	793.949	-9.0	-9.0	26.559	2.348	70.0	2.0	Certain	2.3	-19.9	2864.25	Yes		-22.1995464852608				ISITrial	Mixed
39.0	2	186.075	0.028	799.214	-9.0	-9.0	26.559	1.596	70.0	2.0	Certain	2.3	-19.9	2864.25	Yes		-22.1995464852608			776.0	TrialHappiness	Mixed
39.0	2	190.087	4.012	803.226	-9.0	-9.0	26.559	3.457	70.0	2.0	Certain	2.3	-19.9	2864.25	Yes		-22.1995464852608				ISIRate	Mixed
40.0	2	193.565	0.021	806.704	0.0	0.0	26.559	3.0	70.0	1.82	Certain	10.7	-11.54	0.0	No	4.0	-22.238095238095198	1.275	194.84		GetAnswer	Loss
40.0	2	194.852	0.012	807.991	0.0	0.0	26.559	4.0	70.0	1.82	Certain	10.7	-11.54	0.0	No		-22.238095238095198				ShowChoice	Loss
40.0	2	198.864	0.012	812.003	0.0	0.0	26.559	1.0	70.0	1.82	Certain	10.7	-11.54	0.0	No		-22.238095238095198				ShowResult	Loss
40.0	2	199.883	0.019	813.022	0.0	0.0	26.559	3.158	70.0	1.82	Certain	10.7	-11.54	0.0	No		-22.238095238095198				ISITrial	Loss
41.0	2	203.06	0.019	816.199	-2.0	-2.0	26.309	3.0	70.0	0.2	Certain	-4.17	-0.38	4000.0	Yes	4.0	3.78760393046107	2.196	205.256		GetAnswer	Mixed
41.0	2	205.283	0.027	818.422	-2.0	-2.0	26.309	4.0	70.0	0.2	Certain	-4.17	-0.38	4000.0	Yes		3.78760393046107				ShowChoice	Mixed
41.0	2	209.295	0.012	822.434	-2.0	-2.0	26.309	1.0	70.0	0.2	Certain	-4.17	-0.38	4000.0	Yes		3.78760393046107				ShowResult	Mixed
41.0	2	210.315	0.02	823.454	-2.0	-2.0	26.309	4.506	70.0	0.2	Certain	-4.17	-0.38	4000.0	Yes		3.78760393046107				ISITrial	Mixed
41.0	2	218.874	0.029	832.013	-2.0	-2.0	26.309	1.143	70.0	0.2	Certain	-4.17	-0.38	4000.0	Yes		3.78760393046107			792.0	TrialHappiness	Mixed
41.0	2	222.886	4.012	836.025	-2.0	-2.0	26.309	8.0	70.0	0.2	Certain	-4.17	-0.38	4000.0	Yes		3.78760393046107				ISIRate	Mixed
42.0	2	230.91	0.024	844.049	-1.0	-1.0	26.184	3.0	70.0	0.66	Certain	-3.6	0.32	0.0	No	4.0	3.91931216931217	1.097	232.007		GetAnswer	Mixed
42.0	2	232.03	0.023	845.169	-1.0	-1.0	26.184	4.0	70.0	0.66	Certain	-3.6	0.32	0.0	No		3.91931216931217				ShowChoice	Mixed
42.0	2	236.042	0.012	849.181	-1.0	-1.0	26.184	1.0	70.0	0.66	Certain	-3.6	0.32	0.0	No		3.91931216931217				ShowResult	Mixed
42.0	2	237.061	0.019	850.2	-1.0	-1.0	26.184	6.248	70.0	0.66	Certain	-3.6	0.32	0.0	No		3.91931216931217				ISITrial	Mixed
43.0	2	243.33	0.021	856.469	1.0	1.0	26.309	3.0	70.0	3.6	Certain	2.98	-1.01	2775.75	Yes	4.0	3.9875283446711998	1.517	244.847		GetAnswer	Loss
43.0	2	244.868	0.021	858.007	1.0	1.0	26.309	4.0	70.0	3.6	Certain	2.98	-1.01	2775.75	Yes		3.9875283446711998				ShowChoice	Loss
43.0	2	248.88	0.012	862.019	1.0	1.0	26.309	1.0	70.0	3.6	Certain	2.98	-1.01	2775.75	Yes		3.9875283446711998				ShowResult	Loss
43.0	2	249.9	0.02	863.039	1.0	1.0	26.309	4.596	70.0	3.6	Certain	2.98	-1.01	2775.75	Yes		3.9875283446711998				ISITrial	Loss
43.0	2	257.305	0.016	870.444	1.0	1.0	26.309	1.193	70.0	3.6	Certain	2.98	-1.01	2775.75	Yes		3.9875283446711998			792.0	TrialHappiness	Loss
43.0	2	261.317	4.012	874.456	1.0	1.0	26.309	3.103	70.0	3.6	Certain	2.98	-1.01	2775.75	Yes		3.9875283446711998				ISIRate	Loss
44.0	2	264.443	0.023	877.582	-10.0	-10.0	25.059	3.0	70.0	0.2	Certain	-23.25	2.5	0.0	No	4.0	-25.7482993197279	1.824	266.267		GetAnswer	Mixed
44.0	2	266.282	0.015	879.421	-10.0	-10.0	25.059	4.0	70.0	0.2	Certain	-23.25	2.5	0.0	No		-25.7482993197279				ShowChoice	Mixed
44.0	2	270.294	0.012	883.433	-10.0	-10.0	25.059	1.0	70.0	0.2	Certain	-23.25	2.5	0.0	No		-25.7482993197279				ShowResult	Mixed
44.0	2	271.314	0.02	884.453	-10.0	-10.0	25.059	2.42	70.0	0.2	Certain	-23.25	2.5	0.0	No		-25.7482993197279				ISITrial	Mixed
45.0	2	273.754	0.02	886.893	-7.0	-7.0	24.184	3.0	70.0	3.6	Certain	5.9	-20.67	0.0	No	4.0	-26.5668934240363	1.52	275.274		GetAnswer	Gain
45.0	2	275.292	0.018	888.431	-7.0	-7.0	24.184	4.0	70.0	3.6	Certain	5.9	-20.67	0.0	No		-26.5668934240363				ShowChoice	Gain
45.0	2	279.304	0.012	892.443	-7.0	-7.0	24.184	1.0	70.0	3.6	Certain	5.9	-20.67	0.0	No		-26.5668934240363				ShowResult	Gain
45.0	2	280.324	0.02	893.463	-7.0	-7.0	24.184	3.144	70.0	3.6	Certain	5.9	-20.67	0.0	No		-26.5668934240363				ISITrial	Gain
46.0	2	283.483	0.015	896.622	-5.0	-5.0	23.559	3.0	70.0	1.68	Certain	8.5	-18.89	3841.25	Yes	4.0	-27.385487528344697	1.74	285.223		GetAnswer	Gain
46.0	2	285.239	0.016	898.378	-5.0	-5.0	23.559	4.0	70.0	1.68	Certain	8.5	-18.89	3841.25	Yes		-27.385487528344697				ShowChoice	Gain
46.0	2	289.251	0.012	902.39	-5.0	-5.0	23.559	1.0	70.0	1.68	Certain	8.5	-18.89	3841.25	Yes		-27.385487528344697				ShowResult	Gain
46.0	2	290.27	0.019	903.409	-5.0	-5.0	23.559	2.246	70.0	1.68	Certain	8.5	-18.89	3841.25	Yes		-27.385487528344697				ISITrial	Gain
46.0	2	296.389	0.021	909.528	-5.0	-5.0	23.559	1.829	70.0	1.68	Certain	8.5	-18.89	3841.25	Yes	2{-2}4{-4}	-27.385487528344697	1.829	298.218	768.0	TrialHappiness	Gain
46.0	2	300.401	4.012	913.54	-5.0	-5.0	23.559	7.365	70.0	1.68	Certain	8.5	-18.89	3841.25	Yes		-27.385487528344697				ISIRate	Gain
47.0	2	307.789	0.023	920.928	-12.0	-12.0	22.059	3.0	70.0	1.0	Certain	-26.1	1.7	0.0	No	4.0	-27.795918367346896	1.402	309.191		GetAnswer	Mixed
47.0	2	309.21	0.019	922.349	-12.0	-12.0	22.059	4.0	70.0	1.0	Certain	-26.1	1.7	0.0	No		-27.795918367346896				ShowChoice	Mixed
47.0	2	313.222	0.012	926.361	-12.0	-12.0	22.059	1.0	70.0	1.0	Certain	-26.1	1.7	0.0	No		-27.795918367346896				ShowResult	Mixed
47.0	2	314.242	0.02	927.381	-12.0	-12.0	22.059	2.0	70.0	1.0	Certain	-26.1	1.7	0.0	No		-27.795918367346896				ISITrial	Mixed
48.0	2	316.265	0.023	929.404	1.0	1.0	22.184	3.0	70.0	2.8	Certain	-0.85	3.38	2831.75	Yes	4.0	4.2288359788359795	1.618	317.883		GetAnswer	Loss
48.0	2	317.903	0.02	931.042	1.0	1.0	22.184	4.0	70.0	2.8	Certain	-0.85	3.38	2831.75	Yes		4.2288359788359795				ShowChoice	Loss
48.0	2	321.915	0.012	935.054	1.0	1.0	22.184	1.0	70.0	2.8	Certain	-0.85	3.38	2831.75	Yes		4.2288359788359795				ShowResult	Loss
48.0	2	322.935	0.02	936.074	1.0	1.0	22.184	3.692	70.0	2.8	Certain	-0.85	3.38	2831.75	Yes		4.2288359788359795				ISITrial	Loss
48.0	2	329.504	0.026	942.643	1.0	1.0	22.184	1.227	70.0	2.8	Certain	-0.85	3.38	2831.75	Yes		4.2288359788359795			840.0	TrialHappiness	Loss
48.0	2	333.516	4.012	946.655	1.0	1.0	22.184	3.327	70.0	2.8	Certain	-0.85	3.38	2831.75	Yes		4.2288359788359795				ISIRate	Loss
49.0	2	336.86	0.017	949.999	-16.0	-16.0	20.184	3.0	70.0	0.3	Certain	-31.9	-1.3	0.0	No	4.0	-30.6031746031746	1.3	338.16		GetAnswer	Mixed
49.0	2	338.18	0.02	951.319	-16.0	-16.0	20.184	4.0	70.0	0.3	Certain	-31.9	-1.3	0.0	No		-30.6031746031746				ShowChoice	Mixed
49.0	2	342.192	0.012	955.331	-16.0	-16.0	20.184	1.0	70.0	0.3	Certain	-31.9	-1.3	0.0	No		-30.6031746031746				ShowResult	Mixed
49.0	2	343.212	0.02	956.351	-16.0	-16.0	20.184	8.0	70.0	0.3	Certain	-31.9	-1.3	0.0	No		-30.6031746031746				ISITrial	Mixed
50.0	2	351.236	0.024	964.375	-14.0	-14.0	18.434	3.0	70.0	0.52	Certain	-30.38	1.1	3547.25	Yes	4.0	-31.4761904761905	1.447	352.683		GetAnswer	Mixed
50.0	2	352.707	0.024	965.846	-14.0	-14.0	18.434	4.0	70.0	0.52	Certain	-30.38	1.1	3547.25	Yes		-31.4761904761905				ShowChoice	Mixed
50.0	2	356.719	0.012	969.858	-14.0	-14.0	18.434	1.0	70.0	0.52	Certain	-30.38	1.1	3547.25	Yes		-31.4761904761905				ShowResult	Mixed
50.0	2	357.739	0.02	970.878	-14.0	-14.0	18.434	7.537	70.0	0.52	Certain	-30.38	1.1	3547.25	Yes		-31.4761904761905				ISITrial	Mixed
50.0	2	368.872	0.03	982.011	-14.0	-14.0	18.434	1.11	70.0	0.52	Certain	-30.38	1.1	3547.25	Yes		-31.4761904761905			768.0	TrialHappiness	Mixed
50.0	2	372.884	4.012	986.023	-14.0	-14.0	18.434	6.189	70.0	0.52	Certain	-30.38	1.1	3547.25	Yes		-31.4761904761905				ISIRate	Mixed
51.0	2	379.103	0.03	992.242	0.0	0.0	18.434	3.0	70.0	2.48	Certain	2.82	-1.62	0.0	No	4.0	4.44028722600151	1.52	380.623		GetAnswer	Loss
51.0	2	380.641	0.018	993.78	0.0	0.0	18.434	4.0	70.0	2.48	Certain	2.82	-1.62	0.0	No		4.44028722600151				ShowChoice	Loss
51.0	2	384.653	0.012	997.792	0.0	0.0	18.434	1.0	70.0	2.48	Certain	2.82	-1.62	0.0	No		4.44028722600151				ShowResult	Loss
51.0	2	385.672	0.019	998.811	0.0	0.0	18.434	5.508	70.0	2.48	Certain	2.82	-1.62	0.0	No		4.44028722600151				ISITrial	Loss
52.0	2	391.205	0.025	1004.344	-2.0	-2.0	18.184	3.0	70.0	2.48	Certain	-18.62	13.3	0.0	No	4.0	-31.916099773242603	1.591	392.796		GetAnswer	Loss
52.0	2	392.81	0.014	1005.949	-2.0	-2.0	18.184	4.0	70.0	2.48	Certain	-18.62	13.3	0.0	No		-31.916099773242603				ShowChoice	Loss
52.0	2	396.822	0.012	1009.961	-2.0	-2.0	18.184	1.0	70.0	2.48	Certain	-18.62	13.3	0.0	No		-31.916099773242603				ShowResult	Loss
52.0	2	397.842	0.02	1010.981	-2.0	-2.0	18.184	5.913	70.0	2.48	Certain	-18.62	13.3	0.0	No		-31.916099773242603				ISITrial	Loss
53.0	2	403.776	0.021	1016.915	-3.0	-3.0	17.809	3.0	70.0	2.0	Certain	-19.81	12.9	2996.75	Yes	4.0	-32.7074829931973	1.094	404.87		GetAnswer	Loss
53.0	2	404.896	0.026	1018.035	-3.0	-3.0	17.809	4.0	70.0	2.0	Certain	-19.81	12.9	2996.75	Yes		-32.7074829931973				ShowChoice	Loss
53.0	2	408.908	0.012	1022.047	-3.0	-3.0	17.809	1.0	70.0	2.0	Certain	-19.81	12.9	2996.75	Yes		-32.7074829931973				ShowResult	Loss
53.0	2	409.928	0.02	1023.067	-3.0	-3.0	17.809	3.66	70.0	2.0	Certain	-19.81	12.9	2996.75	Yes		-32.7074829931973				ISITrial	Loss
53.0	2	416.631	0.028	1029.77	-3.0	-3.0	17.809	1.261	70.0	2.0	Certain	-19.81	12.9	2996.75	Yes		-32.7074829931973			832.0	TrialHappiness	Loss
53.0	2	420.643	4.012	1033.782	-3.0	-3.0	17.809	3.987	70.0	2.0	Certain	-19.81	12.9	2996.75	Yes		-32.7074829931973				ISIRate	Loss
54.0	2	424.655	0.025	1037.794	-1.0	-1.0	17.684	3.0	70.0	3.16	Certain	1.42	-3.48	0.0	No	4.0	4.898148148148151	1.18	425.835		GetAnswer	Gain
54.0	2	425.859	0.024	1038.998	-1.0	-1.0	17.684	4.0	70.0	3.16	Certain	1.42	-3.48	0.0	No		4.898148148148151				ShowChoice	Gain
54.0	2	429.871	0.012	1043.01	-1.0	-1.0	17.684	1.0	70.0	3.16	Certain	1.42	-3.48	0.0	No		4.898148148148151				ShowResult	Gain
54.0	2	430.891	0.02	1044.03	-1.0	-1.0	17.684	8.0	70.0	3.16	Certain	1.42	-3.48	0.0	No		4.898148148148151				ISITrial	Gain
	2	438.915	0.024	1052.054				-0.001								{SPACE}		38.199	477.114		Rest	
	2	477.129	0.015	1090.268				4.0													BlockHappyPreview	
	2	481.141	0.012	1094.28				1.243												808.0	BlockStartHappiness	
	2	486.808	0.014	1099.947				-0.001								5.0		3.66	490.468		ScanWait	
	3	0.018	0.018	1103.625				10.0													GetReady	
55.0	3	10.048	0.03	1113.655	9.1	3.3	18.8215	3.0	955.0	2.22	Outcome1	9.1	6.6	2533.25	Yes	2.0	2.49716874292186	1.453	11.501		GetAnswer	Gain
55.0	3	11.519	0.018	1115.126	9.1	3.3	18.8215	4.0	955.0	2.22	Outcome1	9.1	6.6	2533.25	Yes		2.49716874292186				ShowChoice	Gain
55.0	3	15.531	0.012	1119.138	9.1	3.3	18.8215	1.0	955.0	2.22	Outcome1	9.1	6.6	2533.25	Yes		2.49716874292186				ShowResult	Gain
55.0	3	16.55	0.019	1120.157	9.1	3.3	18.8215	7.709	955.0	2.22	Outcome1	9.1	6.6	2533.25	Yes		2.49716874292186				ISITrial	Gain
55.0	3	26.831	0.025	1130.438	9.1	3.3	18.8215	1.227	955.0	2.22	Outcome1	9.1	6.6	2533.25	Yes		2.49716874292186			776.0	TrialHappiness	Gain
55.0	3	30.843	4.012	1134.45	9.1	3.3	18.8215	2.133	955.0	2.22	Outcome1	9.1	6.6	2533.25	Yes		2.49716874292186				ISIRate	Gain
56.0	3	33.0	0.024	1136.607	0.0	0.0	18.8215	3.0	955.0	0.82	Certain	-1.71	1.5	0.0	No	4.0	3.20724801812005	1.337	34.337		GetAnswer	Mixed
56.0	3	34.354	0.017	1137.961	0.0	0.0	18.8215	4.0	955.0	0.82	Certain	-1.71	1.5	0.0	No		3.20724801812005				ShowChoice	Mixed
56.0	3	38.366	0.012	1141.973	0.0	0.0	18.8215	1.0	955.0	0.82	Certain	-1.71	1.5	0.0	No		3.20724801812005				ShowResult	Mixed
56.0	3	39.385	0.019	1142.992	0.0	0.0	18.8215	4.697	955.0	0.82	Certain	-1.71	1.5	0.0	No		3.20724801812005				ISITrial	Mixed
57.0	3	44.099	0.017	1147.706	9.74	4.87	20.039	3.0	955.0	1.68	Outcome2	10.5	9.74	0.0	No	2.0	-0.757172517931295	1.024	45.123		GetAnswer	Loss
57.0	3	45.136	0.013	1148.743	9.74	4.87	20.039	4.0	955.0	1.68	Outcome2	10.5	9.74	0.0	No		-0.757172517931295				ShowChoice	Loss
57.0	3	49.148	0.012	1152.755	9.74	4.87	20.039	1.0	955.0	1.68	Outcome2	10.5	9.74	0.0	No		-0.757172517931295				ShowResult	Loss
57.0	3	50.168	0.02	1153.775	9.74	4.87	20.039	4.291	955.0	1.68	Outcome2	10.5	9.74	0.0	No		-0.757172517931295				ISITrial	Loss
58.0	3	54.48	0.021	1158.087	7.7	2.04	21.0015	3.0	955.0	3.16	Outcome2	4.09	7.7	3045.75	Yes	2.0	3.61268403171008	0.964	55.444		GetAnswer	Gain
58.0	3	55.467	0.023	1159.074	7.7	2.04	21.0015	4.0	955.0	3.16	Outcome2	4.09	7.7	3045.75	Yes		3.61268403171008				ShowChoice	Gain
58.0	3	59.479	0.012	1163.086	7.7	2.04	21.0015	1.0	955.0	3.16	Outcome2	4.09	7.7	3045.75	Yes		3.61268403171008				ShowResult	Gain
58.0	3	60.498	0.019	1164.105	7.7	2.04	21.0015	2.037	955.0	3.16	Outcome2	4.09	7.7	3045.75	Yes		3.61268403171008				ISITrial	Gain
58.0	3	65.63	0.029	1169.237	7.7	2.04	21.0015	1.813	955.0	3.16	Outcome2	4.09	7.7	3045.75	Yes		3.61268403171008			824.0	TrialHappiness	Gain
58.0	3	69.642	4.012	1173.249	7.7	2.04	21.0015	4.183	955.0	3.16	Outcome2	4.09	7.7	3045.75	Yes		3.61268403171008				ISIRate	Gain
59.0	3	73.855	0.03	1177.462	11.7	5.85	22.464000000000002	3.0	955.0	5.0	Outcome2	12.3	11.7	0.0	No	2.0	-0.5961683654209139	0.91	74.765		GetAnswer	Loss
59.0	3	74.791	0.026	1178.398	11.7	5.85	22.464000000000002	4.0	955.0	5.0	Outcome2	12.3	11.7	0.0	No		-0.5961683654209139				ShowChoice	Loss
59.0	3	78.803	0.012	1182.41	11.7	5.85	22.464000000000002	1.0	955.0	5.0	Outcome2	12.3	11.7	0.0	No		-0.5961683654209139				ShowResult	Loss
59.0	3	79.823	0.02	1183.43	11.7	5.85	22.464000000000002	5.064	955.0	5.0	Outcome2	12.3	11.7	0.0	No		-0.5961683654209139				ISITrial	Loss
60.0	3	84.905	0.018	1188.512	11.7	4.28	23.9265	3.0	955.0	3.16	Outcome2	8.55	11.7	3562.5	Yes	2.0	3.14835787089468	0.919	85.824		GetAnswer	Loss
60.0	3	85.841	0.017	1189.448	11.7	4.28	23.9265	4.0	955.0	3.16	Outcome2	8.55	11.7	3562.5	Yes		3.14835787089468				ShowChoice	Loss
60.0	3	89.853	0.012	1193.46	11.7	4.28	23.9265	1.0	955.0	3.16	Outcome2	8.55	11.7	3562.5	Yes		3.14835787089468				ShowResult	Loss
60.0	3	90.873	0.02	1194.48	11.7	4.28	23.9265	8.0	955.0	3.16	Outcome2	8.55	11.7	3562.5	Yes		3.14835787089468				ISITrial	Loss
60.0	3	102.491	0.032	1206.098	11.7	4.28	23.9265	1.193	955.0	3.16	Outcome2	8.55	11.7	3562.5	Yes		3.14835787089468			792.0	TrialHappiness	Loss
60.0	3	106.503	4.012	1210.11	11.7	4.28	23.9265	6.25	955.0	3.16	Outcome2	8.55	11.7	3562.5	Yes		3.14835787089468				ISIRate	Loss
61.0	3	112.771	0.018	1216.378	-1.0	-1.0	23.8015	3.0	955.0	0.4	Certain	0.9	-2.94	0.0	No	4.0	3.84031710079275	1.335	114.106		GetAnswer	Mixed
61.0	3	114.125	0.019	1217.732	-1.0	-1.0	23.8015	4.0	955.0	0.4	Certain	0.9	-2.94	0.0	No		3.84031710079275				ShowChoice	Mixed
61.0	3	118.137	0.012	1221.744	-1.0	-1.0	23.8015	1.0	955.0	0.4	Certain	0.9	-2.94	0.0	No		3.84031710079275				ShowResult	Mixed
61.0	3	119.157	0.02	1222.764	-1.0	-1.0	23.8015	4.586	955.0	0.4	Certain	0.9	-2.94	0.0	No		3.84031710079275				ISITrial	Mixed
62.0	3	123.771	0.028	1227.378	9.3	2.64	24.964000000000002	3.0	955.0	2.48	Outcome2	5.28	9.3	3748.75	Yes	2.0	4.02491506228766	1.118	124.889		GetAnswer	Gain
62.0	3	124.908	0.019	1228.515	9.3	2.64	24.964000000000002	4.0	955.0	2.48	Outcome2	5.28	9.3	3748.75	Yes		4.02491506228766				ShowChoice	Gain
62.0	3	128.92	0.012	1232.527	9.3	2.64	24.964000000000002	1.0	955.0	2.48	Outcome2	5.28	9.3	3748.75	Yes		4.02491506228766				ShowResult	Gain
62.0	3	129.939	0.019	1233.546	9.3	2.64	24.964000000000002	5.212	955.0	2.48	Outcome2	5.28	9.3	3748.75	Yes		4.02491506228766				ISITrial	Gain
62.0	3	138.95	0.029	1242.557	9.3	2.64	24.964000000000002	1.21	955.0	2.48	Outcome2	5.28	9.3	3748.75	Yes		4.02491506228766			824.0	TrialHappiness	Gain
62.0	3	142.962	4.012	1246.569	9.3	2.64	24.964000000000002	6.995	955.0	2.48	Outcome2	5.28	9.3	3748.75	Yes		4.02491506228766				ISIRate	Gain
63.0	3	149.983	0.026	1253.59	0.0	0.0	24.964000000000002	3.0	955.0	1.2	Certain	-0.1	-0.75	0.0	No	4.0	-0.65166100415251	1.034	151.017		GetAnswer	Mixed
63.0	3	151.036	0.019	1254.643	0.0	0.0	24.964000000000002	4.0	955.0	1.2	Certain	-0.1	-0.75	0.0	No		-0.65166100415251				ShowChoice	Mixed
63.0	3	155.048	0.012	1258.655	0.0	0.0	24.964000000000002	1.0	955.0	1.2	Certain	-0.1	-0.75	0.0	No		-0.65166100415251				ShowResult	Mixed
63.0	3	156.068	0.02	1259.675	0.0	0.0	24.964000000000002	5.595	955.0	1.2	Certain	-0.1	-0.75	0.0	No		-0.65166100415251				ISITrial	Mixed
64.0	3	161.684	0.021	1265.291	-1.0	-1.0	24.839000000000002	3.0	955.0	0.3	Certain	-3.11	0.7	0.0	No	4.0	3.81426953567384	1.146	162.83		GetAnswer	Mixed
64.0	3	162.854	0.024	1266.461	-1.0	-1.0	24.839000000000002	4.0	955.0	0.3	Certain	-3.11	0.7	0.0	No		3.81426953567384				ShowChoice	Mixed
64.0	3	166.866	0.012	1270.473	-1.0	-1.0	24.839000000000002	1.0	955.0	0.3	Certain	-3.11	0.7	0.0	No		3.81426953567384				ShowResult	Mixed
64.0	3	167.886	0.02	1271.493	-1.0	-1.0	24.839000000000002	5.47	955.0	0.3	Certain	-3.11	0.7	0.0	No		3.81426953567384				ISITrial	Mixed
65.0	3	173.386	0.03	1276.993	1.0	1.0	24.964000000000002	3.0	955.0	1.0	Certain	-0.26	3.7	2996.75	Yes	4.0	3.96262740656852	1.547	174.933		GetAnswer	Mixed
65.0	3	174.957	0.024	1278.564	1.0	1.0	24.964000000000002	4.0	955.0	1.0	Certain	-0.26	3.7	2996.75	Yes		3.96262740656852				ShowChoice	Mixed
65.0	3	178.969	0.012	1282.576	1.0	1.0	24.964000000000002	1.0	955.0	1.0	Certain	-0.26	3.7	2996.75	Yes		3.96262740656852				ShowResult	Mixed
65.0	3	179.989	0.02	1283.596	1.0	1.0	24.964000000000002	3.344	955.0	1.0	Certain	-0.26	3.7	2996.75	Yes		3.96262740656852				ISITrial	Mixed
65.0	3	186.375	0.029	1289.982	1.0	1.0	24.964000000000002	1.143	955.0	1.0	Certain	-0.26	3.7	2996.75	Yes		3.96262740656852			792.0	TrialHappiness	Mixed
65.0	3	190.387	4.012	1293.994	1.0	1.0	24.964000000000002	3.987	955.0	1.0	Certain	-0.26	3.7	2996.75	Yes		3.96262740656852				ISIRate	Mixed
66.0	3	194.399	0.025	1298.006	-2.0	-2.0	24.714000000000002	3.0	955.0	1.0	Certain	-4.95	-0.3	0.0	No	4.0	4.65458663646659	1.299	195.698		GetAnswer	Mixed
66.0	3	195.719	0.021	1299.326	-2.0	-2.0	24.714000000000002	4.0	955.0	1.0	Certain	-4.95	-0.3	0.0	No		4.65458663646659				ShowChoice	Mixed
66.0	3	199.731	0.012	1303.338	-2.0	-2.0	24.714000000000002	1.0	955.0	1.0	Certain	-4.95	-0.3	0.0	No		4.65458663646659				ShowResult	Mixed
66.0	3	200.751	0.02	1304.358	-2.0	-2.0	24.714000000000002	3.959	955.0	1.0	Certain	-4.95	-0.3	0.0	No		4.65458663646659				ISITrial	Mixed
67.0	3	204.73	0.02	1308.337	0.0	0.0	24.714000000000002	3.0	955.0	0.3	Certain	2.7	-2.14	2918.5	Yes	4.0	4.8391845979614905	1.117	205.847		GetAnswer	Mixed
67.0	3	205.866	0.019	1309.473	0.0	0.0	24.714000000000002	4.0	955.0	0.3	Certain	2.7	-2.14	2918.5	Yes		4.8391845979614905				ShowChoice	Mixed
67.0	3	209.878	0.012	1313.485	0.0	0.0	24.714000000000002	1.0	955.0	0.3	Certain	2.7	-2.14	2918.5	Yes		4.8391845979614905				ShowResult	Mixed
67.0	3	210.898	0.02	1314.505	0.0	0.0	24.714000000000002	4.199	955.0	0.3	Certain	2.7	-2.14	2918.5	Yes		4.8391845979614905				ISITrial	Mixed
67.0	3	218.053	0.024	1321.66	0.0	0.0	24.714000000000002	1.981	955.0	0.3	Certain	2.7	-2.14	2918.5	Yes		4.8391845979614905			840.0	TrialHappiness	Mixed
67.0	3	222.065	4.012	1325.672	0.0	0.0	24.714000000000002	3.674	955.0	0.3	Certain	2.7	-2.14	2918.5	Yes		4.8391845979614905				ISIRate	Mixed
68.0	3	225.759	0.02	1329.366	2.0	2.0	24.964000000000002	3.0	955.0	1.2	Certain	3.9	-0.31	0.0	No	4.0	4.2083805209513	1.324	227.083		GetAnswer	Mixed
68.0	3	227.097	0.014	1330.704	2.0	2.0	24.964000000000002	4.0	955.0	1.2	Certain	3.9	-0.31	0.0	No		4.2083805209513				ShowChoice	Mixed
68.0	3	231.109	0.012	1334.716	2.0	2.0	24.964000000000002	1.0	955.0	1.2	Certain	3.9	-0.31	0.0	No		4.2083805209513				ShowResult	Mixed
68.0	3	232.128	0.019	1335.735	2.0	2.0	24.964000000000002	2.185	955.0	1.2	Certain	3.9	-0.31	0.0	No		4.2083805209513				ISITrial	Mixed
69.0	3	234.335	0.022	1337.942	12.5	4.08	26.5265	3.0	955.0	1.68	Outcome2	8.16	12.5	0.0	No	2.0	4.3386183465458705	0.971	235.306		GetAnswer	Loss
69.0	3	235.321	0.015	1338.928	12.5	4.08	26.5265	4.0	955.0	1.68	Outcome2	8.16	12.5	0.0	No		4.3386183465458705				ShowChoice	Loss
69.0	3	239.333	0.012	1342.94	12.5	4.08	26.5265	1.0	955.0	1.68	Outcome2	8.16	12.5	0.0	No		4.3386183465458705				ShowResult	Loss
69.0	3	240.353	0.02	1343.96	12.5	4.08	26.5265	2.0	955.0	1.68	Outcome2	8.16	12.5	0.0	No		4.3386183465458705				ISITrial	Loss
70.0	3	242.376	0.023	1345.983	11.5	3.52	27.964000000000002	3.0	955.0	2.8	Outcome1	11.5	7.03	3651.25	Yes	2.0	4.46885617214043	1.102	243.478		GetAnswer	Loss
70.0	3	243.496	0.018	1347.103	11.5	3.52	27.964000000000002	4.0	955.0	2.8	Outcome1	11.5	7.03	3651.25	Yes		4.46885617214043				ShowChoice	Loss
70.0	3	247.508	0.012	1351.115	11.5	3.52	27.964000000000002	1.0	955.0	2.8	Outcome1	11.5	7.03	3651.25	Yes		4.46885617214043				ShowResult	Loss
70.0	3	248.527	0.019	1352.134	11.5	3.52	27.964000000000002	2.623	955.0	2.8	Outcome1	11.5	7.03	3651.25	Yes		4.46885617214043				ISITrial	Loss
70.0	3	254.846	0.026	1358.453	11.5	3.52	27.964000000000002	1.914	955.0	2.8	Outcome1	11.5	7.03	3651.25	Yes		4.46885617214043			800.0	TrialHappiness	Loss
70.0	3	258.858	4.012	1362.465	11.5	3.52	27.964000000000002	6.605	955.0	2.8	Outcome1	11.5	7.03	3651.25	Yes		4.46885617214043				ISIRate	Loss
71.0	3	265.495	0.032	1369.102	13.9	4.31	29.7015	3.0	955.0	3.6	Outcome2	8.62	13.9	0.0	No	2.0	5.278595696489241	0.933	266.428		GetAnswer	Loss
71.0	3	266.448	0.02	1370.055	13.9	4.31	29.7015	4.0	955.0	3.6	Outcome2	8.62	13.9	0.0	No		5.278595696489241				ShowChoice	Loss
71.0	3	270.476	0.028	1374.083	13.9	4.31	29.7015	1.0	955.0	3.6	Outcome2	8.62	13.9	0.0	No		5.278595696489241				ShowResult	Loss
71.0	3	271.496	0.02	1375.103	13.9	4.31	29.7015	5.499	955.0	3.6	Outcome2	8.62	13.9	0.0	No		5.278595696489241				ISITrial	Loss
72.0	3	277.012	0.017	1380.619	11.1	2.82	31.089000000000002	3.0	955.0	2.22	Outcome1	11.1	5.65	3080.5	Yes	2.0	5.45413363533409	0.8	277.812		GetAnswer	Loss
72.0	3	277.832	0.02	1381.439	11.1	2.82	31.089000000000002	4.0	955.0	2.22	Outcome1	11.1	5.65	3080.5	Yes		5.45413363533409				ShowChoice	Loss
72.0	3	281.844	0.012	1385.451	11.1	2.82	31.089000000000002	1.0	955.0	2.22	Outcome1	11.1	5.65	3080.5	Yes		5.45413363533409				ShowResult	Loss
72.0	3	282.863	0.019	1386.47	11.1	2.82	31.089000000000002	5.672	955.0	2.22	Outcome1	11.1	5.65	3080.5	Yes		5.45413363533409				ISITrial	Loss
72.0	3	291.656	0.029	1395.263	11.1	2.82	31.089000000000002	1.344	955.0	2.22	Outcome1	11.1	5.65	3080.5	Yes		5.45413363533409			792.0	TrialHappiness	Loss
72.0	3	295.668	4.012	1399.275	11.1	2.82	31.089000000000002	4.322	955.0	2.22	Outcome1	11.1	5.65	3080.5	Yes		5.45413363533409				ISIRate	Loss
73.0	3	300.015	0.025	1403.622	5.19	2.6	31.7378	3.0	955.0	4.2	Outcome1	5.19	6.1	0.0	No	2.0	-0.911192902982257	0.942	300.957		GetAnswer	Gain
73.0	3	300.984	0.027	1404.591	5.19	2.6	31.7378	4.0	955.0	4.2	Outcome1	5.19	6.1	0.0	No		-0.911192902982257				ShowChoice	Gain
73.0	3	304.996	0.012	1408.603	5.19	2.6	31.7378	1.0	955.0	4.2	Outcome1	5.19	6.1	0.0	No		-0.911192902982257				ShowResult	Gain
73.0	3	306.016	0.02	1409.623	5.19	2.6	31.7378	4.616	955.0	4.2	Outcome1	5.19	6.1	0.0	No		-0.911192902982257				ISITrial	Gain
74.0	3	310.663	0.031	1414.27	4.17	2.08	32.259	3.0	955.0	2.22	Outcome1	4.17	5.1	3056.25	Yes	2.0	-0.926576066440166	0.878	311.541		GetAnswer	Gain
74.0	3	311.566	0.025	1415.173	4.17	2.08	32.259	4.0	955.0	2.22	Outcome1	4.17	5.1	3056.25	Yes		-0.926576066440166				ShowChoice	Gain
74.0	3	315.578	0.012	1419.185	4.17	2.08	32.259	1.0	955.0	2.22	Outcome1	4.17	5.1	3056.25	Yes		-0.926576066440166				ShowResult	Gain
74.0	3	316.597	0.019	1420.204	4.17	2.08	32.259	3.909	955.0	2.22	Outcome1	4.17	5.1	3056.25	Yes		-0.926576066440166				ISITrial	Gain
74.0	3	323.602	0.02	1427.209	4.17	2.08	32.259	1.211	955.0	2.22	Outcome1	4.17	5.1	3056.25	Yes	2{-2}	-0.926576066440166	1.211	324.813	848.0	TrialHappiness	Gain
74.0	3	327.614	4.012	1431.221	4.17	2.08	32.259	4.225	955.0	2.22	Outcome1	4.17	5.1	3056.25	Yes		-0.926576066440166				ISIRate	Gain
75.0	3	331.86	0.021	1435.467	3.39	1.7	32.6828	3.0	955.0	1.5	Outcome1	3.39	4.1	0.0	No	2.0	-0.714703661759154	0.886	332.746		GetAnswer	Mixed
75.0	3	332.762	0.016	1436.369	3.39	1.7	32.6828	4.0	955.0	1.5	Outcome1	3.39	4.1	0.0	No		-0.714703661759154				ShowChoice	Mixed
75.0	3	336.774	0.012	1440.381	3.39	1.7	32.6828	1.0	955.0	1.5	Outcome1	3.39	4.1	0.0	No		-0.714703661759154				ShowResult	Mixed
75.0	3	337.794	0.02	1441.401	3.39	1.7	32.6828	4.979	955.0	1.5	Outcome1	3.39	4.1	0.0	No		-0.714703661759154				ISITrial	Mixed
76.0	3	342.792	0.019	1446.399	1.0	1.0	32.8078	3.0	955.0	2.0	Certain	-1.0	4.3	0.0	No	4.0	5.304643261608151	1.256	344.048		GetAnswer	Mixed
76.0	3	344.063	0.015	1447.67	1.0	1.0	32.8078	4.0	955.0	2.0	Certain	-1.0	4.3	0.0	No		5.304643261608151				ShowChoice	Mixed
76.0	3	348.075	0.012	1451.682	1.0	1.0	32.8078	1.0	955.0	2.0	Certain	-1.0	4.3	0.0	No		5.304643261608151				ShowResult	Mixed
76.0	3	349.095	0.02	1452.702	1.0	1.0	32.8078	3.931	955.0	2.0	Certain	-1.0	4.3	0.0	No		5.304643261608151				ISITrial	Mixed
77.0	3	353.056	0.03	1456.663	2.0	2.0	33.0578	3.0	955.0	2.0	Certain	-0.53	4.9	4000.0	Yes	4.0	5.42582106455266	1.125	354.181		GetAnswer	Gain
77.0	3	354.193	0.012	1457.8	2.0	2.0	33.0578	4.0	955.0	2.0	Certain	-0.53	4.9	4000.0	Yes		5.42582106455266				ShowChoice	Gain
77.0	3	358.205	0.012	1461.812	2.0	2.0	33.0578	1.0	955.0	2.0	Certain	-0.53	4.9	4000.0	Yes		5.42582106455266				ShowResult	Gain
77.0	3	359.225	0.02	1462.832	2.0	2.0	33.0578	7.022	955.0	2.0	Certain	-0.53	4.9	4000.0	Yes		5.42582106455266				ISITrial	Gain
77.0	3	370.291	0.028	1473.898	2.0	2.0	33.0578	1.21	955.0	2.0	Certain	-0.53	4.9	4000.0	Yes		5.42582106455266			792.0	TrialHappiness	Gain
77.0	3	374.303	4.012	1477.91	2.0	2.0	33.0578	8.0	955.0	2.0	Certain	-0.53	4.9	4000.0	Yes		5.42582106455266				ISIRate	Gain
78.0	3	382.327	0.024	1485.934	8.9	1.2	34.1703	3.0	955.0	2.0	Outcome2	2.4	8.9	0.0	No	2.0	6.498301245753111	0.975	383.302		GetAnswer	Gain
78.0	3	383.314	0.012	1486.921	8.9	1.2	34.1703	4.0	955.0	2.0	Outcome2	2.4	8.9	0.0	No		6.498301245753111				ShowChoice	Gain
78.0	3	387.326	0.012	1490.933	8.9	1.2	34.1703	1.0	955.0	2.0	Outcome2	2.4	8.9	0.0	No		6.498301245753111				ShowResult	Gain
78.0	3	388.345	0.019	1491.952	8.9	1.2	34.1703	2.078	955.0	2.0	Outcome2	2.4	8.9	0.0	No		6.498301245753111				ISITrial	Gain
79.0	3	390.452	0.029	1494.059	7.51	3.76	35.1091	3.0	955.0	1.68	Outcome1	7.51	8.5	2729.5	Yes	2.0	-0.98763684409211	0.861	391.313		GetAnswer	Gain
79.0	3	391.338	0.025	1494.945	7.51	3.76	35.1091	4.0	955.0	1.68	Outcome1	7.51	8.5	2729.5	Yes		-0.98763684409211				ShowChoice	Gain
79.0	3	395.35	0.012	1498.957	7.51	3.76	35.1091	1.0	955.0	1.68	Outcome1	7.51	8.5	2729.5	Yes		-0.98763684409211				ShowResult	Gain
79.0	3	396.369	0.019	1499.976	7.51	3.76	35.1091	3.829	955.0	1.68	Outcome1	7.51	8.5	2729.5	Yes		-0.98763684409211				ISITrial	Gain
79.0	3	402.972	0.028	1506.579	7.51	3.76	35.1091	1.311	955.0	1.68	Outcome1	7.51	8.5	2729.5	Yes		-0.98763684409211			848.0	TrialHappiness	Gain
79.0	3	406.984	4.012	1510.591	7.51	3.76	35.1091	2.918	955.0	1.68	Outcome1	7.51	8.5	2729.5	Yes		-0.98763684409211				ISIRate	Gain
80.0	3	409.927	0.025	1513.534	2.0	2.0	35.3591	3.0	955.0	2.8	Certain	-0.42	5.5	0.0	No	4.0	5.916194790486981	1.259	411.186		GetAnswer	Gain
80.0	3	411.197	0.011	1514.804	2.0	2.0	35.3591	4.0	955.0	2.8	Certain	-0.42	5.5	0.0	No		5.916194790486981				ShowChoice	Gain
80.0	3	415.209	0.012	1518.816	2.0	2.0	35.3591	1.0	955.0	2.8	Certain	-0.42	5.5	0.0	No		5.916194790486981				ShowResult	Gain
80.0	3	416.229	0.02	1519.836	2.0	2.0	35.3591	3.336	955.0	2.8	Certain	-0.42	5.5	0.0	No		5.916194790486981				ISITrial	Gain
81.0	3	419.589	0.024	1523.196	12.31	6.16	36.8979	3.0	955.0	2.22	Outcome2	13.1	12.31	3923.75	Yes	2.0	-0.7858625896564742	1.028	420.617		GetAnswer	Loss
81.0	3	420.642	0.025	1524.249	12.31	6.16	36.8979	4.0	955.0	2.22	Outcome2	13.1	12.31	3923.75	Yes		-0.7858625896564742				ShowChoice	Loss
81.0	3	424.654	0.012	1528.261	12.31	6.16	36.8979	1.0	955.0	2.22	Outcome2	13.1	12.31	3923.75	Yes		-0.7858625896564742				ShowResult	Loss
81.0	3	425.674	0.02	1529.281	12.31	6.16	36.8979	3.919	955.0	2.22	Outcome2	13.1	12.31	3923.75	Yes		-0.7858625896564742				ISITrial	Loss
81.0	3	433.564	0.021	1537.171	12.31	6.16	36.8979	1.361	955.0	2.22	Outcome2	13.1	12.31	3923.75	Yes		-0.7858625896564742			840.0	TrialHappiness	Loss
81.0	3	437.576	4.012	1541.183	12.31	6.16	36.8979	7.695	955.0	2.22	Outcome2	13.1	12.31	3923.75	Yes		-0.7858625896564742				ISIRate	Loss
	3	445.299	0.028	1548.906				3.0													CurrentEarnings	
	3	448.325	0.026	1551.932				-0.001								{SPACE}		34.597	482.922		Goodbye	
