trial_number	block	onset	onset_delay	onset_unadjusted	amount_change	certain_amount	current_amount	duration	mood_target	multiplier	outcome	outcome1_amount	outcome2_amount	question_duration	rating	response	rpe	rt	rt_time	slider_response	trial_phase	trial_type
	0	-30.37	0.021	46.424				-0.001								{SPACE}		4.203	-26.167		Welcome	
	0	-26.138	0.029	50.656				5.0													LifeHappyPreview	
	0	-21.107	0.031	55.687				4.906												272.0	LifeHappiness	
	0	-15.858	0.013	60.936				4.0													BlockHappyPreview	
	0	-11.843	0.015	64.951				2.795												412.0	BlockStartHappiness	
	0	-4.079	0.025	72.715				-0.001								5.0					ScanWait	
	1	0.019	0.019	76.813				10.0													GetReady	
1.0	1	10.049	0.03	86.843	4.7	0.0	10.5875	3.0	955.0	1.82	Outcome1	4.7	-4.52	0.0	No	2.0	9.2242355605889	1.554	11.603		GetAnswer	Gain
1.0	1	11.615	0.012	88.409	4.7	0.0	10.5875	4.0	955.0	1.82	Outcome1	4.7	-4.52	0.0	No		9.2242355605889				ShowChoice	Gain
1.0	1	15.631	0.016	92.425	4.7	0.0	10.5875	1.0	955.0	1.82	Outcome1	4.7	-4.52	0.0	No		9.2242355605889				ShowResult	Gain
1.0	1	16.647	0.016	93.441	4.7	0.0	10.5875	2.431	955.0	1.82	Outcome1	4.7	-4.52	0.0	No		9.2242355605889				ISITrial	Gain
2.0	1	19.096	0.018	95.89	0.45	1.0	10.6437	3.0	955.0	0.3	Outcome2	2.7	0.45	0.0	No	2.0	-2.25481313703284	1.679	20.775		GetAnswer	Mixed
2.0	1	20.796	0.021	97.59	0.45	1.0	10.6437	4.0	955.0	0.3	Outcome2	2.7	0.45	0.0	No		-2.25481313703284				ShowChoice	Mixed
2.0	1	24.811	0.015	101.605	0.45	1.0	10.6437	1.0	955.0	0.3	Outcome2	2.7	0.45	0.0	No		-2.25481313703284				ShowResult	Mixed
2.0	1	25.827	0.016	102.621	0.45	1.0	10.6437	4.568	955.0	0.3	Outcome2	2.7	0.45	0.0	No		-2.25481313703284				ISITrial	Mixed
3.0	1	30.426	0.031	107.22	-3.0	-3.0	10.2687	3.0	955.0	1.2	Certain	1.9	-8.55	2868.0	Yes	4.0	10.454133635334099	0.586	31.012		GetAnswer	Mixed
3.0	1	31.025	0.013	107.819	-3.0	-3.0	10.2687	4.0	955.0	1.2	Certain	1.9	-8.55	2868.0	Yes		10.454133635334099				ShowChoice	Mixed
3.0	1	35.041	0.016	111.835	-3.0	-3.0	10.2687	1.0	955.0	1.2	Certain	1.9	-8.55	2868.0	Yes		10.454133635334099				ShowResult	Mixed
3.0	1	36.057	0.016	112.851	-3.0	-3.0	10.2687	3.243	955.0	1.2	Certain	1.9	-8.55	2868.0	Yes		10.454133635334099				ISITrial	Mixed
3.0	1	42.205	0.015	118.999	-3.0	-3.0	10.2687	1.476	955.0	1.2	Certain	1.9	-8.55	2868.0	Yes		10.454133635334099			472.0	TrialHappiness	Mixed
3.0	1	46.22	4.015	123.014	-3.0	-3.0	10.2687	3.472	955.0	1.2	Certain	1.9	-8.55	2868.0	Yes		10.454133635334099				ISIRate	Mixed
4.0	1	49.719	0.027	126.513	-4.0	-4.0	9.7687	3.0	955.0	0.2	Certain	-9.55	0.5	0.0	No	4.0	10.0498301245753	1.315	51.034		GetAnswer	Mixed
4.0	1	51.052	0.018	127.846	-4.0	-4.0	9.7687	4.0	955.0	0.2	Certain	-9.55	0.5	0.0	No		10.0498301245753				ShowChoice	Mixed
4.0	1	55.067	0.015	131.861	-4.0	-4.0	9.7687	1.0	955.0	0.2	Certain	-9.55	0.5	0.0	No		10.0498301245753				ShowResult	Mixed
4.0	1	56.083	0.016	132.877	-4.0	-4.0	9.7687	2.011	955.0	0.2	Certain	-9.55	0.5	0.0	No		10.0498301245753				ISITrial	Mixed
5.0	1	58.116	0.022	134.91	4.54	2.27	10.3362	3.0	955.0	1.82	Outcome2	6.7	4.54	2582.5	Yes	2.0	-2.15939977349943	1.177	59.293		GetAnswer	Gain
5.0	1	59.316	0.023	136.11	4.54	2.27	10.3362	4.0	955.0	1.82	Outcome2	6.7	4.54	2582.5	Yes		-2.15939977349943				ShowChoice	Gain
5.0	1	63.331	0.015	140.125	4.54	2.27	10.3362	1.0	955.0	1.82	Outcome2	6.7	4.54	2582.5	Yes		-2.15939977349943				ShowResult	Gain
5.0	1	64.347	0.016	141.141	4.54	2.27	10.3362	5.129	955.0	1.82	Outcome2	6.7	4.54	2582.5	Yes		-2.15939977349943				ISITrial	Gain
5.0	1	72.094	0.017	148.888	4.54	2.27	10.3362	2.766	955.0	1.82	Outcome2	6.7	4.54	2582.5	Yes		-2.15939977349943			504.0	TrialHappiness	Gain
5.0	1	76.11	4.016	152.904	4.54	2.27	10.3362	2.33	955.0	1.82	Outcome2	6.7	4.54	2582.5	Yes		-2.15939977349943				ISIRate	Gain
6.0	1	78.459	0.019	155.253	-2.0	-2.0	10.0862	3.0	955.0	0.4	Certain	2.9	-7.7	0.0	No	4.0	10.6002265005663	1.476	79.935		GetAnswer	Mixed
6.0	1	79.958	0.023	156.752	-2.0	-2.0	10.0862	4.0	955.0	0.4	Certain	2.9	-7.7	0.0	No		10.6002265005663				ShowChoice	Mixed
6.0	1	83.974	0.016	160.768	-2.0	-2.0	10.0862	1.0	955.0	0.4	Certain	2.9	-7.7	0.0	No		10.6002265005663				ShowResult	Mixed
6.0	1	84.99	0.016	161.784	-2.0	-2.0	10.0862	6.232	955.0	0.4	Certain	2.9	-7.7	0.0	No		10.6002265005663				ISITrial	Mixed
7.0	1	91.238	0.016	168.032	0.0	0.0	10.0862	3.0	955.0	3.16	Certain	5.7	-5.41	0.0	No	4.0	11.1109852774632	0.195	91.433		GetAnswer	Gain
7.0	1	91.454	0.021	168.248	0.0	0.0	10.0862	4.0	955.0	3.16	Certain	5.7	-5.41	0.0	No		11.1109852774632				ShowChoice	Gain
7.0	1	95.47	0.016	172.264	0.0	0.0	10.0862	1.0	955.0	3.16	Certain	5.7	-5.41	0.0	No		11.1109852774632				ShowResult	Gain
7.0	1	96.486	0.016	173.28	0.0	0.0	10.0862	2.305	955.0	3.16	Certain	5.7	-5.41	0.0	No		11.1109852774632				ISITrial	Gain
8.0	1	98.819	0.028	175.613	-4.0	-4.0	9.5862	3.0	955.0	1.0	Certain	1.7	-9.92	3112.5	Yes	4.0	11.621744054360098	1.729	100.548		GetAnswer	Mixed
8.0	1	100.568	0.02	177.362	-4.0	-4.0	9.5862	4.0	955.0	1.0	Certain	1.7	-9.92	3112.5	Yes		11.621744054360098				ShowChoice	Mixed
8.0	1	104.583	0.015	181.377	-4.0	-4.0	9.5862	1.0	955.0	1.0	Certain	1.7	-9.92	3112.5	Yes		11.621744054360098				ShowResult	Mixed
8.0	1	105.6	0.017	182.394	-4.0	-4.0	9.5862	3.506	955.0	1.0	Certain	1.7	-9.92	3112.5	Yes		11.621744054360098				ISITrial	Mixed
8.0	1	112.264	0.02	189.058	-4.0	-4.0	9.5862	3.893	955.0	1.0	Certain	1.7	-9.92	3112.5	Yes		11.621744054360098			440.0	TrialHappiness	Mixed
8.0	1	116.279	4.015	193.073	-4.0	-4.0	9.5862	4.45	955.0	1.0	Certain	1.7	-9.92	3112.5	Yes		11.621744054360098				ISIRate	Mixed
9.0	1	120.761	0.032	197.555	-6.0	-6.0	8.8362	3.0	955.0	0.3	Certain	0.7	-12.52	0.0	No	4.0	13.2197055492639	1.23	121.991		GetAnswer	Mixed
9.0	1	122.011	0.02	198.805	-6.0	-6.0	8.8362	4.0	955.0	0.3	Certain	0.7	-12.52	0.0	No		13.2197055492639				ShowChoice	Mixed
9.0	1	126.026	0.015	202.82	-6.0	-6.0	8.8362	1.0	955.0	0.3	Certain	0.7	-12.52	0.0	No		13.2197055492639				ShowResult	Mixed
9.0	1	127.042	0.016	203.836	-6.0	-6.0	8.8362	2.0	955.0	0.3	Certain	0.7	-12.52	0.0	No		13.2197055492639				ISITrial	Mixed
10.0	1	129.058	0.016	205.852	1.0	1.0	8.9612	3.0	955.0	4.2	Certain	-5.7	8.1	4000.0	Yes	4.0	13.8029445073613	1.151	130.209		GetAnswer	Gain
10.0	1	130.224	0.015	207.018	1.0	1.0	8.9612	4.0	955.0	4.2	Certain	-5.7	8.1	4000.0	Yes		13.8029445073613				ShowChoice	Gain
10.0	1	134.24	0.016	211.034	1.0	1.0	8.9612	1.0	955.0	4.2	Certain	-5.7	8.1	4000.0	Yes		13.8029445073613				ShowResult	Gain
10.0	1	135.256	0.016	212.05	1.0	1.0	8.9612	2.0	955.0	4.2	Certain	-5.7	8.1	4000.0	Yes		13.8029445073613				ISITrial	Gain
10.0	1	141.304	0.032	218.098	1.0	1.0	8.9612	0.473	955.0	4.2	Certain	-5.7	8.1	4000.0	Yes		13.8029445073613			488.0	TrialHappiness	Gain
10.0	1	145.319	4.015	222.113	1.0	1.0	8.9612	8.0	955.0	4.2	Certain	-5.7	8.1	4000.0	Yes		13.8029445073613				ISIRate	Gain
11.0	1	153.35	0.031	230.144	10.1	-1.74	10.2237	3.0	955.0	4.2	Outcome1	10.1	-3.47	0.0	No	2.0	13.5707814269536	1.245	154.595		GetAnswer	Gain
11.0	1	154.616	0.021	231.41	10.1	-1.74	10.2237	4.0	955.0	4.2	Outcome1	10.1	-3.47	0.0	No		13.5707814269536				ShowChoice	Gain
11.0	1	158.631	0.015	235.425	10.1	-1.74	10.2237	1.0	955.0	4.2	Outcome1	10.1	-3.47	0.0	No		13.5707814269536				ShowResult	Gain
11.0	1	159.648	0.017	236.442	10.1	-1.74	10.2237	3.324	955.0	4.2	Outcome1	10.1	-3.47	0.0	No		13.5707814269536				ISITrial	Gain
12.0	1	162.996	0.024	239.79	1.49	2.0	10.4099	3.0	955.0	1.2	Outcome2	3.9	1.49	2618.75	Yes	2.0	-2.4090222725556805	1.74	164.736		GetAnswer	Mixed
12.0	1	164.762	0.026	241.556	1.49	2.0	10.4099	4.0	955.0	1.2	Outcome2	3.9	1.49	2618.75	Yes		-2.4090222725556805				ShowChoice	Mixed
12.0	1	168.778	0.016	245.572	1.49	2.0	10.4099	1.0	955.0	1.2	Outcome2	3.9	1.49	2618.75	Yes		-2.4090222725556805				ShowResult	Mixed
12.0	1	169.794	0.016	246.588	1.49	2.0	10.4099	6.642	955.0	1.2	Outcome2	3.9	1.49	2618.75	Yes		-2.4090222725556805				ISITrial	Mixed
12.0	1	179.107	0.03	255.901	1.49	2.0	10.4099	0.857	955.0	1.2	Outcome2	3.9	1.49	2618.75	Yes		-2.4090222725556805			528.0	TrialHappiness	Mixed
12.0	1	183.123	4.016	259.917	1.49	2.0	10.4099	2.475	955.0	1.2	Outcome2	3.9	1.49	2618.75	Yes		-2.4090222725556805				ISIRate	Mixed
13.0	1	185.622	0.024	262.416	8.5	1.0	11.4724	3.0	955.0	1.68	Outcome1	8.5	-5.45	0.0	No	2.0	13.9490373725934	2.461	188.083		GetAnswer	Gain
13.0	1	188.104	0.021	264.898	8.5	1.0	11.4724	4.0	955.0	1.68	Outcome1	8.5	-5.45	0.0	No		13.9490373725934				ShowChoice	Gain
13.0	1	192.12	0.016	268.914	8.5	1.0	11.4724	1.0	955.0	1.68	Outcome1	8.5	-5.45	0.0	No		13.9490373725934				ShowResult	Gain
13.0	1	193.136	0.016	269.93	8.5	1.0	11.4724	3.48	955.0	1.68	Outcome1	8.5	-5.45	0.0	No		13.9490373725934				ISITrial	Gain
14.0	1	196.635	0.019	273.429	7.3	0.0	12.3849	3.0	955.0	2.48	Outcome1	7.3	-7.13	0.0	No	2.0	14.432616081540198	2.91	199.545		GetAnswer	Gain
14.0	1	199.567	0.022	276.361	7.3	0.0	12.3849	4.0	955.0	2.48	Outcome1	7.3	-7.13	0.0	No		14.432616081540198				ShowChoice	Gain
14.0	1	203.582	0.015	280.376	7.3	0.0	12.3849	1.0	955.0	2.48	Outcome1	7.3	-7.13	0.0	No		14.432616081540198				ShowResult	Gain
14.0	1	204.599	0.017	281.393	7.3	0.0	12.3849	5.019	955.0	2.48	Outcome1	7.3	-7.13	0.0	No		14.432616081540198				ISITrial	Gain
15.0	1	209.647	0.029	286.441	12.7	-1.11	13.9724	3.0	955.0	1.82	Outcome2	-2.22	12.7	3348.5	Yes		14.916194790487001				GetAnswer	Loss
15.0	1	212.663	0.016	289.457	12.7	-1.11	13.9724	4.0	955.0	1.82	Outcome2	-2.22	12.7	3348.5	Yes		14.916194790487001				ShowChoice	Loss
15.0	1	216.678	0.015	293.472	12.7	-1.11	13.9724	1.0	955.0	1.82	Outcome2	-2.22	12.7	3348.5	Yes		14.916194790487001				ShowResult	Loss
15.0	1	217.694	0.016	294.488	12.7	-1.11	13.9724	7.614	955.0	1.82	Outcome2	-2.22	12.7	3348.5	Yes		14.916194790487001				ISITrial	Loss
15.0	1	228.69	0.017	305.484	12.7	-1.11	13.9724	2.523	955.0	1.82	Outcome2	-2.22	12.7	3348.5	Yes	{-2}2{-2}2{-2}2{-2}2{-2}4{-4}	14.916194790487001	2.523	231.213	568.0	TrialHappiness	Loss
15.0	1	232.706	4.016	309.5	12.7	-1.11	13.9724	5.394	955.0	1.82	Outcome2	-2.22	12.7	3348.5	Yes		14.916194790487001				ISIRate	Loss
16.0	1	238.12	0.02	314.914	1.1	-6.0	14.1099	3.0	955.0	0.52	Outcome2	-13.62	1.1	0.0	No	2.0	14.7202718006795	1.604	239.724		GetAnswer	Mixed
16.0	1	239.736	0.012	316.53	1.1	-6.0	14.1099	4.0	955.0	0.52	Outcome2	-13.62	1.1	0.0	No		14.7202718006795				ShowChoice	Mixed
16.0	1	243.752	0.016	320.546	1.1	-6.0	14.1099	1.0	955.0	0.52	Outcome2	-13.62	1.1	0.0	No		14.7202718006795				ShowResult	Mixed
16.0	1	244.768	0.016	321.562	1.1	-6.0	14.1099	3.008	955.0	0.52	Outcome2	-13.62	1.1	0.0	No		14.7202718006795				ISITrial	Mixed
17.0	1	247.8	0.024	324.594	11.7	-1.73	15.5724	3.0	955.0	3.16	Outcome1	11.7	-3.46	3041.5	Yes	2.0	15.158550396375999	1.687	249.487		GetAnswer	Loss
17.0	1	249.5	0.013	326.294	11.7	-1.73	15.5724	4.0	955.0	3.16	Outcome1	11.7	-3.46	3041.5	Yes		15.158550396375999				ShowChoice	Loss
17.0	1	253.515	0.015	330.309	11.7	-1.73	15.5724	1.0	955.0	3.16	Outcome1	11.7	-3.46	3041.5	Yes		15.158550396375999				ShowResult	Loss
17.0	1	254.531	0.016	331.325	11.7	-1.73	15.5724	3.566	955.0	3.16	Outcome1	11.7	-3.46	3041.5	Yes		15.158550396375999				ISITrial	Loss
17.0	1	261.179	0.024	337.973	11.7	-1.73	15.5724	3.056	955.0	3.16	Outcome1	11.7	-3.46	3041.5	Yes	2{-2}2{-2}4{-4}2{-2}2{-2}	15.158550396375999	3.056	264.235	676.0	TrialHappiness	Loss
17.0	1	265.194	4.015	341.988	11.7	-1.73	15.5724	4.166	955.0	3.16	Outcome1	11.7	-3.46	3041.5	Yes		15.158550396375999				ISIRate	Loss
18.0	1	269.376	0.016	346.17	13.3	-0.23	17.2349	3.0	955.0	2.48	Outcome1	13.3	-0.46	0.0	No	2.0	13.762174405436001	1.99	271.366		GetAnswer	Loss
18.0	1	271.392	0.026	348.186	13.3	-0.23	17.2349	4.0	955.0	2.48	Outcome1	13.3	-0.46	0.0	No		13.762174405436001				ShowChoice	Loss
18.0	1	275.407	0.015	352.201	13.3	-0.23	17.2349	1.0	955.0	2.48	Outcome1	13.3	-0.46	0.0	No		13.762174405436001				ShowResult	Loss
18.0	1	276.424	0.017	353.218	13.3	-0.23	17.2349	6.787	955.0	2.48	Outcome1	13.3	-0.46	0.0	No		13.762174405436001				ISITrial	Loss
19.0	1	283.238	0.027	360.032	8.59	4.3	18.3087	3.0	955.0	1.68	Outcome1	8.59	10.5	0.0	No	2.0	-1.9104379010947499	1.288	284.526		GetAnswer	Loss
19.0	1	284.554	0.028	361.348	8.59	4.3	18.3087	4.0	955.0	1.68	Outcome1	8.59	10.5	0.0	No		-1.9104379010947499				ShowChoice	Loss
19.0	1	288.57	0.016	365.364	8.59	4.3	18.3087	1.0	955.0	1.68	Outcome1	8.59	10.5	0.0	No		-1.9104379010947499				ShowResult	Loss
19.0	1	289.586	0.016	366.38	8.59	4.3	18.3087	2.0	955.0	1.68	Outcome1	8.59	10.5	0.0	No		-1.9104379010947499				ISITrial	Loss
20.0	1	291.602	0.016	368.396	8.96	4.48	19.4287	3.0	955.0	2.0	Outcome2	10.9	8.96	2921.25	Yes	2.0	-1.93676859192148	1.489	293.091		GetAnswer	Loss
20.0	1	293.118	0.027	369.912	8.96	4.48	19.4287	4.0	955.0	2.0	Outcome2	10.9	8.96	2921.25	Yes		-1.93676859192148				ShowChoice	Loss
20.0	1	297.133	0.015	373.927	8.96	4.48	19.4287	1.0	955.0	2.0	Outcome2	10.9	8.96	2921.25	Yes		-1.93676859192148				ShowResult	Loss
20.0	1	298.15	0.017	374.944	8.96	4.48	19.4287	8.0	955.0	2.0	Outcome2	10.9	8.96	2921.25	Yes		-1.93676859192148				ISITrial	Loss
20.0	1	309.113	0.028	385.907	8.96	4.48	19.4287	0.573	955.0	2.0	Outcome2	10.9	8.96	2921.25	Yes		-1.93676859192148			456.0	TrialHappiness	Loss
20.0	1	313.128	4.015	389.922	8.96	4.48	19.4287	3.685	955.0	2.0	Outcome2	10.9	8.96	2921.25	Yes		-1.93676859192148				ISIRate	Loss
21.0	1	316.843	0.03	393.637	2.1	-7.0	19.6912	3.0	955.0	1.5	Outcome2	-16.35	2.1	0.0	No	2.0	18.4473386183465	2.199	319.042		GetAnswer	Mixed
21.0	1	319.059	0.017	395.853	2.1	-7.0	19.6912	4.0	955.0	1.5	Outcome2	-16.35	2.1	0.0	No		18.4473386183465				ShowChoice	Mixed
21.0	1	323.074	0.015	399.868	2.1	-7.0	19.6912	1.0	955.0	1.5	Outcome2	-16.35	2.1	0.0	No		18.4473386183465				ShowResult	Mixed
21.0	1	324.091	0.017	400.885	2.1	-7.0	19.6912	3.555	955.0	1.5	Outcome2	-16.35	2.1	0.0	No		18.4473386183465				ISITrial	Mixed
22.0	1	327.673	0.027	404.467	12.9	-3.06	21.3037	3.0	955.0	2.0	Outcome1	12.9	-6.11	3219.5	Yes		19.012457531143802				GetAnswer	Loss
22.0	1	330.688	0.015	407.482	12.9	-3.06	21.3037	4.0	955.0	2.0	Outcome1	12.9	-6.11	3219.5	Yes		19.012457531143802				ShowChoice	Loss
22.0	1	334.704	0.016	411.498	12.9	-3.06	21.3037	1.0	955.0	2.0	Outcome1	12.9	-6.11	3219.5	Yes		19.012457531143802				ShowResult	Loss
22.0	1	335.72	0.016	412.514	12.9	-3.06	21.3037	6.793	955.0	2.0	Outcome1	12.9	-6.11	3219.5	Yes		19.012457531143802				ISITrial	Loss
22.0	1	345.783	0.029	422.577	12.9	-3.06	21.3037	1.153	955.0	2.0	Outcome1	12.9	-6.11	3219.5	Yes		19.012457531143802			528.0	TrialHappiness	Loss
22.0	1	349.798	4.015	426.592	12.9	-3.06	21.3037	4.878	955.0	2.0	Outcome1	12.9	-6.11	3219.5	Yes		19.012457531143802				ISIRate	Loss
23.0	1	354.697	0.021	431.491	10.84	5.42	22.6587	3.0	955.0	2.8	Outcome1	10.84	13.5	0.0	No	2.0	-2.65788976972442	1.02	355.717		GetAnswer	Loss
23.0	1	355.73	0.013	432.524	10.84	5.42	22.6587	4.0	955.0	2.8	Outcome1	10.84	13.5	0.0	No		-2.65788976972442				ShowChoice	Loss
23.0	1	359.745	0.015	436.539	10.84	5.42	22.6587	1.0	955.0	2.8	Outcome1	10.84	13.5	0.0	No		-2.65788976972442				ShowResult	Loss
23.0	1	360.761	0.016	437.555	10.84	5.42	22.6587	8.0	955.0	2.8	Outcome1	10.84	13.5	0.0	No		-2.65788976972442				ISITrial	Loss
24.0	1	368.792	0.031	445.586	-11.0	-11.0	21.2837	3.0	955.0	0.2	Certain	-20.34	-1.5	3255.0	Yes	4.0	18.8380520951302	2.094	370.886		GetAnswer	Mixed
24.0	1	370.908	0.022	447.702	-11.0	-11.0	21.2837	4.0	955.0	0.2	Certain	-20.34	-1.5	3255.0	Yes		18.8380520951302				ShowChoice	Mixed
24.0	1	374.923	0.015	451.717	-11.0	-11.0	21.2837	1.0	955.0	0.2	Certain	-20.34	-1.5	3255.0	Yes		18.8380520951302				ShowResult	Mixed
24.0	1	375.939	0.016	452.733	-11.0	-11.0	21.2837	2.0	955.0	0.2	Certain	-20.34	-1.5	3255.0	Yes		18.8380520951302				ISITrial	Mixed
24.0	1	381.238	0.028	458.032	-11.0	-11.0	21.2837	3.739	955.0	0.2	Certain	-20.34	-1.5	3255.0	Yes		18.8380520951302			352.0	TrialHappiness	Mixed
24.0	1	385.253	4.015	462.047	-11.0	-11.0	21.2837	5.02	955.0	0.2	Certain	-20.34	-1.5	3255.0	Yes		18.8380520951302				ISIRate	Mixed
25.0	1	390.301	0.028	467.095	5.1	-6.0	21.9212	3.0	955.0	2.22	Outcome2	-17.21	5.1	0.0	No	2.0	22.311438278595702	2.593	392.894		GetAnswer	Gain
25.0	1	392.917	0.023	469.711	5.1	-6.0	21.9212	4.0	955.0	2.22	Outcome2	-17.21	5.1	0.0	No		22.311438278595702				ShowChoice	Gain
25.0	1	396.932	0.015	473.726	5.1	-6.0	21.9212	1.0	955.0	2.22	Outcome2	-17.21	5.1	0.0	No		22.311438278595702				ShowResult	Gain
25.0	1	397.948	0.016	474.742	5.1	-6.0	21.9212	3.749	955.0	2.22	Outcome2	-17.21	5.1	0.0	No		22.311438278595702				ISITrial	Gain
26.0	1	401.714	0.017	478.508	-3.0	-3.0	21.5462	3.0	955.0	1.82	Certain	8.7	-14.29	0.0	No	4.0	22.9943374858437	1.57	403.284		GetAnswer	Gain
26.0	1	403.297	0.013	480.091	-3.0	-3.0	21.5462	4.0	955.0	1.82	Certain	8.7	-14.29	0.0	No		22.9943374858437				ShowChoice	Gain
26.0	1	407.312	0.015	484.106	-3.0	-3.0	21.5462	1.0	955.0	1.82	Certain	8.7	-14.29	0.0	No		22.9943374858437				ShowResult	Gain
26.0	1	408.328	0.016	485.122	-3.0	-3.0	21.5462	7.834	955.0	1.82	Certain	8.7	-14.29	0.0	No		22.9943374858437				ISITrial	Gain
27.0	1	416.192	0.03	492.986	-2.0	-2.0	21.2962	3.0	955.0	3.6	Certain	9.9	-13.78	2549.75	Yes	4.0	23.677236693091697	0.366	416.558		GetAnswer	Gain
27.0	1	416.575	0.017	493.369	-2.0	-2.0	21.2962	4.0	955.0	3.6	Certain	9.9	-13.78	2549.75	Yes		23.677236693091697				ShowChoice	Gain
27.0	1	420.591	0.016	497.385	-2.0	-2.0	21.2962	1.0	955.0	3.6	Certain	9.9	-13.78	2549.75	Yes		23.677236693091697				ShowResult	Gain
27.0	1	421.607	0.016	498.401	-2.0	-2.0	21.2962	4.225	955.0	3.6	Certain	9.9	-13.78	2549.75	Yes		23.677236693091697				ISITrial	Gain
27.0	1	428.421	0.016	505.215	-2.0	-2.0	21.2962	1.972	955.0	3.6	Certain	9.9	-13.78	2549.75	Yes		23.677236693091697			224.0	TrialHappiness	Gain
27.0	1	432.437	4.016	509.231	-2.0	-2.0	21.2962	2.199	955.0	3.6	Certain	9.9	-13.78	2549.75	Yes		23.677236693091697				ISIRate	Gain
	1	434.669	0.033	511.463				-0.001								4		12.858	447.527		Rest	
	1	447.548	0.021	524.342				4.0													BlockHappyPreview	
	1	451.563	0.015	528.357				3.744												512.0	BlockStartHappiness	
	1	626.369	0.019	703.163				-0.001								5.0		5.573	631.942		ScanWait	
	2	0.026	0.026	708.762				10.0													GetReady	
28.0	2	10.039	0.013	718.775	1.38	0.0	21.4687	3.0	70.0	2.8	Outcome2	-0.42	1.38	0.0	No	2.0	1.79572940287226	1.939	11.978		GetAnswer	Gain
28.0	2	12.005	0.027	720.741	1.38	0.0	21.4687	4.0	70.0	2.8	Outcome2	-0.42	1.38	0.0	No		1.79572940287226				ShowChoice	Gain
28.0	2	16.02	0.015	724.756	1.38	0.0	21.4687	1.0	70.0	2.8	Outcome2	-0.42	1.38	0.0	No		1.79572940287226				ShowResult	Gain
28.0	2	17.036	0.016	725.772	1.38	0.0	21.4687	3.575	70.0	2.8	Outcome2	-0.42	1.38	0.0	No		1.79572940287226				ISITrial	Gain
29.0	2	20.635	0.024	729.371	5.68	2.84	22.1787	3.0	70.0	3.16	Outcome2	13.7	5.68	3529.0	Yes	2.0	-8.01814058956916	1.708	22.343		GetAnswer	Loss
29.0	2	22.368	0.025	731.104	5.68	2.84	22.1787	4.0	70.0	3.16	Outcome2	13.7	5.68	3529.0	Yes		-8.01814058956916				ShowChoice	Loss
29.0	2	26.383	0.015	735.119	5.68	2.84	22.1787	1.0	70.0	3.16	Outcome2	13.7	5.68	3529.0	Yes		-8.01814058956916				ShowResult	Loss
29.0	2	27.399	0.016	736.135	5.68	2.84	22.1787	3.955	70.0	3.16	Outcome2	13.7	5.68	3529.0	Yes		-8.01814058956916				ISITrial	Loss
29.0	2	34.913	0.019	743.649	5.68	2.84	22.1787	0.694	70.0	3.16	Outcome2	13.7	5.68	3529.0	Yes		-8.01814058956916			520.0	TrialHappiness	Loss
29.0	2	38.929	4.016	747.665	5.68	2.84	22.1787	6.116	70.0	3.16	Outcome2	13.7	5.68	3529.0	Yes		-8.01814058956916				ISIRate	Loss
30.0	2	45.077	0.032	753.813	-6.16	-2.0	21.4087	3.0	70.0	0.2	Outcome1	-6.16	2.5	0.0	No	2.0	-8.655328798185941	2.678	47.755		GetAnswer	Mixed
30.0	2	47.776	0.021	756.512	-6.16	-2.0	21.4087	4.0	70.0	0.2	Outcome1	-6.16	2.5	0.0	No		-8.655328798185941				ShowChoice	Mixed
30.0	2	51.791	0.015	760.527	-6.16	-2.0	21.4087	1.0	70.0	0.2	Outcome1	-6.16	2.5	0.0	No		-8.655328798185941				ShowResult	Mixed
30.0	2	52.807	0.016	761.543	-6.16	-2.0	21.4087	4.453	70.0	0.2	Outcome1	-6.16	2.5	0.0	No		-8.655328798185941				ISITrial	Mixed
31.0	2	57.289	0.029	766.025	3.08	2.0	21.7937	3.0	70.0	5.0	Outcome2	1.13	3.08	2503.25	Yes	2.0	1.95427059712774	2.093	59.382		GetAnswer	Loss
31.0	2	59.405	0.023	768.141	3.08	2.0	21.7937	4.0	70.0	5.0	Outcome2	1.13	3.08	2503.25	Yes		1.95427059712774				ShowChoice	Loss
31.0	2	63.42	0.015	772.156	3.08	2.0	21.7937	1.0	70.0	5.0	Outcome2	1.13	3.08	2503.25	Yes		1.95427059712774				ShowResult	Loss
31.0	2	64.437	0.017	773.173	3.08	2.0	21.7937	4.786	70.0	5.0	Outcome2	1.13	3.08	2503.25	Yes		1.95427059712774				ISITrial	Loss
31.0	2	71.767	0.029	780.503	3.08	2.0	21.7937	0.608	70.0	5.0	Outcome2	1.13	3.08	2503.25	Yes		1.95427059712774			440.0	TrialHappiness	Loss
31.0	2	75.783	4.016	784.519	3.08	2.0	21.7937	2.013	70.0	5.0	Outcome2	1.13	3.08	2503.25	Yes		1.95427059712774				ISIRate	Loss
32.0	2	77.815	0.019	786.551	-3.0	-3.0	21.4187	3.0	70.0	0.4	Certain	-7.42	0.9	0.0	No	4.0	-8.31519274376417	2.411	80.226		GetAnswer	Mixed
32.0	2	80.248	0.022	788.984	-3.0	-3.0	21.4187	4.0	70.0	0.4	Certain	-7.42	0.9	0.0	No		-8.31519274376417				ShowChoice	Mixed
32.0	2	84.263	0.015	792.999	-3.0	-3.0	21.4187	1.0	70.0	0.4	Certain	-7.42	0.9	0.0	No		-8.31519274376417				ShowResult	Mixed
32.0	2	85.279	0.016	794.015	-3.0	-3.0	21.4187	2.0	70.0	0.4	Certain	-7.42	0.9	0.0	No		-8.31519274376417				ISITrial	Mixed
33.0	2	87.295	0.016	796.031	-5.43	-1.0	20.7399	3.0	70.0	0.66	Outcome1	-5.43	3.3	0.0	No	2.0	-8.734693877551019	2.6	89.895		GetAnswer	Mixed
33.0	2	89.911	0.016	798.647	-5.43	-1.0	20.7399	4.0	70.0	0.66	Outcome1	-5.43	3.3	0.0	No		-8.734693877551019				ShowChoice	Mixed
33.0	2	93.926	0.015	802.662	-5.43	-1.0	20.7399	1.0	70.0	0.66	Outcome1	-5.43	3.3	0.0	No		-8.734693877551019				ShowResult	Mixed
33.0	2	94.943	0.017	803.679	-5.43	-1.0	20.7399	5.099	70.0	0.66	Outcome1	-5.43	3.3	0.0	No		-8.734693877551019				ISITrial	Mixed
34.0	2	100.074	0.032	808.81	-3.0	-3.0	20.3649	3.0	70.0	0.82	Certain	-7.65	1.5	3231.5	Yes	4.0	-9.154195011337869	1.777	101.851		GetAnswer	Mixed
34.0	2	101.874	0.023	810.61	-3.0	-3.0	20.3649	4.0	70.0	0.82	Certain	-7.65	1.5	3231.5	Yes		-9.154195011337869				ShowChoice	Mixed
34.0	2	105.889	0.015	814.625	-3.0	-3.0	20.3649	1.0	70.0	0.82	Certain	-7.65	1.5	3231.5	Yes		-9.154195011337869				ShowResult	Mixed
34.0	2	106.905	0.016	815.641	-3.0	-3.0	20.3649	4.784	70.0	0.82	Certain	-7.65	1.5	3231.5	Yes		-9.154195011337869				ISITrial	Mixed
34.0	2	114.952	0.016	823.688	-3.0	-3.0	20.3649	3.856	70.0	0.82	Certain	-7.65	1.5	3231.5	Yes		-9.154195011337869			444.0	TrialHappiness	Mixed
34.0	2	118.968	4.016	827.704	-3.0	-3.0	20.3649	4.926	70.0	0.82	Certain	-7.65	1.5	3231.5	Yes		-9.154195011337869				ISIRate	Mixed
35.0	2	123.916	0.022	832.652	-1.0	-1.0	20.2399	3.0	70.0	0.66	Certain	-0.18	-1.97	0.0	No	4.0	1.79289493575208	1.452	125.368		GetAnswer	Mixed
35.0	2	125.382	0.014	834.118	-1.0	-1.0	20.2399	4.0	70.0	0.66	Certain	-0.18	-1.97	0.0	No		1.79289493575208				ShowChoice	Mixed
35.0	2	129.397	0.015	838.133	-1.0	-1.0	20.2399	1.0	70.0	0.66	Certain	-0.18	-1.97	0.0	No		1.79289493575208				ShowResult	Mixed
35.0	2	130.414	0.017	839.15	-1.0	-1.0	20.2399	2.098	70.0	0.66	Certain	-0.18	-1.97	0.0	No		1.79289493575208				ISITrial	Mixed
36.0	2	132.53	0.018	841.266	-1.0	-1.0	20.1149	3.0	70.0	1.2	Certain	-1.85	-0.02	3335.75	Yes	4.0	1.8282312925170099	2.903	135.433		GetAnswer	Mixed
36.0	2	135.445	0.012	844.181	-1.0	-1.0	20.1149	4.0	70.0	1.2	Certain	-1.85	-0.02	3335.75	Yes		1.8282312925170099				ShowChoice	Mixed
36.0	2	139.461	0.016	848.197	-1.0	-1.0	20.1149	1.0	70.0	1.2	Certain	-1.85	-0.02	3335.75	Yes		1.8282312925170099				ShowResult	Mixed
36.0	2	140.477	0.016	849.213	-1.0	-1.0	20.1149	5.156	70.0	1.2	Certain	-1.85	-0.02	3335.75	Yes		1.8282312925170099				ISITrial	Mixed
36.0	2	149.024	0.029	857.76	-1.0	-1.0	20.1149	3.843	70.0	1.2	Certain	-1.85	-0.02	3335.75	Yes	4{-4}2{-2}2{-2}4{-4}4{-4}4{-4}	1.8282312925170099	3.843	152.867	516.0	TrialHappiness	Mixed
36.0	2	153.039	4.015	861.775	-1.0	-1.0	20.1149	5.343	70.0	1.2	Certain	-1.85	-0.02	3335.75	Yes		1.8282312925170099				ISIRate	Mixed
37.0	2	158.404	0.022	867.14	-0.21	-0.1	20.0887	3.0	70.0	2.8	Outcome1	-0.21	11.5	0.0	No	2.0	-11.714285714285701	1.426	159.83		GetAnswer	Loss
37.0	2	159.854	0.024	868.59	-0.21	-0.1	20.0887	4.0	70.0	2.8	Outcome1	-0.21	11.5	0.0	No		-11.714285714285701				ShowChoice	Loss
37.0	2	163.869	0.015	872.605	-0.21	-0.1	20.0887	1.0	70.0	2.8	Outcome1	-0.21	11.5	0.0	No		-11.714285714285701				ShowResult	Loss
37.0	2	164.885	0.016	873.621	-0.21	-0.1	20.0887	3.598	70.0	2.8	Outcome1	-0.21	11.5	0.0	No		-11.714285714285701				ISITrial	Loss
38.0	2	168.501	0.018	877.237	1.23	0.0	20.2425	3.0	70.0	2.0	Outcome1	1.23	-0.97	0.0	No		2.1982237339380197				GetAnswer	Gain
38.0	2	171.516	0.015	880.252	1.23	0.0	20.2425	4.0	70.0	2.0	Outcome1	1.23	-0.97	0.0	No		2.1982237339380197				ShowChoice	Gain
38.0	2	175.532	0.016	884.268	1.23	0.0	20.2425	1.0	70.0	2.0	Outcome1	1.23	-0.97	0.0	No		2.1982237339380197				ShowResult	Gain
38.0	2	176.548	0.016	885.284	1.23	0.0	20.2425	4.787	70.0	2.0	Outcome1	1.23	-0.97	0.0	No		2.1982237339380197				ISITrial	Gain
39.0	2	181.363	0.028	890.099	0.0	0.0	20.2425	3.0	70.0	1.68	Certain	6.5	-6.23	2864.25	Yes	4.0	-12.7256235827664	1.244	182.607		GetAnswer	Gain
39.0	2	182.629	0.022	891.365	0.0	0.0	20.2425	4.0	70.0	1.68	Certain	6.5	-6.23	2864.25	Yes		-12.7256235827664				ShowChoice	Gain
39.0	2	186.644	0.015	895.38	0.0	0.0	20.2425	1.0	70.0	1.68	Certain	6.5	-6.23	2864.25	Yes		-12.7256235827664				ShowResult	Gain
39.0	2	187.661	0.017	896.397	0.0	0.0	20.2425	2.348	70.0	1.68	Certain	6.5	-6.23	2864.25	Yes		-12.7256235827664				ISITrial	Gain
39.0	2	192.909	0.019	901.645	0.0	0.0	20.2425	0.911	70.0	1.68	Certain	6.5	-6.23	2864.25	Yes		-12.7256235827664			460.0	TrialHappiness	Gain
39.0	2	196.924	4.015	905.66	0.0	0.0	20.2425	3.457	70.0	1.68	Certain	6.5	-6.23	2864.25	Yes		-12.7256235827664				ISIRate	Gain
40.0	2	200.406	0.025	909.142	1.08	0.0	20.3775	3.0	70.0	2.0	Outcome2	-0.98	1.08	0.0	No	2.0	2.05498866213152	1.814	202.22		GetAnswer	Mixed
40.0	2	202.239	0.019	910.975	1.08	0.0	20.3775	4.0	70.0	2.0	Outcome2	-0.98	1.08	0.0	No		2.05498866213152				ShowChoice	Mixed
40.0	2	206.254	0.015	914.99	1.08	0.0	20.3775	1.0	70.0	2.0	Outcome2	-0.98	1.08	0.0	No		2.05498866213152				ShowResult	Mixed
40.0	2	207.271	0.017	916.007	1.08	0.0	20.3775	3.158	70.0	2.0	Outcome2	-0.98	1.08	0.0	No		2.05498866213152				ISITrial	Mixed
41.0	2	210.453	0.024	919.189	-3.22	-1.61	19.975	3.0	70.0	2.8	Outcome2	9.5	-3.22	4000.0	Yes	2.0	-12.7210884353741	1.976	212.429		GetAnswer	Gain
41.0	2	212.452	0.023	921.188	-3.22	-1.61	19.975	4.0	70.0	2.8	Outcome2	9.5	-3.22	4000.0	Yes		-12.7210884353741				ShowChoice	Gain
41.0	2	216.467	0.015	925.203	-3.22	-1.61	19.975	1.0	70.0	2.8	Outcome2	9.5	-3.22	4000.0	Yes		-12.7210884353741				ShowResult	Gain
41.0	2	217.484	0.017	926.22	-3.22	-1.61	19.975	4.506	70.0	2.8	Outcome2	9.5	-3.22	4000.0	Yes		-12.7210884353741				ISITrial	Gain
41.0	2	226.047	0.032	934.783	-3.22	-1.61	19.975	2.2	70.0	2.8	Outcome2	9.5	-3.22	4000.0	Yes		-12.7210884353741			472.0	TrialHappiness	Gain
41.0	2	230.063	4.016	938.799	-3.22	-1.61	19.975	8.0	70.0	2.8	Outcome2	9.5	-3.22	4000.0	Yes		-12.7210884353741				ISIRate	Gain
42.0	2	238.093	0.03	946.829	-11.07	-4.0	18.5912	3.0	70.0	2.0	Outcome1	-11.07	2.3	0.0	No		-13.3673469387755				GetAnswer	Mixed
42.0	2	241.109	0.016	949.845	-11.07	-4.0	18.5912	4.0	70.0	2.0	Outcome1	-11.07	2.3	0.0	No		-13.3673469387755				ShowChoice	Mixed
42.0	2	245.124	0.015	953.86	-11.07	-4.0	18.5912	1.0	70.0	2.0	Outcome1	-11.07	2.3	0.0	No		-13.3673469387755				ShowResult	Mixed
42.0	2	246.14	0.016	954.876	-11.07	-4.0	18.5912	6.248	70.0	2.0	Outcome1	-11.07	2.3	0.0	No		-13.3673469387755				ISITrial	Mixed
43.0	2	252.422	0.034	961.158	-6.12	1.0	17.8262	3.0	70.0	3.16	Outcome1	-6.12	7.7	2775.75	Yes	2.0	-13.8231292517007	2.231	254.653		GetAnswer	Gain
43.0	2	254.671	0.018	963.407	-6.12	1.0	17.8262	4.0	70.0	3.16	Outcome1	-6.12	7.7	2775.75	Yes		-13.8231292517007				ShowChoice	Gain
43.0	2	258.686	0.015	967.422	-6.12	1.0	17.8262	1.0	70.0	3.16	Outcome1	-6.12	7.7	2775.75	Yes		-13.8231292517007				ShowResult	Gain
43.0	2	259.702	0.016	968.438	-6.12	1.0	17.8262	4.596	70.0	3.16	Outcome1	-6.12	7.7	2775.75	Yes		-13.8231292517007				ISITrial	Gain
43.0	2	267.117	0.024	975.853	-6.12	1.0	17.8262	0.823	70.0	3.16	Outcome1	-6.12	7.7	2775.75	Yes		-13.8231292517007			456.0	TrialHappiness	Gain
43.0	2	271.132	4.015	979.868	-6.12	1.0	17.8262	3.103	70.0	3.16	Outcome1	-6.12	7.7	2775.75	Yes		-13.8231292517007				ISIRate	Gain
44.0	2	274.264	0.029	983.0	2.33	1.0	18.1174	3.0	70.0	2.48	Outcome2	0.14	2.33	0.0	No	2.0	2.18839758125472	1.991	276.255		GetAnswer	Gain
44.0	2	276.28	0.025	985.016	2.33	1.0	18.1174	4.0	70.0	2.48	Outcome2	0.14	2.33	0.0	No		2.18839758125472				ShowChoice	Gain
44.0	2	280.295	0.015	989.031	2.33	1.0	18.1174	1.0	70.0	2.48	Outcome2	0.14	2.33	0.0	No		2.18839758125472				ShowResult	Gain
44.0	2	281.312	0.017	990.048	2.33	1.0	18.1174	2.42	70.0	2.48	Outcome2	0.14	2.33	0.0	No		2.18839758125472				ISITrial	Gain
45.0	2	283.761	0.029	992.497	-8.0	-8.0	17.1174	3.0	70.0	0.4	Certain	-15.54	-1.1	0.0	No	4.0	-14.444444444444402	2.47	286.231		GetAnswer	Mixed
45.0	2	286.26	0.029	994.996	-8.0	-8.0	17.1174	4.0	70.0	0.4	Certain	-15.54	-1.1	0.0	No		-14.444444444444402				ShowChoice	Mixed
45.0	2	290.275	0.015	999.011	-8.0	-8.0	17.1174	1.0	70.0	0.4	Certain	-15.54	-1.1	0.0	No		-14.444444444444402				ShowResult	Mixed
45.0	2	291.291	0.016	1000.027	-8.0	-8.0	17.1174	3.144	70.0	0.4	Certain	-15.54	-1.1	0.0	No		-14.444444444444402				ISITrial	Mixed
46.0	2	294.457	0.022	1003.193	1.32	0.0	17.2824	3.0	70.0	2.48	Outcome2	-0.94	1.32	3841.25	Yes		2.26133786848073				GetAnswer	Gain
46.0	2	297.473	0.016	1006.209	1.32	0.0	17.2824	4.0	70.0	2.48	Outcome2	-0.94	1.32	3841.25	Yes		2.26133786848073				ShowChoice	Gain
46.0	2	301.488	0.015	1010.224	1.32	0.0	17.2824	1.0	70.0	2.48	Outcome2	-0.94	1.32	3841.25	Yes		2.26133786848073				ShowResult	Gain
46.0	2	302.504	0.016	1011.24	1.32	0.0	17.2824	2.246	70.0	2.48	Outcome2	-0.94	1.32	3841.25	Yes		2.26133786848073				ISITrial	Gain
46.0	2	308.635	0.024	1017.371	1.32	0.0	17.2824	0.574	70.0	2.48	Outcome2	-0.94	1.32	3841.25	Yes		2.26133786848073			464.0	TrialHappiness	Gain
46.0	2	312.651	4.016	1021.387	1.32	0.0	17.2824	7.365	70.0	2.48	Outcome2	-0.94	1.32	3841.25	Yes		2.26133786848073				ISIRate	Gain
47.0	2	320.048	0.032	1028.784	0.0	0.0	17.2824	3.0	70.0	2.22	Certain	-0.55	1.78	0.0	No	4.0	2.3303099017384703	1.448	321.496		GetAnswer	Gain
47.0	2	321.514	0.018	1030.25	0.0	0.0	17.2824	4.0	70.0	2.22	Certain	-0.55	1.78	0.0	No		2.3303099017384703				ShowChoice	Gain
47.0	2	325.53	0.016	1034.266	0.0	0.0	17.2824	1.0	70.0	2.22	Certain	-0.55	1.78	0.0	No		2.3303099017384703				ShowResult	Gain
47.0	2	326.546	0.016	1035.282	0.0	0.0	17.2824	2.0	70.0	2.22	Certain	-0.55	1.78	0.0	No		2.3303099017384703				ISITrial	Gain
48.0	2	328.579	0.033	1037.315	-9.8	-2.0	16.0574	3.0	70.0	4.2	Outcome1	-9.8	6.1	2831.75	Yes	2.0	-15.9024943310658	1.311	329.89		GetAnswer	Gain
48.0	2	329.911	0.021	1038.647	-9.8	-2.0	16.0574	4.0	70.0	4.2	Outcome1	-9.8	6.1	2831.75	Yes		-15.9024943310658				ShowChoice	Gain
48.0	2	333.927	0.016	1042.663	-9.8	-2.0	16.0574	1.0	70.0	4.2	Outcome1	-9.8	6.1	2831.75	Yes		-15.9024943310658				ShowResult	Gain
48.0	2	334.943	0.016	1043.679	-9.8	-2.0	16.0574	3.692	70.0	4.2	Outcome1	-9.8	6.1	2831.75	Yes		-15.9024943310658				ISITrial	Gain
48.0	2	341.524	0.034	1050.26	-9.8	-2.0	16.0574	3.873	70.0	4.2	Outcome1	-9.8	6.1	2831.75	Yes		-15.9024943310658			504.0	TrialHappiness	Gain
48.0	2	345.539	4.015	1054.275	-9.8	-2.0	16.0574	3.327	70.0	4.2	Outcome1	-9.8	6.1	2831.75	Yes		-15.9024943310658				ISIRate	Gain
49.0	2	348.888	0.022	1057.624	-8.13	0.0	15.0411	3.0	70.0	2.0	Outcome1	-8.13	8.9	0.0	No	2.0	-17.0294784580499	1.396	350.284		GetAnswer	Gain
49.0	2	350.304	0.02	1059.04	-8.13	0.0	15.0411	4.0	70.0	2.0	Outcome1	-8.13	8.9	0.0	No		-17.0294784580499				ShowChoice	Gain
49.0	2	354.32	0.016	1063.056	-8.13	0.0	15.0411	1.0	70.0	2.0	Outcome1	-8.13	8.9	0.0	No		-17.0294784580499				ShowResult	Gain
49.0	2	355.336	0.016	1064.072	-8.13	0.0	15.0411	8.0	70.0	2.0	Outcome1	-8.13	8.9	0.0	No		-17.0294784580499				ISITrial	Gain
50.0	2	363.367	0.031	1072.103	2.42	1.0	15.3436	3.0	70.0	3.16	Outcome2	-0.19	2.42	3547.25	Yes	2.0	2.6082766439909304	1.926	365.293		GetAnswer	Gain
50.0	2	365.316	0.023	1074.052	2.42	1.0	15.3436	4.0	70.0	3.16	Outcome2	-0.19	2.42	3547.25	Yes		2.6082766439909304				ShowChoice	Gain
50.0	2	369.331	0.015	1078.067	2.42	1.0	15.3436	1.0	70.0	3.16	Outcome2	-0.19	2.42	3547.25	Yes		2.6082766439909304				ShowResult	Gain
50.0	2	370.347	0.016	1079.083	2.42	1.0	15.3436	7.537	70.0	3.16	Outcome2	-0.19	2.42	3547.25	Yes		2.6082766439909304				ISITrial	Gain
50.0	2	381.46	0.018	1090.196	2.42	1.0	15.3436	0.0	70.0	3.16	Outcome2	-0.19	2.42	3547.25	Yes		2.6082766439909304			512.0	TrialHappiness	Gain
50.0	2	385.476	4.016	1094.212	2.42	1.0	15.3436	6.189	70.0	3.16	Outcome2	-0.19	2.42	3547.25	Yes		2.6082766439909304				ISIRate	Gain
51.0	2	391.69	0.025	1100.426	-7.45	1.0	14.4124	3.0	70.0	1.82	Outcome2	10.7	-7.45	0.0	No	2.0	-18.1496598639456	1.737	393.427		GetAnswer	Loss
51.0	2	393.439	0.012	1102.175	-7.45	1.0	14.4124	4.0	70.0	1.82	Outcome2	10.7	-7.45	0.0	No		-18.1496598639456				ShowChoice	Loss
51.0	2	397.455	0.016	1106.191	-7.45	1.0	14.4124	1.0	70.0	1.82	Outcome2	10.7	-7.45	0.0	No		-18.1496598639456				ShowResult	Loss
51.0	2	398.471	0.016	1107.207	-7.45	1.0	14.4124	5.508	70.0	1.82	Outcome2	10.7	-7.45	0.0	No		-18.1496598639456				ISITrial	Loss
52.0	2	404.003	0.024	1112.739	-4.75	-2.38	13.8186	3.0	70.0	3.6	Outcome1	-4.75	13.9	0.0	No	2.0	-18.6507936507937	1.854	405.857		GetAnswer	Loss
52.0	2	405.885	0.028	1114.621	-4.75	-2.38	13.8186	4.0	70.0	3.6	Outcome1	-4.75	13.9	0.0	No		-18.6507936507937				ShowChoice	Loss
52.0	2	409.9	0.015	1118.636	-4.75	-2.38	13.8186	1.0	70.0	3.6	Outcome1	-4.75	13.9	0.0	No		-18.6507936507937				ShowResult	Loss
52.0	2	410.917	0.017	1119.653	-4.75	-2.38	13.8186	5.913	70.0	3.6	Outcome1	-4.75	13.9	0.0	No		-18.6507936507937				ISITrial	Loss
53.0	2	416.848	0.018	1125.584	-15.05	-5.0	11.9374	3.0	70.0	1.5	Outcome1	-15.05	4.1	2996.75	Yes	2.0	-19.1519274376417	1.808	418.656		GetAnswer	Mixed
53.0	2	418.681	0.024	1127.417	-15.05	-5.0	11.9374	4.0	70.0	1.5	Outcome1	-15.05	4.1	2996.75	Yes		-19.1519274376417				ShowChoice	Mixed
53.0	2	422.696	0.015	1131.432	-15.05	-5.0	11.9374	1.0	70.0	1.5	Outcome1	-15.05	4.1	2996.75	Yes		-19.1519274376417				ShowResult	Mixed
53.0	2	423.712	0.016	1132.448	-15.05	-5.0	11.9374	3.66	70.0	1.5	Outcome1	-15.05	4.1	2996.75	Yes		-19.1519274376417				ISITrial	Mixed
53.0	2	430.41	0.019	1139.146	-15.05	-5.0	11.9374	2.742	70.0	1.5	Outcome1	-15.05	4.1	2996.75	Yes		-19.1519274376417			488.0	TrialHappiness	Mixed
53.0	2	434.425	4.015	1143.161	-15.05	-5.0	11.9374	3.987	70.0	1.5	Outcome1	-15.05	4.1	2996.75	Yes		-19.1519274376417				ISIRate	Mixed
54.0	2	438.441	0.029	1147.177	-11.34	-1.0	10.5199	3.0	70.0	3.6	Outcome2	7.9	-11.34	0.0	No	2.0	-19.2448979591837	2.371	440.812		GetAnswer	Gain
54.0	2	440.84	0.028	1149.576	-11.34	-1.0	10.5199	4.0	70.0	3.6	Outcome2	7.9	-11.34	0.0	No		-19.2448979591837				ShowChoice	Gain
54.0	2	444.855	0.015	1153.591	-11.34	-1.0	10.5199	1.0	70.0	3.6	Outcome2	7.9	-11.34	0.0	No		-19.2448979591837				ShowResult	Gain
54.0	2	445.871	0.016	1154.607	-11.34	-1.0	10.5199	8.0	70.0	3.6	Outcome2	7.9	-11.34	0.0	No		-19.2448979591837				ISITrial	Gain
	2	453.902	0.031	1162.638				-0.001								{SPACE}		48.609	502.511		Rest	
	2	502.535	0.024	1211.271				4.0													BlockHappyPreview	
	2	506.55	0.015	1215.286				3.708												424.0	BlockStartHappiness	
	2	512.532	0.021	1221.268				-0.001								5.0		10.08	522.612		ScanWait	
	3	0.016	0.016	1231.364				10.0													GetReady	
55.0	3	10.029	0.013	1241.377	13.1	2.04	12.1574	3.0	955.0	2.22	Outcome2	4.08	13.1	2533.25	Yes	2.0	9.02038505096263	1.209	11.238		GetAnswer	Loss
55.0	3	11.262	0.024	1242.61	13.1	2.04	12.1574	4.0	955.0	2.22	Outcome2	4.08	13.1	2533.25	Yes		9.02038505096263				ShowChoice	Loss
55.0	3	15.278	0.016	1246.626	13.1	2.04	12.1574	1.0	955.0	2.22	Outcome2	4.08	13.1	2533.25	Yes		9.02038505096263				ShowResult	Loss
55.0	3	16.294	0.016	1247.642	13.1	2.04	12.1574	7.709	955.0	2.22	Outcome2	4.08	13.1	2533.25	Yes		9.02038505096263				ISITrial	Loss
55.0	3	26.574	0.016	1257.922	13.1	2.04	12.1574	1.14	955.0	2.22	Outcome2	4.08	13.1	2533.25	Yes	2{-2}2{-2}4{-4}	9.02038505096263	1.14	27.714	532.0	TrialHappiness	Loss
55.0	3	30.589	4.015	1261.937	13.1	2.04	12.1574	2.133	955.0	2.22	Outcome2	4.08	13.1	2533.25	Yes		9.02038505096263				ISIRate	Loss
56.0	3	32.738	0.016	1264.086	3.7	0.0	12.6199	3.0	955.0	1.0	Outcome2	-4.09	3.7	0.0	No	2.0	7.78708946772367	1.609	34.347		GetAnswer	Mixed
56.0	3	34.371	0.024	1265.719	3.7	0.0	12.6199	4.0	955.0	1.0	Outcome2	-4.09	3.7	0.0	No		7.78708946772367				ShowChoice	Mixed
56.0	3	38.386	0.015	1269.734	3.7	0.0	12.6199	1.0	955.0	1.0	Outcome2	-4.09	3.7	0.0	No		7.78708946772367				ShowResult	Mixed
56.0	3	39.403	0.017	1270.751	3.7	0.0	12.6199	4.697	955.0	1.0	Outcome2	-4.09	3.7	0.0	No		7.78708946772367				ISITrial	Mixed
57.0	3	44.118	0.018	1275.466	-4.0	-4.0	12.1199	3.0	955.0	0.82	Certain	-8.77	-0.5	0.0	No	4.0	8.26613816534541	1.705	45.823		GetAnswer	Mixed
57.0	3	45.85	0.027	1277.198	-4.0	-4.0	12.1199	4.0	955.0	0.82	Certain	-8.77	-0.5	0.0	No		8.26613816534541				ShowChoice	Mixed
57.0	3	49.866	0.016	1281.214	-4.0	-4.0	12.1199	1.0	955.0	0.82	Certain	-8.77	-0.5	0.0	No		8.26613816534541				ShowResult	Mixed
57.0	3	50.882	0.016	1282.23	-4.0	-4.0	12.1199	4.291	955.0	0.82	Certain	-8.77	-0.5	0.0	No		8.26613816534541				ISITrial	Mixed
58.0	3	55.197	0.024	1286.545	-4.0	-4.0	11.6199	3.0	955.0	1.5	Certain	0.1	-8.65	3045.75	Yes	4.0	8.74518686296716	1.596	56.793		GetAnswer	Mixed
58.0	3	56.813	0.02	1288.161	-4.0	-4.0	11.6199	4.0	955.0	1.5	Certain	0.1	-8.65	3045.75	Yes		8.74518686296716				ShowChoice	Mixed
58.0	3	60.828	0.015	1292.176	-4.0	-4.0	11.6199	1.0	955.0	1.5	Certain	0.1	-8.65	3045.75	Yes		8.74518686296716				ShowResult	Mixed
58.0	3	61.845	0.017	1293.193	-4.0	-4.0	11.6199	2.037	955.0	1.5	Certain	0.1	-8.65	3045.75	Yes		8.74518686296716				ISITrial	Mixed
58.0	3	66.96	0.02	1298.308	-4.0	-4.0	11.6199	0.473	955.0	1.5	Certain	0.1	-8.65	3045.75	Yes		8.74518686296716			452.0	TrialHappiness	Mixed
58.0	3	70.975	4.015	1302.323	-4.0	-4.0	11.6199	4.183	955.0	1.5	Certain	0.1	-8.65	3045.75	Yes		8.74518686296716				ISIRate	Mixed
59.0	3	75.19	0.032	1306.538	12.1	0.76	13.1324	3.0	955.0	4.2	Outcome1	12.1	1.52	0.0	No	2.0	10.5832389580974	2.71	77.9		GetAnswer	Loss
59.0	3	77.923	0.023	1309.271	12.1	0.76	13.1324	4.0	955.0	4.2	Outcome1	12.1	1.52	0.0	No		10.5832389580974				ShowChoice	Loss
59.0	3	81.938	0.015	1313.286	12.1	0.76	13.1324	1.0	955.0	4.2	Outcome1	12.1	1.52	0.0	No		10.5832389580974				ShowResult	Loss
59.0	3	82.954	0.016	1314.302	12.1	0.76	13.1324	5.064	955.0	4.2	Outcome1	12.1	1.52	0.0	No		10.5832389580974				ISITrial	Loss
60.0	3	88.036	0.018	1319.384	4.5	-1.0	13.6949	3.0	955.0	1.68	Outcome2	-6.65	4.5	3562.5	Yes	2.0	11.152887882219698	1.446	89.482		GetAnswer	Gain
60.0	3	89.502	0.02	1320.85	4.5	-1.0	13.6949	4.0	955.0	1.68	Outcome2	-6.65	4.5	3562.5	Yes		11.152887882219698				ShowChoice	Gain
60.0	3	93.517	0.015	1324.865	4.5	-1.0	13.6949	1.0	955.0	1.68	Outcome2	-6.65	4.5	3562.5	Yes		11.152887882219698				ShowResult	Gain
60.0	3	94.533	0.016	1325.881	4.5	-1.0	13.6949	8.0	955.0	1.68	Outcome2	-6.65	4.5	3562.5	Yes		11.152887882219698				ISITrial	Gain
60.0	3	106.129	0.02	1337.477	4.5	-1.0	13.6949	3.456	955.0	1.68	Outcome2	-6.65	4.5	3562.5	Yes	4{-4}2{-2}2{-2}	11.152887882219698	3.456	109.585	516.0	TrialHappiness	Gain
60.0	3	110.145	4.016	1341.493	4.5	-1.0	13.6949	6.25	955.0	1.68	Outcome2	-6.65	4.5	3562.5	Yes		11.152887882219698				ISIRate	Gain
61.0	3	116.426	0.031	1347.774	0.3	-5.0	13.7324	3.0	955.0	2.0	Outcome2	-10.34	0.3	0.0	No	2.0	10.635334088335199	2.55	118.976		GetAnswer	Mixed
61.0	3	118.992	0.016	1350.34	0.3	-5.0	13.7324	4.0	955.0	2.0	Outcome2	-10.34	0.3	0.0	No		10.635334088335199				ShowChoice	Mixed
61.0	3	123.007	0.015	1354.355	0.3	-5.0	13.7324	1.0	955.0	2.0	Outcome2	-10.34	0.3	0.0	No		10.635334088335199				ShowResult	Mixed
61.0	3	124.023	0.016	1355.371	0.3	-5.0	13.7324	4.586	955.0	2.0	Outcome2	-10.34	0.3	0.0	No		10.635334088335199				ISITrial	Mixed
62.0	3	128.638	0.029	1359.986	-1.3	-7.0	13.5699	3.0	955.0	0.3	Outcome2	-12.43	-1.3	3748.75	Yes	2.0	11.1325028312571	2.334	130.972		GetAnswer	Mixed
62.0	3	130.988	0.016	1362.336	-1.3	-7.0	13.5699	4.0	955.0	0.3	Outcome2	-12.43	-1.3	3748.75	Yes		11.1325028312571				ShowChoice	Mixed
62.0	3	135.003	0.015	1366.351	-1.3	-7.0	13.5699	1.0	955.0	0.3	Outcome2	-12.43	-1.3	3748.75	Yes		11.1325028312571				ShowResult	Mixed
62.0	3	136.019	0.016	1367.367	-1.3	-7.0	13.5699	5.212	955.0	0.3	Outcome2	-12.43	-1.3	3748.75	Yes		11.1325028312571				ISITrial	Mixed
62.0	3	145.016	0.016	1376.364	-1.3	-7.0	13.5699	3.733	955.0	0.3	Outcome2	-12.43	-1.3	3748.75	Yes		11.1325028312571			472.0	TrialHappiness	Mixed
62.0	3	149.048	4.032	1380.396	-1.3	-7.0	13.5699	6.995	955.0	0.3	Outcome2	-12.43	-1.3	3748.75	Yes		11.1325028312571				ISIRate	Mixed
63.0	3	156.062	0.019	1387.41	4.59	2.3	14.1437	3.0	955.0	2.0	Outcome2	6.9	4.59	0.0	No	2.0	-2.3077576443941097	1.489	157.551		GetAnswer	Gain
63.0	3	157.578	0.027	1388.926	4.59	2.3	14.1437	4.0	955.0	2.0	Outcome2	6.9	4.59	0.0	No		-2.3077576443941097				ShowChoice	Gain
63.0	3	161.594	0.016	1392.942	4.59	2.3	14.1437	1.0	955.0	2.0	Outcome2	6.9	4.59	0.0	No		-2.3077576443941097				ShowResult	Gain
63.0	3	162.61	0.016	1393.958	4.59	2.3	14.1437	5.595	955.0	2.0	Outcome2	6.9	4.59	0.0	No		-2.3077576443941097				ISITrial	Gain
64.0	3	168.225	0.02	1399.573	8.3	2.0	15.1812	3.0	955.0	5.0	Outcome2	-4.62	8.3	0.0	No	2.0	12.924122310305801	1.465	169.69		GetAnswer	Gain
64.0	3	169.707	0.017	1401.055	8.3	2.0	15.1812	4.0	955.0	5.0	Outcome2	-4.62	8.3	0.0	No		12.924122310305801				ShowChoice	Gain
64.0	3	173.723	0.016	1405.071	8.3	2.0	15.1812	1.0	955.0	5.0	Outcome2	-4.62	8.3	0.0	No		12.924122310305801				ShowResult	Gain
64.0	3	174.739	0.016	1406.087	8.3	2.0	15.1812	5.47	955.0	5.0	Outcome2	-4.62	8.3	0.0	No		12.924122310305801				ISITrial	Gain
65.0	3	180.237	0.028	1411.585	3.1	-3.0	15.5687	3.0	955.0	0.52	Outcome1	3.1	-10.37	2996.75	Yes	2.0	13.471121177802901	2.1	182.337		GetAnswer	Mixed
65.0	3	182.353	0.016	1413.701	3.1	-3.0	15.5687	4.0	955.0	0.52	Outcome1	3.1	-10.37	2996.75	Yes		13.471121177802901				ShowChoice	Mixed
65.0	3	186.368	0.015	1417.716	3.1	-3.0	15.5687	1.0	955.0	0.52	Outcome1	3.1	-10.37	2996.75	Yes		13.471121177802901				ShowResult	Mixed
65.0	3	187.385	0.017	1418.733	3.1	-3.0	15.5687	3.344	955.0	0.52	Outcome1	3.1	-10.37	2996.75	Yes		13.471121177802901				ISITrial	Mixed
65.0	3	193.766	0.019	1425.114	3.1	-3.0	15.5687	0.68	955.0	0.52	Outcome1	3.1	-10.37	2996.75	Yes		13.471121177802901			532.0	TrialHappiness	Mixed
65.0	3	197.781	4.015	1429.129	3.1	-3.0	15.5687	3.987	955.0	0.52	Outcome1	3.1	-10.37	2996.75	Yes		13.471121177802901				ISIRate	Mixed
66.0	3	201.796	0.028	1433.144	11.3	-0.85	16.9812	3.0	955.0	2.48	Outcome1	11.3	-1.7	0.0	No	2.0	12.998867497168698	1.499	203.295		GetAnswer	Loss
66.0	3	203.313	0.018	1434.661	11.3	-0.85	16.9812	4.0	955.0	2.48	Outcome1	11.3	-1.7	0.0	No		12.998867497168698				ShowChoice	Loss
66.0	3	207.328	0.015	1438.676	11.3	-0.85	16.9812	1.0	955.0	2.48	Outcome1	11.3	-1.7	0.0	No		12.998867497168698				ShowResult	Loss
66.0	3	208.344	0.016	1439.692	11.3	-0.85	16.9812	3.959	955.0	2.48	Outcome1	11.3	-1.7	0.0	No		12.998867497168698				ISITrial	Loss
67.0	3	212.326	0.023	1443.674	2.0	2.0	17.2312	3.0	955.0	0.82	Certain	1.26	3.5	2918.5	Yes	4.0	-2.24093997734994	2.339	214.665		GetAnswer	Mixed
67.0	3	214.692	0.027	1446.04	2.0	2.0	17.2312	4.0	955.0	0.82	Certain	1.26	3.5	2918.5	Yes		-2.24093997734994				ShowChoice	Mixed
67.0	3	218.707	0.015	1450.055	2.0	2.0	17.2312	1.0	955.0	0.82	Certain	1.26	3.5	2918.5	Yes		-2.24093997734994				ShowResult	Mixed
67.0	3	219.724	0.017	1451.072	2.0	2.0	17.2312	4.199	955.0	0.82	Certain	1.26	3.5	2918.5	Yes		-2.24093997734994				ISITrial	Mixed
67.0	3	226.888	0.031	1458.236	2.0	2.0	17.2312	3.159	955.0	0.82	Certain	1.26	3.5	2918.5	Yes		-2.24093997734994			596.0	TrialHappiness	Mixed
67.0	3	230.903	4.015	1462.251	2.0	2.0	17.2312	3.674	955.0	0.82	Certain	1.26	3.5	2918.5	Yes		-2.24093997734994				ISIRate	Mixed
68.0	3	234.602	0.025	1465.95	1.3	-5.0	17.3937	3.0	955.0	0.66	Outcome2	-11.57	1.3	0.0	No	2.0	12.8697621744054	1.896	236.498		GetAnswer	Mixed
68.0	3	236.518	0.02	1467.866	1.3	-5.0	17.3937	4.0	955.0	0.66	Outcome2	-11.57	1.3	0.0	No		12.8697621744054				ShowChoice	Mixed
68.0	3	240.533	0.015	1471.881	1.3	-5.0	17.3937	1.0	955.0	0.66	Outcome2	-11.57	1.3	0.0	No		12.8697621744054				ShowResult	Mixed
68.0	3	241.549	0.016	1472.897	1.3	-5.0	17.3937	2.185	955.0	0.66	Outcome2	-11.57	1.3	0.0	No		12.8697621744054				ISITrial	Mixed
69.0	3	243.765	0.031	1475.113	8.24	4.12	18.4237	3.0	955.0	5.0	Outcome1	8.24	10.3	0.0	No	2.0	-2.05502076255191	1.814	245.579		GetAnswer	Gain
69.0	3	245.598	0.019	1476.946	8.24	4.12	18.4237	4.0	955.0	5.0	Outcome1	8.24	10.3	0.0	No		-2.05502076255191				ShowChoice	Gain
69.0	3	249.613	0.015	1480.961	8.24	4.12	18.4237	1.0	955.0	5.0	Outcome1	8.24	10.3	0.0	No		-2.05502076255191				ShowResult	Gain
69.0	3	250.63	0.017	1481.978	8.24	4.12	18.4237	2.0	955.0	5.0	Outcome1	8.24	10.3	0.0	No		-2.05502076255191				ISITrial	Gain
70.0	3	252.662	0.032	1484.01	-2.0	-2.0	18.1737	3.0	955.0	0.52	Certain	-0.9	-2.99	3651.25	Yes	4.0	-2.08890147225368	2.776	255.438		GetAnswer	Mixed
70.0	3	255.461	0.023	1486.809	-2.0	-2.0	18.1737	4.0	955.0	0.52	Certain	-0.9	-2.99	3651.25	Yes		-2.08890147225368				ShowChoice	Mixed
70.0	3	259.476	0.015	1490.824	-2.0	-2.0	18.1737	1.0	955.0	0.52	Certain	-0.9	-2.99	3651.25	Yes		-2.08890147225368				ShowResult	Mixed
70.0	3	260.493	0.017	1491.841	-2.0	-2.0	18.1737	2.623	955.0	0.52	Certain	-0.9	-2.99	3651.25	Yes		-2.08890147225368				ISITrial	Mixed
70.0	3	266.824	0.031	1498.172	-2.0	-2.0	18.1737	2.004	955.0	0.52	Certain	-0.9	-2.99	3651.25	Yes		-2.08890147225368			480.0	TrialHappiness	Mixed
70.0	3	270.839	4.015	1502.187	-2.0	-2.0	18.1737	6.605	955.0	0.52	Certain	-0.9	-2.99	3651.25	Yes		-2.08890147225368				ISIRate	Mixed
71.0	3	277.47	0.026	1508.818	4.91	2.46	18.7875	3.0	955.0	2.8	Outcome1	4.91	7.5	0.0	No	2.0	-2.5935258588146497	1.696	279.166		GetAnswer	Gain
71.0	3	279.186	0.02	1510.534	4.91	2.46	18.7875	4.0	955.0	2.8	Outcome1	4.91	7.5	0.0	No		-2.5935258588146497				ShowChoice	Gain
71.0	3	283.202	0.016	1514.55	4.91	2.46	18.7875	1.0	955.0	2.8	Outcome1	4.91	7.5	0.0	No		-2.5935258588146497				ShowResult	Gain
71.0	3	284.218	0.016	1515.566	4.91	2.46	18.7875	5.499	955.0	2.8	Outcome1	4.91	7.5	0.0	No		-2.5935258588146497				ISITrial	Gain
72.0	3	289.749	0.032	1521.097	11.9	-2.35	20.275	3.0	955.0	3.6	Outcome2	-4.7	11.9	3080.5	Yes	2.0	16.5979614949037	1.188	290.937		GetAnswer	Loss
72.0	3	290.949	0.012	1522.297	11.9	-2.35	20.275	4.0	955.0	3.6	Outcome2	-4.7	11.9	3080.5	Yes		16.5979614949037				ShowChoice	Loss
72.0	3	294.964	0.015	1526.312	11.9	-2.35	20.275	1.0	955.0	3.6	Outcome2	-4.7	11.9	3080.5	Yes		16.5979614949037				ShowResult	Loss
72.0	3	295.98	0.016	1527.328	11.9	-2.35	20.275	5.672	955.0	3.6	Outcome2	-4.7	11.9	3080.5	Yes		16.5979614949037				ISITrial	Loss
72.0	3	304.777	0.018	1536.125	11.9	-2.35	20.275	0.909	955.0	3.6	Outcome2	-4.7	11.9	3080.5	Yes		16.5979614949037			552.0	TrialHappiness	Loss
72.0	3	308.793	4.016	1540.141	11.9	-2.35	20.275	4.322	955.0	3.6	Outcome2	-4.7	11.9	3080.5	Yes		16.5979614949037				ISIRate	Loss
73.0	3	313.141	0.026	1544.489	5.9	-2.0	21.0125	3.0	955.0	3.6	Outcome2	-10.01	5.9	0.0	No	2.0	15.912797281993198	2.319	315.46		GetAnswer	Gain
73.0	3	315.474	0.013	1546.822	5.9	-2.0	21.0125	4.0	955.0	3.6	Outcome2	-10.01	5.9	0.0	No		15.912797281993198				ShowChoice	Gain
73.0	3	319.489	0.015	1550.837	5.9	-2.0	21.0125	1.0	955.0	3.6	Outcome2	-10.01	5.9	0.0	No		15.912797281993198				ShowResult	Gain
73.0	3	320.505	0.016	1551.853	5.9	-2.0	21.0125	4.616	955.0	3.6	Outcome2	-10.01	5.9	0.0	No		15.912797281993198				ISITrial	Gain
74.0	3	325.154	0.033	1556.502	6.3	-2.0	21.8	3.0	955.0	5.0	Outcome2	-10.07	6.3	3056.25	Yes	2.0	16.3691959229898	1.632	326.786		GetAnswer	Gain
74.0	3	326.803	0.017	1558.151	6.3	-2.0	21.8	4.0	955.0	5.0	Outcome2	-10.07	6.3	3056.25	Yes		16.3691959229898				ShowChoice	Gain
74.0	3	330.818	0.015	1562.166	6.3	-2.0	21.8	1.0	955.0	5.0	Outcome2	-10.07	6.3	3056.25	Yes		16.3691959229898				ShowResult	Gain
74.0	3	331.835	0.017	1563.183	6.3	-2.0	21.8	3.909	955.0	5.0	Outcome2	-10.07	6.3	3056.25	Yes		16.3691959229898				ISITrial	Gain
74.0	3	338.849	0.026	1570.197	6.3	-2.0	21.8	2.1	955.0	5.0	Outcome2	-10.07	6.3	3056.25	Yes		16.3691959229898			564.0	TrialHappiness	Gain
74.0	3	342.864	4.015	1574.212	6.3	-2.0	21.8	4.225	955.0	5.0	Outcome2	-10.07	6.3	3056.25	Yes		16.3691959229898				ISIRate	Gain
75.0	3	347.113	0.024	1578.461	-0.3	-8.0	21.7625	3.0	955.0	1.0	Outcome1	-0.3	-16.92	0.0	No		16.6217440543601				GetAnswer	Mixed
75.0	3	350.128	0.015	1581.476	-0.3	-8.0	21.7625	4.0	955.0	1.0	Outcome1	-0.3	-16.92	0.0	No		16.6217440543601				ShowChoice	Mixed
75.0	3	354.144	0.016	1585.492	-0.3	-8.0	21.7625	1.0	955.0	1.0	Outcome1	-0.3	-16.92	0.0	No		16.6217440543601				ShowResult	Mixed
75.0	3	355.16	0.016	1586.508	-0.3	-8.0	21.7625	4.979	955.0	1.0	Outcome1	-0.3	-16.92	0.0	No		16.6217440543601				ISITrial	Mixed
76.0	3	360.158	0.019	1591.506	6.64	3.32	22.5925	3.0	955.0	2.22	Outcome2	9.1	6.64	0.0	No	2.0	-2.45526613816534	1.609	361.767		GetAnswer	Gain
76.0	3	361.791	0.024	1593.139	6.64	3.32	22.5925	4.0	955.0	2.22	Outcome2	9.1	6.64	0.0	No		-2.45526613816534				ShowChoice	Gain
76.0	3	365.806	0.015	1597.154	6.64	3.32	22.5925	1.0	955.0	2.22	Outcome2	9.1	6.64	0.0	No		-2.45526613816534				ShowResult	Gain
76.0	3	366.823	0.017	1598.171	6.64	3.32	22.5925	3.931	955.0	2.22	Outcome2	9.1	6.64	0.0	No		-2.45526613816534				ISITrial	Gain
77.0	3	370.771	0.017	1602.119	11.1	2.0	23.98	3.0	955.0	2.22	Outcome2	-6.41	11.1	4000.0	Yes	2.0	17.507361268403198	0.987	371.758		GetAnswer	Loss
77.0	3	371.771	0.013	1603.119	11.1	2.0	23.98	4.0	955.0	2.22	Outcome2	-6.41	11.1	4000.0	Yes		17.507361268403198				ShowChoice	Loss
77.0	3	375.786	0.015	1607.134	11.1	2.0	23.98	1.0	955.0	2.22	Outcome2	-6.41	11.1	4000.0	Yes		17.507361268403198				ShowResult	Loss
77.0	3	376.803	0.017	1608.151	11.1	2.0	23.98	7.022	955.0	2.22	Outcome2	-6.41	11.1	4000.0	Yes		17.507361268403198				ISITrial	Loss
77.0	3	387.865	0.015	1619.213	11.1	2.0	23.98	1.489	955.0	2.22	Outcome2	-6.41	11.1	4000.0	Yes		17.507361268403198			532.0	TrialHappiness	Loss
77.0	3	391.881	4.016	1623.229	11.1	2.0	23.98	8.0	955.0	2.22	Outcome2	-6.41	11.1	4000.0	Yes		17.507361268403198				ISIRate	Loss
78.0	3	399.911	0.03	1631.259	12.5	-3.0	25.5425	3.0	955.0	1.68	Outcome1	12.5	-5.99	0.0	No	2.0	18.4937712344281	1.83	401.741		GetAnswer	Loss
78.0	3	401.761	0.02	1633.109	12.5	-3.0	25.5425	4.0	955.0	1.68	Outcome1	12.5	-5.99	0.0	No		18.4937712344281				ShowChoice	Loss
78.0	3	405.776	0.015	1637.124	12.5	-3.0	25.5425	1.0	955.0	1.68	Outcome1	12.5	-5.99	0.0	No		18.4937712344281				ShowResult	Loss
78.0	3	406.792	0.016	1638.14	12.5	-3.0	25.5425	2.078	955.0	1.68	Outcome1	12.5	-5.99	0.0	No		18.4937712344281				ISITrial	Loss
79.0	3	408.891	0.021	1640.239	3.9	-5.0	26.03	3.0	955.0	1.2	Outcome2	-15.07	3.9	2729.5	Yes		18.972819932049802				GetAnswer	Mixed
79.0	3	411.907	0.016	1643.255	3.9	-5.0	26.03	4.0	955.0	1.2	Outcome2	-15.07	3.9	2729.5	Yes		18.972819932049802				ShowChoice	Mixed
79.0	3	415.922	0.015	1647.27	3.9	-5.0	26.03	1.0	955.0	1.2	Outcome2	-15.07	3.9	2729.5	Yes		18.972819932049802				ShowResult	Mixed
79.0	3	416.939	0.017	1648.287	3.9	-5.0	26.03	3.829	955.0	1.2	Outcome2	-15.07	3.9	2729.5	Yes		18.972819932049802				ISITrial	Mixed
79.0	3	423.536	0.019	1654.884	3.9	-5.0	26.03	2.924	955.0	1.2	Outcome2	-15.07	3.9	2729.5	Yes		18.972819932049802			612.0	TrialHappiness	Mixed
79.0	3	427.552	4.016	1658.9	3.9	-5.0	26.03	2.918	955.0	1.2	Outcome2	-15.07	3.9	2729.5	Yes		18.972819932049802				ISIRate	Mixed
80.0	3	430.501	0.031	1661.849	7.5	-1.0	26.9675	3.0	955.0	2.8	Outcome2	-10.59	7.5	0.0	No	2.0	18.092865232163103	1.671	432.172		GetAnswer	Gain
80.0	3	432.2	0.027	1663.548	7.5	-1.0	26.9675	4.0	955.0	2.8	Outcome2	-10.59	7.5	0.0	No		18.092865232163103				ShowChoice	Gain
80.0	3	436.215	0.015	1667.563	7.5	-1.0	26.9675	1.0	955.0	2.8	Outcome2	-10.59	7.5	0.0	No		18.092865232163103				ShowResult	Gain
80.0	3	437.232	0.017	1668.58	7.5	-1.0	26.9675	3.336	955.0	2.8	Outcome2	-10.59	7.5	0.0	No		18.092865232163103				ISITrial	Gain
81.0	3	440.597	0.029	1671.945	5.25	2.62	27.6237	3.0	955.0	3.16	Outcome1	5.25	7.7	3923.75	Yes	2.0	-2.4464892412231003	2.116	442.713		GetAnswer	Gain
81.0	3	442.73	0.017	1674.078	5.25	2.62	27.6237	4.0	955.0	3.16	Outcome1	5.25	7.7	3923.75	Yes		-2.4464892412231003				ShowChoice	Gain
81.0	3	446.745	0.015	1678.093	5.25	2.62	27.6237	1.0	955.0	3.16	Outcome1	5.25	7.7	3923.75	Yes		-2.4464892412231003				ShowResult	Gain
81.0	3	447.761	0.016	1679.109	5.25	2.62	27.6237	3.919	955.0	3.16	Outcome1	5.25	7.7	3923.75	Yes		-2.4464892412231003				ISITrial	Gain
81.0	3	455.642	0.025	1686.99	5.25	2.62	27.6237	2.138	955.0	3.16	Outcome1	5.25	7.7	3923.75	Yes		-2.4464892412231003			632.0	TrialHappiness	Gain
81.0	3	459.657	4.015	1691.005	5.25	2.62	27.6237	7.695	955.0	3.16	Outcome1	5.25	7.7	3923.75	Yes		-2.4464892412231003				ISIRate	Gain
	3	467.371	0.019	1698.719				3.0													CurrentEarnings	
	3	470.387	0.016	1701.735				-0.001								4.0		24.999	495.386		Goodbye	
