trial_number	block	onset	onset_delay	onset_unadjusted	amount_change	certain_amount	current_amount	duration	mood_target	multiplier	outcome	outcome1_amount	outcome2_amount	question_duration	rating	response	rpe	rt	rt_time	slider_response	trial_phase	trial_type
	0	-86.184	0.018	35.356				-0.001								{SPACE}		2.284	-83.9		Welcome	
	0	-83.874	0.026	37.666				5.0													LifeHappyPreview	
	0	-78.843	0.031	42.697				4.946												704.0	LifeHappiness	
	0	-60.388	0.024	61.152				4.0													BlockHappyPreview	
	0	-56.376	0.012	65.164				1.027												560.0	BlockStartHappiness	
	0	-2.749	0.017	118.791				-0.001								5.0					ScanWait	
	1	0.026	0.026	121.566				10.0													GetReady	
1.0	1	10.056	0.03	131.596	0.0	0.0	10.0	3.0	955.0	0.3	Certain	-4.01	2.7	0.0	No	4.0	6.71007927519819	2.904	12.96		GetAnswer	Mixed
1.0	1	12.982	0.022	134.522	0.0	0.0	10.0	4.0	955.0	0.3	Certain	-4.01	2.7	0.0	No		6.71007927519819				ShowChoice	Mixed
1.0	1	17.011	0.029	138.551	0.0	0.0	10.0	1.0	955.0	0.3	Certain	-4.01	2.7	0.0	No		6.71007927519819				ShowResult	Mixed
1.0	1	18.03	0.019	139.57	0.0	0.0	10.0	2.431	955.0	0.3	Certain	-4.01	2.7	0.0	No		6.71007927519819				ISITrial	Mixed
2.0	1	20.488	0.027	142.028	-3.0	-3.0	9.625	3.0	955.0	1.2	Certain	-7.26	-0.1	0.0	No	4.0	7.15741789354473	2.699	23.187		GetAnswer	Mixed
2.0	1	23.212	0.025	144.752	-3.0	-3.0	9.625	4.0	955.0	1.2	Certain	-7.26	-0.1	0.0	No		7.15741789354473				ShowChoice	Mixed
2.0	1	27.224	0.012	148.764	-3.0	-3.0	9.625	1.0	955.0	1.2	Certain	-7.26	-0.1	0.0	No		7.15741789354473				ShowResult	Mixed
2.0	1	28.244	0.02	149.784	-3.0	-3.0	9.625	4.568	955.0	1.2	Certain	-7.26	-0.1	0.0	No		7.15741789354473				ISITrial	Mixed
3.0	1	32.841	0.029	154.381	6.7	-0.45	10.4625	3.0	955.0	1.82	Outcome2	-0.9	6.7	2868.0	Yes	2.0	7.6047565118912805	1.974	34.815		GetAnswer	Gain
3.0	1	34.847	0.032	156.387	6.7	-0.45	10.4625	4.0	955.0	1.82	Outcome2	-0.9	6.7	2868.0	Yes		7.6047565118912805				ShowChoice	Gain
3.0	1	38.876	0.029	160.416	6.7	-0.45	10.4625	1.0	955.0	1.82	Outcome2	-0.9	6.7	2868.0	Yes		7.6047565118912805				ShowResult	Gain
3.0	1	39.896	0.02	161.436	6.7	-0.45	10.4625	3.243	955.0	1.82	Outcome2	-0.9	6.7	2868.0	Yes		7.6047565118912805				ISITrial	Gain
3.0	1	46.047	0.024	167.587	6.7	-0.45	10.4625	3.768	955.0	1.82	Outcome2	-0.9	6.7	2868.0	Yes		7.6047565118912805			584.0	TrialHappiness	Gain
3.0	1	50.076	4.029	171.616	6.7	-0.45	10.4625	3.472	955.0	1.82	Outcome2	-0.9	6.7	2868.0	Yes		7.6047565118912805				ISIRate	Gain
4.0	1	53.57	0.022	175.11	0.0	0.0	10.4625	3.0	955.0	1.5	Certain	-3.54	4.1	0.0	No	4.0	7.644394110985281	2.763	56.333		GetAnswer	Mixed
4.0	1	56.362	0.029	177.902	0.0	0.0	10.4625	4.0	955.0	1.5	Certain	-3.54	4.1	0.0	No		7.644394110985281				ShowChoice	Mixed
4.0	1	60.39	0.028	181.93	0.0	0.0	10.4625	1.0	955.0	1.5	Certain	-3.54	4.1	0.0	No		7.644394110985281				ShowResult	Mixed
4.0	1	61.41	0.02	182.95	0.0	0.0	10.4625	2.011	955.0	1.5	Certain	-3.54	4.1	0.0	No		7.644394110985281				ISITrial	Mixed
5.0	1	63.449	0.028	184.989	-1.0	-1.0	10.3375	3.0	955.0	0.52	Certain	-0.9	-2.55	2582.5	Yes	4.0	-1.65241600604002	2.537	65.986		GetAnswer	Mixed
5.0	1	66.007	0.02	187.547	-1.0	-1.0	10.3375	4.0	955.0	0.52	Certain	-0.9	-2.55	2582.5	Yes		-1.65241600604002				ShowChoice	Mixed
5.0	1	70.036	0.029	191.576	-1.0	-1.0	10.3375	1.0	955.0	0.52	Certain	-0.9	-2.55	2582.5	Yes		-1.65241600604002				ShowResult	Mixed
5.0	1	71.055	0.019	192.595	-1.0	-1.0	10.3375	5.129	955.0	0.52	Certain	-0.9	-2.55	2582.5	Yes		-1.65241600604002				ISITrial	Mixed
5.0	1	78.812	0.026	200.352	-1.0	-1.0	10.3375	1.13	955.0	0.52	Certain	-0.9	-2.55	2582.5	Yes		-1.65241600604002			532.0	TrialHappiness	Mixed
5.0	1	82.841	4.029	204.381	-1.0	-1.0	10.3375	2.33	955.0	0.52	Certain	-0.9	-2.55	2582.5	Yes		-1.65241600604002				ISIRate	Mixed
6.0	1	85.198	0.027	206.738	5.7	1.0	11.05	3.0	955.0	3.16	Outcome1	5.7	-3.67	0.0	No	2.0	9.36806342015855	2.693	87.891		GetAnswer	Gain
6.0	1	87.906	0.015	209.446	5.7	1.0	11.05	4.0	955.0	3.16	Outcome1	5.7	-3.67	0.0	No		9.36806342015855				ShowChoice	Gain
6.0	1	91.935	0.029	213.475	5.7	1.0	11.05	1.0	955.0	3.16	Outcome1	5.7	-3.67	0.0	No		9.36806342015855				ShowResult	Gain
6.0	1	92.954	0.019	214.494	5.7	1.0	11.05	6.232	955.0	3.16	Outcome1	5.7	-3.67	0.0	No		9.36806342015855				ISITrial	Gain
7.0	1	99.206	0.02	220.746	4.7	0.0	11.6375	3.0	955.0	1.82	Outcome1	4.7	-5.15	0.0	No		9.84711211778029				GetAnswer	Gain
7.0	1	102.232	0.026	223.772	4.7	0.0	11.6375	4.0	955.0	1.82	Outcome1	4.7	-5.15	0.0	No		9.84711211778029				ShowChoice	Gain
7.0	1	106.261	0.029	227.801	4.7	0.0	11.6375	1.0	955.0	1.82	Outcome1	4.7	-5.15	0.0	No		9.84711211778029				ShowResult	Gain
7.0	1	107.28	0.019	228.82	4.7	0.0	11.6375	2.305	955.0	1.82	Outcome1	4.7	-5.15	0.0	No		9.84711211778029				ISITrial	Gain
8.0	1	109.604	0.019	231.144	7.1	2.0	12.525	3.0	955.0	2.22	Outcome2	-3.23	7.1	3112.5	Yes	2.0	10.326160815402	1.851	111.455		GetAnswer	Gain
8.0	1	111.476	0.021	233.016	7.1	2.0	12.525	4.0	955.0	2.22	Outcome2	-3.23	7.1	3112.5	Yes		10.326160815402				ShowChoice	Gain
8.0	1	115.505	0.029	237.045	7.1	2.0	12.525	1.0	955.0	2.22	Outcome2	-3.23	7.1	3112.5	Yes		10.326160815402				ShowResult	Gain
8.0	1	116.525	0.02	238.065	7.1	2.0	12.525	3.506	955.0	2.22	Outcome2	-3.23	7.1	3112.5	Yes		10.326160815402				ISITrial	Gain
8.0	1	123.195	0.031	244.735	7.1	2.0	12.525	0.941	955.0	2.22	Outcome2	-3.23	7.1	3112.5	Yes		10.326160815402			632.0	TrialHappiness	Gain
8.0	1	127.223	4.028	248.763	7.1	2.0	12.525	4.45	955.0	2.22	Outcome2	-3.23	7.1	3112.5	Yes		10.326160815402				ISIRate	Gain
9.0	1	131.703	0.03	253.243	10.3	0.6	13.8125	3.0	955.0	5.0	Outcome1	10.3	1.19	0.0	No	2.0	9.10645526613817	1.433	133.136		GetAnswer	Gain
9.0	1	133.158	0.022	254.698	10.3	0.6	13.8125	4.0	955.0	5.0	Outcome1	10.3	1.19	0.0	No		9.10645526613817				ShowChoice	Gain
9.0	1	137.17	0.012	258.71	10.3	0.6	13.8125	1.0	955.0	5.0	Outcome1	10.3	1.19	0.0	No		9.10645526613817				ShowResult	Gain
9.0	1	138.19	0.02	259.73	10.3	0.6	13.8125	2.0	955.0	5.0	Outcome1	10.3	1.19	0.0	No		9.10645526613817				ISITrial	Gain
10.0	1	140.212	0.022	261.752	2.06	1.03	14.07	3.0	955.0	1.0	Outcome2	3.7	2.06	4000.0	Yes	2.0	-1.6428841072102702	1.824	142.036		GetAnswer	Mixed
10.0	1	142.051	0.015	263.591	2.06	1.03	14.07	4.0	955.0	1.0	Outcome2	3.7	2.06	4000.0	Yes		-1.6428841072102702				ShowChoice	Mixed
10.0	1	146.063	0.012	267.603	2.06	1.03	14.07	1.0	955.0	1.0	Outcome2	3.7	2.06	4000.0	Yes		-1.6428841072102702				ShowResult	Mixed
10.0	1	147.083	0.02	268.623	2.06	1.03	14.07	2.0	955.0	1.0	Outcome2	3.7	2.06	4000.0	Yes		-1.6428841072102702				ISITrial	Mixed
10.0	1	153.134	0.029	274.674	2.06	1.03	14.07	2.895	955.0	1.0	Outcome2	3.7	2.06	4000.0	Yes		-1.6428841072102702			628.0	TrialHappiness	Mixed
10.0	1	157.163	4.029	278.703	2.06	1.03	14.07	8.0	955.0	1.0	Outcome2	3.7	2.06	4000.0	Yes		-1.6428841072102702				ISIRate	Mixed
11.0	1	165.187	0.024	286.727	13.1	1.6	15.7075	3.0	955.0	2.22	Outcome2	3.19	13.1	0.0	No	2.0	9.906002265005661	1.27	166.457		GetAnswer	Loss
11.0	1	166.474	0.017	288.014	13.1	1.6	15.7075	4.0	955.0	2.22	Outcome2	3.19	13.1	0.0	No		9.906002265005661				ShowChoice	Loss
11.0	1	170.486	0.012	292.026	13.1	1.6	15.7075	1.0	955.0	2.22	Outcome2	3.19	13.1	0.0	No		9.906002265005661				ShowResult	Loss
11.0	1	171.506	0.02	293.046	13.1	1.6	15.7075	3.324	955.0	2.22	Outcome2	3.19	13.1	0.0	No		9.906002265005661				ISITrial	Loss
12.0	1	174.849	0.019	296.389	10.18	5.09	16.98	3.0	955.0	3.6	Outcome1	10.18	11.9	2618.75	Yes	2.0	-1.72046055115138	1.029	175.878		GetAnswer	Loss
12.0	1	175.902	0.024	297.442	10.18	5.09	16.98	4.0	955.0	3.6	Outcome1	10.18	11.9	2618.75	Yes		-1.72046055115138				ShowChoice	Loss
12.0	1	179.931	0.029	301.471	10.18	5.09	16.98	1.0	955.0	3.6	Outcome1	10.18	11.9	2618.75	Yes		-1.72046055115138				ShowResult	Loss
12.0	1	180.951	0.02	302.491	10.18	5.09	16.98	6.642	955.0	3.6	Outcome1	10.18	11.9	2618.75	Yes		-1.72046055115138				ISITrial	Loss
12.0	1	190.262	0.022	311.802	10.18	5.09	16.98	1.077	955.0	3.6	Outcome1	10.18	11.9	2618.75	Yes		-1.72046055115138			648.0	TrialHappiness	Loss
12.0	1	194.291	4.029	315.831	10.18	5.09	16.98	2.475	955.0	3.6	Outcome1	10.18	11.9	2618.75	Yes		-1.72046055115138				ISIRate	Loss
13.0	1	196.798	0.032	318.338	-5.0	-5.0	16.355	3.0	955.0	0.82	Certain	-0.5	-10.81	0.0	No	4.0	10.3069082672707	1.78	198.578		GetAnswer	Mixed
13.0	1	198.603	0.025	320.143	-5.0	-5.0	16.355	4.0	955.0	0.82	Certain	-0.5	-10.81	0.0	No		10.3069082672707				ShowChoice	Mixed
13.0	1	202.615	0.012	324.155	-5.0	-5.0	16.355	1.0	955.0	0.82	Certain	-0.5	-10.81	0.0	No		10.3069082672707				ShowResult	Mixed
13.0	1	203.635	0.02	325.175	-5.0	-5.0	16.355	3.48	955.0	0.82	Certain	-0.5	-10.81	0.0	No		10.3069082672707				ISITrial	Mixed
14.0	1	207.146	0.031	328.686	-2.8	-2.0	16.005	3.0	955.0	0.4	Outcome1	-2.8	-1.1	0.0	No	2.0	-1.6991317478293702	2.21	209.356		GetAnswer	Mixed
14.0	1	209.386	0.03	330.926	-2.8	-2.0	16.005	4.0	955.0	0.4	Outcome1	-2.8	-1.1	0.0	No		-1.6991317478293702				ShowChoice	Mixed
14.0	1	213.414	0.028	334.954	-2.8	-2.0	16.005	1.0	955.0	0.4	Outcome1	-2.8	-1.1	0.0	No		-1.6991317478293702				ShowResult	Mixed
14.0	1	214.434	0.02	335.974	-2.8	-2.0	16.005	5.019	955.0	0.4	Outcome1	-2.8	-1.1	0.0	No		-1.6991317478293702				ISITrial	Mixed
15.0	1	219.483	0.03	341.023	10.5	-0.25	17.3175	3.0	955.0	1.68	Outcome2	-0.5	10.5	3348.5	Yes	2.0	11.002265005662501	2.31	221.793		GetAnswer	Loss
15.0	1	221.823	0.03	343.363	10.5	-0.25	17.3175	4.0	955.0	1.68	Outcome2	-0.5	10.5	3348.5	Yes		11.002265005662501				ShowChoice	Loss
15.0	1	225.852	0.029	347.392	10.5	-0.25	17.3175	1.0	955.0	1.68	Outcome2	-0.5	10.5	3348.5	Yes		11.002265005662501				ShowResult	Loss
15.0	1	226.871	0.019	348.411	10.5	-0.25	17.3175	7.614	955.0	1.68	Outcome2	-0.5	10.5	3348.5	Yes		11.002265005662501				ISITrial	Loss
15.0	1	237.888	0.029	359.428	10.5	-0.25	17.3175	1.858	955.0	1.68	Outcome2	-0.5	10.5	3348.5	Yes		11.002265005662501			628.0	TrialHappiness	Loss
15.0	1	241.916	4.028	363.456	10.5	-0.25	17.3175	5.394	955.0	1.68	Outcome2	-0.5	10.5	3348.5	Yes		11.002265005662501				ISIRate	Loss
16.0	1	247.333	0.023	368.873	-3.0	-3.0	16.9425	3.0	955.0	2.0	Certain	-9.39	2.3	0.0	No	4.0	11.689694224235598	1.889	249.222		GetAnswer	Mixed
16.0	1	249.238	0.016	370.778	-3.0	-3.0	16.9425	4.0	955.0	2.0	Certain	-9.39	2.3	0.0	No		11.689694224235598				ShowChoice	Mixed
16.0	1	253.267	0.029	374.807	-3.0	-3.0	16.9425	1.0	955.0	2.0	Certain	-9.39	2.3	0.0	No		11.689694224235598				ShowResult	Mixed
16.0	1	254.287	0.02	375.827	-3.0	-3.0	16.9425	3.008	955.0	2.0	Certain	-9.39	2.3	0.0	No		11.689694224235598				ISITrial	Mixed
17.0	1	257.312	0.017	378.852	0.03	1.0	16.9463	3.0	955.0	1.2	Outcome2	1.9	0.03	3041.5	Yes	2.0	-1.8691015477538702	1.529	258.841		GetAnswer	Mixed
17.0	1	258.867	0.026	380.407	0.03	1.0	16.9463	4.0	955.0	1.2	Outcome2	1.9	0.03	3041.5	Yes		-1.8691015477538702				ShowChoice	Mixed
17.0	1	262.896	0.029	384.436	0.03	1.0	16.9463	1.0	955.0	1.2	Outcome2	1.9	0.03	3041.5	Yes		-1.8691015477538702				ShowResult	Mixed
17.0	1	263.915	0.019	385.455	0.03	1.0	16.9463	3.566	955.0	1.2	Outcome2	1.9	0.03	3041.5	Yes		-1.8691015477538702				ISITrial	Mixed
17.0	1	270.569	0.017	392.109	0.03	1.0	16.9463	1.008	955.0	1.2	Outcome2	1.9	0.03	3041.5	Yes		-1.8691015477538702			632.0	TrialHappiness	Mixed
17.0	1	274.597	4.028	396.137	0.03	1.0	16.9463	4.166	955.0	1.2	Outcome2	1.9	0.03	3041.5	Yes		-1.8691015477538702				ISIRate	Mixed
18.0	1	278.793	0.03	400.333	8.5	2.0	18.0088	3.0	955.0	1.68	Outcome1	8.5	-3.86	0.0	No	2.0	12.3624009060023	1.608	280.401		GetAnswer	Gain
18.0	1	280.431	0.03	401.971	8.5	2.0	18.0088	4.0	955.0	1.68	Outcome1	8.5	-3.86	0.0	No		12.3624009060023				ShowChoice	Gain
18.0	1	284.46	0.029	406.0	8.5	2.0	18.0088	1.0	955.0	1.68	Outcome1	8.5	-3.86	0.0	No		12.3624009060023				ShowResult	Gain
18.0	1	285.48	0.02	407.02	8.5	2.0	18.0088	6.787	955.0	1.68	Outcome1	8.5	-3.86	0.0	No		12.3624009060023				ISITrial	Gain
19.0	1	292.3	0.033	413.84	10.1	-1.32	19.2713	3.0	955.0	4.2	Outcome1	10.1	-2.63	0.0	No	2.0	12.7281993204983	1.625	293.925		GetAnswer	Gain
19.0	1	293.955	0.03	415.495	10.1	-1.32	19.2713	4.0	955.0	4.2	Outcome1	10.1	-2.63	0.0	No		12.7281993204983				ShowChoice	Gain
19.0	1	297.967	0.012	419.507	10.1	-1.32	19.2713	1.0	955.0	4.2	Outcome1	10.1	-2.63	0.0	No		12.7281993204983				ShowResult	Gain
19.0	1	298.987	0.02	420.527	10.1	-1.32	19.2713	2.0	955.0	4.2	Outcome1	10.1	-2.63	0.0	No		12.7281993204983				ISITrial	Gain
20.0	1	301.01	0.023	422.55	9.5	-1.8	20.4588	3.0	955.0	2.8	Outcome2	-3.59	9.5	2921.25	Yes	2.0	13.093997734994302	1.795	302.805		GetAnswer	Gain
20.0	1	302.832	0.027	424.372	9.5	-1.8	20.4588	4.0	955.0	2.8	Outcome2	-3.59	9.5	2921.25	Yes		13.093997734994302				ShowChoice	Gain
20.0	1	306.86	0.028	428.4	9.5	-1.8	20.4588	1.0	955.0	2.8	Outcome2	-3.59	9.5	2921.25	Yes		13.093997734994302				ShowResult	Gain
20.0	1	307.88	0.02	429.42	9.5	-1.8	20.4588	8.0	955.0	2.8	Outcome2	-3.59	9.5	2921.25	Yes		13.093997734994302				ISITrial	Gain
20.0	1	318.846	0.021	440.386	9.5	-1.8	20.4588	3.268	955.0	2.8	Outcome2	-3.59	9.5	2921.25	Yes		13.093997734994302			668.0	TrialHappiness	Gain
20.0	1	322.875	4.029	444.415	9.5	-1.8	20.4588	3.685	955.0	2.8	Outcome2	-3.59	9.5	2921.25	Yes		13.093997734994302				ISIRate	Gain
21.0	1	326.586	0.026	448.126	11.7	-0.57	21.9213	3.0	955.0	3.16	Outcome1	11.7	-1.15	0.0	No	2.0	12.848244620611599	1.566	328.152		GetAnswer	Loss
21.0	1	328.174	0.021	449.714	11.7	-0.57	21.9213	4.0	955.0	3.16	Outcome1	11.7	-1.15	0.0	No		12.848244620611599				ShowChoice	Loss
21.0	1	332.203	0.029	453.743	11.7	-0.57	21.9213	1.0	955.0	3.16	Outcome1	11.7	-1.15	0.0	No		12.848244620611599				ShowResult	Loss
21.0	1	333.223	0.02	454.763	11.7	-0.57	21.9213	3.555	955.0	3.16	Outcome1	11.7	-1.15	0.0	No		12.848244620611599				ISITrial	Loss
22.0	1	336.8	0.022	458.34	1.0	1.0	22.0463	3.0	955.0	3.16	Certain	7.7	-5.47	3219.5	Yes	4.0	13.173272933182302	1.766	338.566		GetAnswer	Gain
22.0	1	338.589	0.023	460.129	1.0	1.0	22.0463	4.0	955.0	3.16	Certain	7.7	-5.47	3219.5	Yes		13.173272933182302				ShowChoice	Gain
22.0	1	342.617	0.028	464.157	1.0	1.0	22.0463	1.0	955.0	3.16	Certain	7.7	-5.47	3219.5	Yes		13.173272933182302				ShowResult	Gain
22.0	1	343.637	0.02	465.177	1.0	1.0	22.0463	6.793	955.0	3.16	Certain	7.7	-5.47	3219.5	Yes		13.173272933182302				ISITrial	Gain
22.0	1	353.701	0.023	475.241	1.0	1.0	22.0463	2.044	955.0	3.16	Certain	7.7	-5.47	3219.5	Yes	2{-2}2{-2}	13.173272933182302	2.044	355.745	580.0	TrialHappiness	Gain
22.0	1	357.729	4.028	479.269	1.0	1.0	22.0463	4.878	955.0	3.16	Certain	7.7	-5.47	3219.5	Yes		13.173272933182302				ISIRate	Gain
23.0	1	362.627	0.02	484.167	-3.0	-3.0	21.6713	3.0	955.0	2.0	Certain	4.3	-10.69	0.0	No	4.0	14.9932049830125	1.781	364.408		GetAnswer	Mixed
23.0	1	364.433	0.025	485.973	-3.0	-3.0	21.6713	4.0	955.0	2.0	Certain	4.3	-10.69	0.0	No		14.9932049830125				ShowChoice	Mixed
23.0	1	368.461	0.028	490.001	-3.0	-3.0	21.6713	1.0	955.0	2.0	Certain	4.3	-10.69	0.0	No		14.9932049830125				ShowResult	Mixed
23.0	1	369.481	0.02	491.021	-3.0	-3.0	21.6713	8.0	955.0	2.0	Certain	4.3	-10.69	0.0	No		14.9932049830125				ISITrial	Mixed
24.0	1	377.505	0.024	499.045	-7.0	-7.0	20.7963	3.0	955.0	2.0	Certain	-15.12	0.3	3255.0	Yes	4.0	15.417893544733902	1.558	379.063		GetAnswer	Mixed
24.0	1	379.076	0.013	500.616	-7.0	-7.0	20.7963	4.0	955.0	2.0	Certain	-15.12	0.3	3255.0	Yes		15.417893544733902				ShowChoice	Mixed
24.0	1	383.088	0.012	504.628	-7.0	-7.0	20.7963	1.0	955.0	2.0	Certain	-15.12	0.3	3255.0	Yes		15.417893544733902				ShowResult	Mixed
24.0	1	384.108	0.02	505.648	-7.0	-7.0	20.7963	2.0	955.0	2.0	Certain	-15.12	0.3	3255.0	Yes		15.417893544733902				ISITrial	Mixed
24.0	1	389.407	0.021	510.947	-7.0	-7.0	20.7963	0.931	955.0	2.0	Certain	-15.12	0.3	3255.0	Yes		15.417893544733902			492.0	TrialHappiness	Mixed
24.0	1	393.436	4.029	514.976	-7.0	-7.0	20.7963	5.02	955.0	2.0	Certain	-15.12	0.3	3255.0	Yes		15.417893544733902				ISIRate	Mixed
25.0	1	398.484	0.028	520.024	-6.0	-6.0	20.0463	3.0	955.0	1.5	Certain	-15.24	2.1	0.0	No	4.0	17.3374858437146	1.486	399.97		GetAnswer	Mixed
25.0	1	399.989	0.019	521.529	-6.0	-6.0	20.0463	4.0	955.0	1.5	Certain	-15.24	2.1	0.0	No		17.3374858437146				ShowChoice	Mixed
25.0	1	404.001	0.012	525.541	-6.0	-6.0	20.0463	1.0	955.0	1.5	Certain	-15.24	2.1	0.0	No		17.3374858437146				ShowResult	Mixed
25.0	1	405.021	0.02	526.561	-6.0	-6.0	20.0463	3.749	955.0	1.5	Certain	-15.24	2.1	0.0	No		17.3374858437146				ISITrial	Mixed
26.0	1	408.799	0.029	530.339	9.3	0.0	21.2088	3.0	955.0	2.48	Outcome2	-8.56	9.3	0.0	No	2.0	17.861834654586602	2.202	411.001		GetAnswer	Gain
26.0	1	411.022	0.02	532.562	9.3	0.0	21.2088	4.0	955.0	2.48	Outcome2	-8.56	9.3	0.0	No		17.861834654586602				ShowChoice	Gain
26.0	1	415.051	0.029	536.591	9.3	0.0	21.2088	1.0	955.0	2.48	Outcome2	-8.56	9.3	0.0	No		17.861834654586602				ShowResult	Gain
26.0	1	416.07	0.019	537.61	9.3	0.0	21.2088	7.834	955.0	2.48	Outcome2	-8.56	9.3	0.0	No		17.861834654586602				ISITrial	Gain
27.0	1	423.927	0.023	545.467	-9.0	-9.0	20.0838	3.0	955.0	1.5	Certain	-18.29	0.1	2549.75	Yes	4.0	18.3861834654587	2.051	425.978		GetAnswer	Mixed
27.0	1	426.0	0.022	547.54	-9.0	-9.0	20.0838	4.0	955.0	1.5	Certain	-18.29	0.1	2549.75	Yes		18.3861834654587				ShowChoice	Mixed
27.0	1	430.012	0.012	551.552	-9.0	-9.0	20.0838	1.0	955.0	1.5	Certain	-18.29	0.1	2549.75	Yes		18.3861834654587				ShowResult	Mixed
27.0	1	431.032	0.02	552.572	-9.0	-9.0	20.0838	4.225	955.0	1.5	Certain	-18.29	0.1	2549.75	Yes		18.3861834654587				ISITrial	Mixed
27.0	1	437.852	0.024	559.392	-9.0	-9.0	20.0838	3.485	955.0	1.5	Certain	-18.29	0.1	2549.75	Yes		18.3861834654587			512.0	TrialHappiness	Mixed
27.0	1	441.881	4.029	563.421	-9.0	-9.0	20.0838	2.199	955.0	1.5	Certain	-18.29	0.1	2549.75	Yes		18.3861834654587				ISIRate	Mixed
	1	444.104	0.024	565.644				-0.001								{SPACE}		19.007	463.111		Rest	
	1	463.128	0.017	584.668				4.0													BlockHappyPreview	
	1	467.14	0.012	588.68				0.759												568.0	BlockStartHappiness	
	1	480.647	0.016	602.187				-0.001								5.0		1.127	481.774		ScanWait	
	2	0.026	0.026	603.34				10.0													GetReady	
28.0	2	10.056	0.03	613.37	5.03	2.52	20.7126	3.0	70.0	2.8	Outcome2	13.5	5.03	0.0	No	2.0	-8.469387755102039	1.165	11.221		GetAnswer	Loss
28.0	2	11.243	0.022	614.557	5.03	2.52	20.7126	4.0	70.0	2.8	Outcome2	13.5	5.03	0.0	No		-8.469387755102039				ShowChoice	Loss
28.0	2	15.255	0.012	618.569	5.03	2.52	20.7126	1.0	70.0	2.8	Outcome2	13.5	5.03	0.0	No		-8.469387755102039				ShowResult	Loss
28.0	2	16.275	0.02	619.589	5.03	2.52	20.7126	3.575	70.0	2.8	Outcome2	13.5	5.03	0.0	No		-8.469387755102039				ISITrial	Loss
29.0	2	19.869	0.019	623.183	4.27	2.13	21.2464	3.0	70.0	2.48	Outcome1	4.27	13.3	3529.0	Yes	2.0	-9.03401360544218	1.068	20.937		GetAnswer	Loss
29.0	2	20.955	0.018	624.269	4.27	2.13	21.2464	4.0	70.0	2.48	Outcome1	4.27	13.3	3529.0	Yes		-9.03401360544218				ShowChoice	Loss
29.0	2	24.967	0.012	628.281	4.27	2.13	21.2464	1.0	70.0	2.48	Outcome1	4.27	13.3	3529.0	Yes		-9.03401360544218				ShowResult	Loss
29.0	2	25.987	0.02	629.301	4.27	2.13	21.2464	3.955	70.0	2.48	Outcome1	4.27	13.3	3529.0	Yes		-9.03401360544218				ISITrial	Loss
29.0	2	33.526	0.031	636.84	4.27	2.13	21.2464	1.329	70.0	2.48	Outcome1	4.27	13.3	3529.0	Yes		-9.03401360544218			592.0	TrialHappiness	Loss
29.0	2	37.538	4.012	640.852	4.27	2.13	21.2464	6.116	70.0	2.48	Outcome1	4.27	13.3	3529.0	Yes		-9.03401360544218				ISIRate	Loss
30.0	2	43.673	0.019	646.987	-4.0	-4.0	20.7464	3.0	70.0	0.4	Certain	0.9	-9.11	0.0	No	4.0	-10.0068027210884	1.266	44.939		GetAnswer	Mixed
30.0	2	44.961	0.022	648.275	-4.0	-4.0	20.7464	4.0	70.0	0.4	Certain	0.9	-9.11	0.0	No		-10.0068027210884				ShowChoice	Mixed
30.0	2	48.973	0.012	652.287	-4.0	-4.0	20.7464	1.0	70.0	0.4	Certain	0.9	-9.11	0.0	No		-10.0068027210884				ShowResult	Mixed
30.0	2	49.992	0.019	653.306	-4.0	-4.0	20.7464	4.453	70.0	0.4	Certain	0.9	-9.11	0.0	No		-10.0068027210884				ISITrial	Mixed
31.0	2	54.472	0.027	657.786	-1.7	-0.85	20.5339	3.0	70.0	2.0	Outcome1	-1.7	8.9	2503.25	Yes	2.0	-10.5986394557823	1.685	56.157		GetAnswer	Gain
31.0	2	56.177	0.02	659.491	-1.7	-0.85	20.5339	4.0	70.0	2.0	Outcome1	-1.7	8.9	2503.25	Yes		-10.5986394557823				ShowChoice	Gain
31.0	2	60.189	0.012	663.503	-1.7	-0.85	20.5339	1.0	70.0	2.0	Outcome1	-1.7	8.9	2503.25	Yes		-10.5986394557823				ShowResult	Gain
31.0	2	61.209	0.02	664.523	-1.7	-0.85	20.5339	4.786	70.0	2.0	Outcome1	-1.7	8.9	2503.25	Yes		-10.5986394557823				ISITrial	Gain
31.0	2	68.531	0.021	671.845	-1.7	-0.85	20.5339	1.738	70.0	2.0	Outcome1	-1.7	8.9	2503.25	Yes		-10.5986394557823			500.0	TrialHappiness	Gain
31.0	2	72.543	4.012	675.857	-1.7	-0.85	20.5339	2.013	70.0	2.0	Outcome1	-1.7	8.9	2503.25	Yes		-10.5986394557823				ISIRate	Gain
32.0	2	74.582	0.026	677.896	0.07	0.04	20.5427	3.0	70.0	3.16	Outcome2	9.7	0.07	0.0	No	2.0	-9.62585034013605	1.32	75.902		GetAnswer	Gain
32.0	2	75.92	0.018	679.234	0.07	0.04	20.5427	4.0	70.0	3.16	Outcome2	9.7	0.07	0.0	No		-9.62585034013605				ShowChoice	Gain
32.0	2	79.932	0.012	683.246	0.07	0.04	20.5427	1.0	70.0	3.16	Outcome2	9.7	0.07	0.0	No		-9.62585034013605				ShowResult	Gain
32.0	2	80.952	0.02	684.266	0.07	0.04	20.5427	2.0	70.0	3.16	Outcome2	9.7	0.07	0.0	No		-9.62585034013605				ISITrial	Gain
33.0	2	82.974	0.022	686.288	-4.0	-4.0	20.0427	3.0	70.0	0.3	Certain	0.7	-9.41	0.0	No	4.0	-10.1133786848073	1.507	84.481		GetAnswer	Mixed
33.0	2	84.495	0.014	687.809	-4.0	-4.0	20.0427	4.0	70.0	0.3	Certain	0.7	-9.41	0.0	No		-10.1133786848073				ShowChoice	Mixed
33.0	2	88.507	0.012	691.821	-4.0	-4.0	20.0427	1.0	70.0	0.3	Certain	0.7	-9.41	0.0	No		-10.1133786848073				ShowResult	Mixed
33.0	2	89.527	0.02	692.841	-4.0	-4.0	20.0427	5.099	70.0	0.3	Certain	0.7	-9.41	0.0	No		-10.1133786848073				ISITrial	Mixed
34.0	2	94.642	0.016	697.956	-6.0	-6.0	19.2927	3.0	70.0	0.66	Certain	-11.3	-0.7	3231.5	Yes	4.0	-10.600907029478499	1.578	96.22		GetAnswer	Mixed
34.0	2	96.231	0.011	699.545	-6.0	-6.0	19.2927	4.0	70.0	0.66	Certain	-11.3	-0.7	3231.5	Yes		-10.600907029478499				ShowChoice	Mixed
34.0	2	100.243	0.012	703.557	-6.0	-6.0	19.2927	1.0	70.0	0.66	Certain	-11.3	-0.7	3231.5	Yes		-10.600907029478499				ShowResult	Mixed
34.0	2	101.262	0.019	704.576	-6.0	-6.0	19.2927	4.784	70.0	0.66	Certain	-11.3	-0.7	3231.5	Yes		-10.600907029478499				ISITrial	Mixed
34.0	2	109.32	0.028	712.634	-6.0	-6.0	19.2927	1.604	70.0	0.66	Certain	-11.3	-0.7	3231.5	Yes	4{-4}4{-4}4{-4}	-10.600907029478499	1.604	110.924	476.0	TrialHappiness	Mixed
34.0	2	113.332	4.012	716.646	-6.0	-6.0	19.2927	4.926	70.0	0.66	Certain	-11.3	-0.7	3231.5	Yes		-10.600907029478499				ISIRate	Mixed
35.0	2	118.28	0.022	721.594	-2.0	-2.0	19.0427	3.0	70.0	0.4	Certain	-7.78	2.9	0.0	No	4.0	-10.6802721088435	1.661	119.941		GetAnswer	Mixed
35.0	2	119.968	0.027	723.282	-2.0	-2.0	19.0427	4.0	70.0	0.4	Certain	-7.78	2.9	0.0	No		-10.6802721088435				ShowChoice	Mixed
35.0	2	123.98	0.012	727.294	-2.0	-2.0	19.0427	1.0	70.0	0.4	Certain	-7.78	2.9	0.0	No		-10.6802721088435				ShowResult	Mixed
35.0	2	125.0	0.02	728.314	-2.0	-2.0	19.0427	2.098	70.0	0.4	Certain	-7.78	2.9	0.0	No		-10.6802721088435				ISITrial	Mixed
36.0	2	127.123	0.025	730.437	0.0	0.0	19.0427	3.0	70.0	1.0	Certain	-1.58	0.42	3335.75	Yes	4.0	2.0024565381708204	1.932	129.055		GetAnswer	Mixed
36.0	2	129.079	0.024	732.393	0.0	0.0	19.0427	4.0	70.0	1.0	Certain	-1.58	0.42	3335.75	Yes		2.0024565381708204				ShowChoice	Mixed
36.0	2	133.091	0.012	736.405	0.0	0.0	19.0427	1.0	70.0	1.0	Certain	-1.58	0.42	3335.75	Yes		2.0024565381708204				ShowResult	Mixed
36.0	2	134.11	0.019	737.424	0.0	0.0	19.0427	5.156	70.0	1.0	Certain	-1.58	0.42	3335.75	Yes		2.0024565381708204				ISITrial	Mixed
36.0	2	142.653	0.024	745.967	0.0	0.0	19.0427	0.0	70.0	1.0	Certain	-1.58	0.42	3335.75	Yes		2.0024565381708204			512.0	TrialHappiness	Mixed
36.0	2	146.665	4.012	749.979	0.0	0.0	19.0427	5.343	70.0	1.0	Certain	-1.58	0.42	3335.75	Yes		2.0024565381708204				ISIRate	Mixed
37.0	2	152.031	0.023	755.345	-5.0	-5.0	18.4177	3.0	70.0	0.52	Certain	1.1	-11.11	0.0	No	4.0	-12.213151927437599	1.661	153.692		GetAnswer	Mixed
37.0	2	153.719	0.027	757.033	-5.0	-5.0	18.4177	4.0	70.0	0.52	Certain	1.1	-11.11	0.0	No		-12.213151927437599				ShowChoice	Mixed
37.0	2	157.731	0.012	761.045	-5.0	-5.0	18.4177	1.0	70.0	0.52	Certain	1.1	-11.11	0.0	No		-12.213151927437599				ShowResult	Mixed
37.0	2	158.751	0.02	762.065	-5.0	-5.0	18.4177	3.598	70.0	0.52	Certain	1.1	-11.11	0.0	No		-12.213151927437599				ISITrial	Mixed
38.0	2	162.378	0.029	765.692	-6.21	0.0	17.6415	3.0	70.0	1.68	Outcome1	-6.21	6.5	0.0	No	2.0	-12.714285714285701	2.703	165.081		GetAnswer	Gain
38.0	2	165.103	0.022	768.417	-6.21	0.0	17.6415	4.0	70.0	1.68	Outcome1	-6.21	6.5	0.0	No		-12.714285714285701				ShowChoice	Gain
38.0	2	169.115	0.012	772.429	-6.21	0.0	17.6415	1.0	70.0	1.68	Outcome1	-6.21	6.5	0.0	No		-12.714285714285701				ShowResult	Gain
38.0	2	170.135	0.02	773.449	-6.21	0.0	17.6415	4.787	70.0	1.68	Outcome1	-6.21	6.5	0.0	No		-12.714285714285701				ISITrial	Gain
39.0	2	174.949	0.027	778.263	-8.0	-8.0	16.6415	3.0	70.0	0.2	Certain	-1.5	-14.72	2864.25	Yes	4.0	-13.215419501133802	1.782	176.731		GetAnswer	Mixed
39.0	2	176.755	0.024	780.069	-8.0	-8.0	16.6415	4.0	70.0	0.2	Certain	-1.5	-14.72	2864.25	Yes		-13.215419501133802				ShowChoice	Mixed
39.0	2	180.767	0.012	784.081	-8.0	-8.0	16.6415	1.0	70.0	0.2	Certain	-1.5	-14.72	2864.25	Yes		-13.215419501133802				ShowResult	Mixed
39.0	2	181.786	0.019	785.1	-8.0	-8.0	16.6415	2.348	70.0	0.2	Certain	-1.5	-14.72	2864.25	Yes		-13.215419501133802				ISITrial	Mixed
39.0	2	187.052	0.028	790.366	-8.0	-8.0	16.6415	1.261	70.0	0.2	Certain	-1.5	-14.72	2864.25	Yes		-13.215419501133802			472.0	TrialHappiness	Mixed
39.0	2	191.064	4.012	794.378	-8.0	-8.0	16.6415	3.457	70.0	0.2	Certain	-1.5	-14.72	2864.25	Yes		-13.215419501133802				ISIRate	Mixed
40.0	2	194.541	0.02	797.855	2.72	1.0	16.9815	3.0	70.0	2.0	Outcome1	2.72	0.57	0.0	No	2.0	2.14984882842026	1.192	195.733		GetAnswer	Loss
40.0	2	195.745	0.012	799.059	2.72	1.0	16.9815	4.0	70.0	2.0	Outcome1	2.72	0.57	0.0	No		2.14984882842026				ShowChoice	Loss
40.0	2	199.757	0.012	803.071	2.72	1.0	16.9815	1.0	70.0	2.0	Outcome1	2.72	0.57	0.0	No		2.14984882842026				ShowResult	Loss
40.0	2	200.776	0.019	804.09	2.72	1.0	16.9815	3.158	70.0	2.0	Outcome1	2.72	0.57	0.0	No		2.14984882842026				ISITrial	Loss
41.0	2	203.953	0.019	807.267	0.0	0.0	16.9815	3.0	70.0	2.0	Certain	6.9	-6.59	4000.0	Yes	4.0	-13.492063492063501	2.037	205.99		GetAnswer	Gain
41.0	2	206.009	0.019	809.323	0.0	0.0	16.9815	4.0	70.0	2.0	Certain	6.9	-6.59	4000.0	Yes		-13.492063492063501				ShowChoice	Gain
41.0	2	210.021	0.012	813.335	0.0	0.0	16.9815	1.0	70.0	2.0	Certain	6.9	-6.59	4000.0	Yes		-13.492063492063501				ShowResult	Gain
41.0	2	211.04	0.019	814.354	0.0	0.0	16.9815	4.506	70.0	2.0	Certain	6.9	-6.59	4000.0	Yes		-13.492063492063501				ISITrial	Gain
41.0	2	219.599	0.028	822.913	0.0	0.0	16.9815	0.0	70.0	2.0	Certain	6.9	-6.59	4000.0	Yes		-13.492063492063501			512.0	TrialHappiness	Gain
41.0	2	223.611	4.012	826.925	0.0	0.0	16.9815	8.0	70.0	2.0	Certain	6.9	-6.59	4000.0	Yes		-13.492063492063501				ISIRate	Gain
42.0	2	231.635	0.024	834.949	1.0	1.0	17.1065	3.0	70.0	2.22	Certain	-0.11	2.28	0.0	No	4.0	2.38832199546485	1.665	233.3		GetAnswer	Gain
42.0	2	233.324	0.024	836.638	1.0	1.0	17.1065	4.0	70.0	2.22	Certain	-0.11	2.28	0.0	No		2.38832199546485				ShowChoice	Gain
42.0	2	237.336	0.012	840.65	1.0	1.0	17.1065	1.0	70.0	2.22	Certain	-0.11	2.28	0.0	No		2.38832199546485				ShowResult	Gain
42.0	2	238.355	0.019	841.669	1.0	1.0	17.1065	6.248	70.0	2.22	Certain	-0.11	2.28	0.0	No		2.38832199546485				ISITrial	Gain
43.0	2	244.624	0.021	847.938	-10.63	-3.0	15.7777	3.0	70.0	1.68	Outcome1	-10.63	4.5	2775.75	Yes	2.0	-15.129251700680301	1.854	246.478		GetAnswer	Gain
43.0	2	246.496	0.018	849.81	-10.63	-3.0	15.7777	4.0	70.0	1.68	Outcome1	-10.63	4.5	2775.75	Yes		-15.129251700680301				ShowChoice	Gain
43.0	2	250.508	0.012	853.822	-10.63	-3.0	15.7777	1.0	70.0	1.68	Outcome1	-10.63	4.5	2775.75	Yes		-15.129251700680301				ShowResult	Gain
43.0	2	251.528	0.02	854.842	-10.63	-3.0	15.7777	4.596	70.0	1.68	Outcome1	-10.63	4.5	2775.75	Yes		-15.129251700680301				ISITrial	Gain
43.0	2	258.934	0.016	862.248	-10.63	-3.0	15.7777	3.433	70.0	1.68	Outcome1	-10.63	4.5	2775.75	Yes		-15.129251700680301			396.0	TrialHappiness	Gain
43.0	2	262.946	4.012	866.26	-10.63	-3.0	15.7777	3.103	70.0	1.68	Outcome1	-10.63	4.5	2775.75	Yes		-15.129251700680301				ISIRate	Gain
44.0	2	266.072	0.023	869.386	2.0	2.0	16.0277	3.0	70.0	1.82	Certain	8.7	-4.96	0.0	No	4.0	-13.6575963718821	1.538	267.61		GetAnswer	Gain
44.0	2	267.626	0.016	870.94	2.0	2.0	16.0277	4.0	70.0	1.82	Certain	8.7	-4.96	0.0	No		-13.6575963718821				ShowChoice	Gain
44.0	2	271.638	0.012	874.952	2.0	2.0	16.0277	1.0	70.0	1.82	Certain	8.7	-4.96	0.0	No		-13.6575963718821				ShowResult	Gain
44.0	2	272.658	0.02	875.972	2.0	2.0	16.0277	2.42	70.0	1.82	Certain	8.7	-4.96	0.0	No		-13.6575963718821				ISITrial	Gain
45.0	2	275.099	0.021	878.413	-8.0	-8.0	15.0277	3.0	70.0	0.3	Certain	-15.33	-1.3	0.0	No	4.0	-14.0272108843537	2.038	277.137		GetAnswer	Mixed
45.0	2	277.155	0.018	880.469	-8.0	-8.0	15.0277	4.0	70.0	0.3	Certain	-15.33	-1.3	0.0	No		-14.0272108843537				ShowChoice	Mixed
45.0	2	281.167	0.012	884.481	-8.0	-8.0	15.0277	1.0	70.0	0.3	Certain	-15.33	-1.3	0.0	No		-14.0272108843537				ShowResult	Mixed
45.0	2	282.187	0.02	885.501	-8.0	-8.0	15.0277	3.144	70.0	0.3	Certain	-15.33	-1.3	0.0	No		-14.0272108843537				ISITrial	Mixed
46.0	2	285.363	0.032	888.677	-2.3	-1.15	14.7402	3.0	70.0	4.2	Outcome1	-2.3	12.1	3841.25	Yes	2.0	-14.396825396825399	1.85	287.213		GetAnswer	Loss
46.0	2	287.235	0.022	890.549	-2.3	-1.15	14.7402	4.0	70.0	4.2	Outcome1	-2.3	12.1	3841.25	Yes		-14.396825396825399				ShowChoice	Loss
46.0	2	291.247	0.012	894.561	-2.3	-1.15	14.7402	1.0	70.0	4.2	Outcome1	-2.3	12.1	3841.25	Yes		-14.396825396825399				ShowResult	Loss
46.0	2	292.267	0.02	895.581	-2.3	-1.15	14.7402	2.246	70.0	4.2	Outcome1	-2.3	12.1	3841.25	Yes		-14.396825396825399				ISITrial	Loss
46.0	2	298.385	0.021	901.699	-2.3	-1.15	14.7402	3.724	70.0	4.2	Outcome1	-2.3	12.1	3841.25	Yes		-14.396825396825399			472.0	TrialHappiness	Loss
46.0	2	302.397	4.012	905.711	-2.3	-1.15	14.7402	7.365	70.0	4.2	Outcome1	-2.3	12.1	3841.25	Yes		-14.396825396825399				ISIRate	Loss
47.0	2	309.786	0.024	913.1	-3.0	-3.0	14.3652	3.0	70.0	2.0	Certain	-11.16	4.9	0.0	No	4.0	-16.058956916099802	2.263	312.049		GetAnswer	Gain
47.0	2	312.059	0.01	915.373	-3.0	-3.0	14.3652	4.0	70.0	2.0	Certain	-11.16	4.9	0.0	No		-16.058956916099802				ShowChoice	Gain
47.0	2	316.071	0.012	919.385	-3.0	-3.0	14.3652	1.0	70.0	2.0	Certain	-11.16	4.9	0.0	No		-16.058956916099802				ShowResult	Gain
47.0	2	317.091	0.02	920.405	-3.0	-3.0	14.3652	2.0	70.0	2.0	Certain	-11.16	4.9	0.0	No		-16.058956916099802				ISITrial	Gain
48.0	2	319.114	0.023	922.428	1.0	1.0	14.4902	3.0	70.0	3.6	Certain	-6.61	9.9	2831.75	Yes	4.0	-16.5147392290249	1.9	321.014		GetAnswer	Gain
48.0	2	321.036	0.022	924.35	1.0	1.0	14.4902	4.0	70.0	3.6	Certain	-6.61	9.9	2831.75	Yes		-16.5147392290249				ShowChoice	Gain
48.0	2	325.048	0.012	928.362	1.0	1.0	14.4902	1.0	70.0	3.6	Certain	-6.61	9.9	2831.75	Yes		-16.5147392290249				ShowResult	Gain
48.0	2	326.068	0.02	929.382	1.0	1.0	14.4902	3.692	70.0	3.6	Certain	-6.61	9.9	2831.75	Yes		-16.5147392290249				ISITrial	Gain
48.0	2	332.637	0.026	935.951	1.0	1.0	14.4902	0.0	70.0	3.6	Certain	-6.61	9.9	2831.75	Yes		-16.5147392290249			512.0	TrialHappiness	Gain
48.0	2	336.649	4.012	939.963	1.0	1.0	14.4902	3.327	70.0	3.6	Certain	-6.61	9.9	2831.75	Yes		-16.5147392290249				ISIRate	Gain
49.0	2	340.009	0.033	943.323	-3.0	-3.0	14.1152	3.0	70.0	2.22	Certain	5.1	-12.55	0.0	No	4.0	-17.650793650793602	1.893	341.902		GetAnswer	Gain
49.0	2	341.915	0.013	945.229	-3.0	-3.0	14.1152	4.0	70.0	2.22	Certain	5.1	-12.55	0.0	No		-17.650793650793602				ShowChoice	Gain
49.0	2	345.927	0.012	949.241	-3.0	-3.0	14.1152	1.0	70.0	2.22	Certain	5.1	-12.55	0.0	No		-17.650793650793602				ShowResult	Gain
49.0	2	346.947	0.02	950.261	-3.0	-3.0	14.1152	8.0	70.0	2.22	Certain	5.1	-12.55	0.0	No		-17.650793650793602				ISITrial	Gain
50.0	2	354.971	0.024	958.285	-5.0	-5.0	13.4902	3.0	70.0	0.82	Certain	-14.65	3.5	3547.25	Yes	4.0	-18.1519274376417	1.624	356.595		GetAnswer	Mixed
50.0	2	356.609	0.014	959.923	-5.0	-5.0	13.4902	4.0	70.0	0.82	Certain	-14.65	3.5	3547.25	Yes		-18.1519274376417				ShowChoice	Mixed
50.0	2	360.621	0.012	963.935	-5.0	-5.0	13.4902	1.0	70.0	0.82	Certain	-14.65	3.5	3547.25	Yes		-18.1519274376417				ShowResult	Mixed
50.0	2	361.641	0.02	964.955	-5.0	-5.0	13.4902	7.537	70.0	0.82	Certain	-14.65	3.5	3547.25	Yes		-18.1519274376417				ISITrial	Mixed
50.0	2	372.774	0.03	976.088	-5.0	-5.0	13.4902	0.981	70.0	0.82	Certain	-14.65	3.5	3547.25	Yes		-18.1519274376417			460.0	TrialHappiness	Mixed
50.0	2	376.786	4.012	980.1	-5.0	-5.0	13.4902	6.189	70.0	0.82	Certain	-14.65	3.5	3547.25	Yes		-18.1519274376417				ISIRate	Mixed
51.0	2	383.005	0.03	986.319	-1.0	-1.0	13.3652	3.0	70.0	2.48	Certain	7.3	-10.47	0.0	No	4.0	-17.7687074829932	2.602	385.607		GetAnswer	Gain
51.0	2	385.629	0.022	988.943	-1.0	-1.0	13.3652	4.0	70.0	2.48	Certain	7.3	-10.47	0.0	No		-17.7687074829932				ShowChoice	Gain
51.0	2	389.641	0.012	992.955	-1.0	-1.0	13.3652	1.0	70.0	2.48	Certain	7.3	-10.47	0.0	No		-17.7687074829932				ShowResult	Gain
51.0	2	390.661	0.02	993.975	-1.0	-1.0	13.3652	5.508	70.0	2.48	Certain	7.3	-10.47	0.0	No		-17.7687074829932				ISITrial	Gain
52.0	2	396.194	0.025	999.508	3.18	2.0	13.7627	3.0	70.0	1.82	Outcome2	0.63	3.18	0.0	No	2.0	2.5493197278911603	1.621	397.815		GetAnswer	Loss
52.0	2	397.832	0.017	1001.146	3.18	2.0	13.7627	4.0	70.0	1.82	Outcome2	0.63	3.18	0.0	No		2.5493197278911603				ShowChoice	Loss
52.0	2	401.844	0.012	1005.158	3.18	2.0	13.7627	1.0	70.0	1.82	Outcome2	0.63	3.18	0.0	No		2.5493197278911603				ShowResult	Loss
52.0	2	402.864	0.02	1006.178	3.18	2.0	13.7627	5.913	70.0	1.82	Outcome2	0.63	3.18	0.0	No		2.5493197278911603				ISITrial	Loss
53.0	2	408.798	0.021	1012.112	-3.18	-3.18	13.3652	3.0	70.0	5.0	Certain	12.3	-6.35	2996.75	Yes	4.0	-18.6530612244898	1.668	410.466		GetAnswer	Loss
53.0	2	410.487	0.021	1013.801	-3.18	-3.18	13.3652	4.0	70.0	5.0	Certain	12.3	-6.35	2996.75	Yes		-18.6530612244898				ShowChoice	Loss
53.0	2	414.499	0.012	1017.813	-3.18	-3.18	13.3652	1.0	70.0	5.0	Certain	12.3	-6.35	2996.75	Yes		-18.6530612244898				ShowResult	Loss
53.0	2	415.518	0.019	1018.832	-3.18	-3.18	13.3652	3.66	70.0	5.0	Certain	12.3	-6.35	2996.75	Yes		-18.6530612244898				ISITrial	Loss
53.0	2	422.222	0.029	1025.536	-3.18	-3.18	13.3652	0.802	70.0	5.0	Certain	12.3	-6.35	2996.75	Yes		-18.6530612244898			492.0	TrialHappiness	Loss
53.0	2	426.234	4.012	1029.548	-3.18	-3.18	13.3652	3.987	70.0	5.0	Certain	12.3	-6.35	2996.75	Yes		-18.6530612244898				ISIRate	Loss
54.0	2	430.246	0.025	1033.56	-1.0	-1.0	13.2402	3.0	70.0	0.2	Certain	-2.13	0.62	0.0	No	4.0	2.75302343159486	1.6	431.846		GetAnswer	Mixed
54.0	2	431.867	0.021	1035.181	-1.0	-1.0	13.2402	4.0	70.0	0.2	Certain	-2.13	0.62	0.0	No		2.75302343159486				ShowChoice	Mixed
54.0	2	435.879	0.012	1039.193	-1.0	-1.0	13.2402	1.0	70.0	0.2	Certain	-2.13	0.62	0.0	No		2.75302343159486				ShowResult	Mixed
54.0	2	436.899	0.02	1040.213	-1.0	-1.0	13.2402	8.0	70.0	0.2	Certain	-2.13	0.62	0.0	No		2.75302343159486				ISITrial	Mixed
	2	444.923	0.024	1048.237				-0.001								{SPACE}		13.139	458.062		Rest	
	2	458.079	0.017	1061.393				4.0													BlockHappyPreview	
	2	462.091	0.012	1065.405				0.86												552.0	BlockStartHappiness	
	2	470.232	0.01	1073.546				-0.001								5.0		14.468	484.7		ScanWait	
	3	0.025	0.025	1088.039				10.0													GetReady	
55.0	3	10.039	0.014	1098.053	4.46	2.23	13.7977	3.0	955.0	4.2	Outcome2	6.1	4.46	2533.25	Yes	2.0	-1.6354284635711598	1.426	11.465		GetAnswer	Gain
55.0	3	11.476	0.011	1099.49	4.46	2.23	13.7977	4.0	955.0	4.2	Outcome2	6.1	4.46	2533.25	Yes		-1.6354284635711598				ShowChoice	Gain
55.0	3	15.488	0.012	1103.502	4.46	2.23	13.7977	1.0	955.0	4.2	Outcome2	6.1	4.46	2533.25	Yes		-1.6354284635711598				ShowResult	Gain
55.0	3	16.508	0.02	1104.522	4.46	2.23	13.7977	7.709	955.0	4.2	Outcome2	6.1	4.46	2533.25	Yes		-1.6354284635711598				ISITrial	Gain
55.0	3	26.789	0.025	1114.803	4.46	2.23	13.7977	2.565	955.0	4.2	Outcome2	6.1	4.46	2533.25	Yes		-1.6354284635711598			540.0	TrialHappiness	Gain
55.0	3	30.801	4.012	1118.815	4.46	2.23	13.7977	2.133	955.0	4.2	Outcome2	6.1	4.46	2533.25	Yes		-1.6354284635711598				ISIRate	Gain
56.0	3	32.957	0.023	1120.971	0.0	0.0	13.7977	3.0	955.0	1.2	Certain	3.9	-3.61	0.0	No	4.0	7.50622876557191	1.518	34.475		GetAnswer	Mixed
56.0	3	34.495	0.02	1122.509	0.0	0.0	13.7977	4.0	955.0	1.2	Certain	3.9	-3.61	0.0	No		7.50622876557191				ShowChoice	Mixed
56.0	3	38.507	0.012	1126.521	0.0	0.0	13.7977	1.0	955.0	1.2	Certain	3.9	-3.61	0.0	No		7.50622876557191				ShowResult	Mixed
56.0	3	39.527	0.02	1127.541	0.0	0.0	13.7977	4.697	955.0	1.2	Certain	3.9	-3.61	0.0	No		7.50622876557191				ISITrial	Mixed
57.0	3	44.241	0.017	1132.255	10.74	5.37	15.1402	3.0	955.0	1.68	Outcome2	12.5	10.74	0.0	No	2.0	-1.76132502831257	1.233	45.474		GetAnswer	Loss
57.0	3	45.495	0.02	1133.509	10.74	5.37	15.1402	4.0	955.0	1.68	Outcome2	12.5	10.74	0.0	No		-1.76132502831257				ShowChoice	Loss
57.0	3	49.507	0.012	1137.521	10.74	5.37	15.1402	1.0	955.0	1.68	Outcome2	12.5	10.74	0.0	No		-1.76132502831257				ShowResult	Loss
57.0	3	50.526	0.019	1138.54	10.74	5.37	15.1402	4.291	955.0	1.68	Outcome2	12.5	10.74	0.0	No		-1.76132502831257				ISITrial	Loss
58.0	3	54.839	0.022	1142.853	6.1	3.05	15.9027	3.0	955.0	3.6	Outcome1	6.1	7.9	3045.75	Yes	2.0	-1.80049075122688	1.243	56.082		GetAnswer	Gain
58.0	3	56.11	0.028	1144.124	6.1	3.05	15.9027	4.0	955.0	3.6	Outcome1	6.1	7.9	3045.75	Yes		-1.80049075122688				ShowChoice	Gain
58.0	3	60.122	0.012	1148.136	6.1	3.05	15.9027	1.0	955.0	3.6	Outcome1	6.1	7.9	3045.75	Yes		-1.80049075122688				ShowResult	Gain
58.0	3	61.141	0.019	1149.155	6.1	3.05	15.9027	2.037	955.0	3.6	Outcome1	6.1	7.9	3045.75	Yes		-1.80049075122688				ISITrial	Gain
58.0	3	66.273	0.029	1154.287	6.1	3.05	15.9027	0.792	955.0	3.6	Outcome1	6.1	7.9	3045.75	Yes	2{-2}	-1.80049075122688	0.792	67.065	632.0	TrialHappiness	Gain
58.0	3	70.285	4.012	1158.299	6.1	3.05	15.9027	4.183	955.0	3.6	Outcome1	6.1	7.9	3045.75	Yes		-1.80049075122688				ISIRate	Gain
59.0	3	74.498	0.03	1162.512	0.0	0.0	15.9027	3.0	955.0	0.2	Certain	0.5	-0.97	0.0	No	4.0	-1.4663080407701001	1.702	76.2		GetAnswer	Mixed
59.0	3	76.22	0.02	1164.234	0.0	0.0	15.9027	4.0	955.0	0.2	Certain	0.5	-0.97	0.0	No		-1.4663080407701001				ShowChoice	Mixed
59.0	3	80.232	0.012	1168.246	0.0	0.0	15.9027	1.0	955.0	0.2	Certain	0.5	-0.97	0.0	No		-1.4663080407701001				ShowResult	Mixed
59.0	3	81.252	0.02	1169.266	0.0	0.0	15.9027	5.064	955.0	0.2	Certain	0.5	-0.97	0.0	No		-1.4663080407701001				ISITrial	Mixed
60.0	3	86.333	0.017	1174.347	2.0	2.0	16.1527	3.0	955.0	3.6	Certain	5.9	-1.82	3562.5	Yes	4.0	7.7191392978482405	1.341	87.674		GetAnswer	Gain
60.0	3	87.688	0.014	1175.702	2.0	2.0	16.1527	4.0	955.0	3.6	Certain	5.9	-1.82	3562.5	Yes		7.7191392978482405				ShowChoice	Gain
60.0	3	91.7	0.012	1179.714	2.0	2.0	16.1527	1.0	955.0	3.6	Certain	5.9	-1.82	3562.5	Yes		7.7191392978482405				ShowResult	Gain
60.0	3	92.719	0.019	1180.733	2.0	2.0	16.1527	8.0	955.0	3.6	Certain	5.9	-1.82	3562.5	Yes		7.7191392978482405				ISITrial	Gain
60.0	3	104.321	0.016	1192.335	2.0	2.0	16.1527	0.943	955.0	3.6	Certain	5.9	-1.82	3562.5	Yes		7.7191392978482405			576.0	TrialHappiness	Gain
60.0	3	108.333	4.012	1196.347	2.0	2.0	16.1527	6.25	955.0	3.6	Certain	5.9	-1.82	3562.5	Yes		7.7191392978482405				ISIRate	Gain
61.0	3	114.601	0.018	1202.615	-1.0	-1.0	16.0277	3.0	955.0	0.52	Certain	3.1	-5.94	0.0	No	4.0	9.03624009060023	1.446	116.047		GetAnswer	Mixed
61.0	3	116.072	0.025	1204.086	-1.0	-1.0	16.0277	4.0	955.0	0.52	Certain	3.1	-5.94	0.0	No		9.03624009060023				ShowChoice	Mixed
61.0	3	120.084	0.012	1208.098	-1.0	-1.0	16.0277	1.0	955.0	0.52	Certain	3.1	-5.94	0.0	No		9.03624009060023				ShowResult	Mixed
61.0	3	121.104	0.02	1209.118	-1.0	-1.0	16.0277	4.586	955.0	0.52	Certain	3.1	-5.94	0.0	No		9.03624009060023				ISITrial	Mixed
62.0	3	125.718	0.028	1213.732	13.9	2.22	17.7652	3.0	955.0	3.6	Outcome1	13.9	4.43	3748.75	Yes	2.0	9.46545866364666	1.761	127.479		GetAnswer	Loss
62.0	3	127.49	0.011	1215.504	13.9	2.22	17.7652	4.0	955.0	3.6	Outcome1	13.9	4.43	3748.75	Yes		9.46545866364666				ShowChoice	Loss
62.0	3	131.502	0.012	1219.516	13.9	2.22	17.7652	1.0	955.0	3.6	Outcome1	13.9	4.43	3748.75	Yes		9.46545866364666				ShowResult	Loss
62.0	3	132.522	0.02	1220.536	13.9	2.22	17.7652	5.212	955.0	3.6	Outcome1	13.9	4.43	3748.75	Yes		9.46545866364666				ISITrial	Loss
62.0	3	141.532	0.029	1229.546	13.9	2.22	17.7652	3.659	955.0	3.6	Outcome1	13.9	4.43	3748.75	Yes		9.46545866364666			656.0	TrialHappiness	Loss
62.0	3	145.544	4.012	1233.558	13.9	2.22	17.7652	6.995	955.0	3.6	Outcome1	13.9	4.43	3748.75	Yes		9.46545866364666				ISIRate	Loss
63.0	3	152.565	0.026	1240.579	9.8	4.9	18.9902	3.0	955.0	2.48	Outcome1	9.8	11.3	0.0	No	2.0	-1.5014156285390703	0.842	153.407		GetAnswer	Loss
63.0	3	153.434	0.027	1241.448	9.8	4.9	18.9902	4.0	955.0	2.48	Outcome1	9.8	11.3	0.0	No		-1.5014156285390703				ShowChoice	Loss
63.0	3	157.446	0.012	1245.46	9.8	4.9	18.9902	1.0	955.0	2.48	Outcome1	9.8	11.3	0.0	No		-1.5014156285390703				ShowResult	Loss
63.0	3	158.466	0.02	1246.48	9.8	4.9	18.9902	5.595	955.0	2.48	Outcome1	9.8	11.3	0.0	No		-1.5014156285390703				ISITrial	Loss
64.0	3	164.083	0.022	1252.097	-0.28	-0.28	18.9552	3.0	955.0	5.0	Certain	-0.57	8.3	0.0	No	4.0	8.87429218573046	1.462	165.545		GetAnswer	Gain
64.0	3	165.57	0.025	1253.584	-0.28	-0.28	18.9552	4.0	955.0	5.0	Certain	-0.57	8.3	0.0	No		8.87429218573046				ShowChoice	Gain
64.0	3	169.582	0.012	1257.596	-0.28	-0.28	18.9552	1.0	955.0	5.0	Certain	-0.57	8.3	0.0	No		8.87429218573046				ShowResult	Gain
64.0	3	170.602	0.02	1258.616	-0.28	-0.28	18.9552	5.47	955.0	5.0	Certain	-0.57	8.3	0.0	No		8.87429218573046				ISITrial	Gain
65.0	3	176.102	0.03	1264.116	-0.86	-0.86	18.8477	3.0	955.0	2.8	Certain	7.5	-1.71	2996.75	Yes	4.0	9.21291053227633	2.234	178.336		GetAnswer	Gain
65.0	3	178.359	0.023	1266.373	-0.86	-0.86	18.8477	4.0	955.0	2.8	Certain	7.5	-1.71	2996.75	Yes		9.21291053227633				ShowChoice	Gain
65.0	3	182.371	0.012	1270.385	-0.86	-0.86	18.8477	1.0	955.0	2.8	Certain	7.5	-1.71	2996.75	Yes		9.21291053227633				ShowResult	Gain
65.0	3	183.39	0.019	1271.404	-0.86	-0.86	18.8477	3.344	955.0	2.8	Certain	7.5	-1.71	2996.75	Yes		9.21291053227633				ISITrial	Gain
65.0	3	189.776	0.029	1277.79	-0.86	-0.86	18.8477	0.564	955.0	2.8	Certain	7.5	-1.71	2996.75	Yes		9.21291053227633			492.0	TrialHappiness	Gain
65.0	3	193.788	4.012	1281.802	-0.86	-0.86	18.8477	3.987	955.0	2.8	Certain	7.5	-1.71	2996.75	Yes		9.21291053227633				ISIRate	Gain
66.0	3	197.8	0.025	1285.814	11.1	-0.62	20.2352	3.0	955.0	2.22	Outcome1	11.1	-1.24	0.0	No	2.0	12.3374858437146	1.501	199.301		GetAnswer	Loss
66.0	3	199.321	0.02	1287.335	11.1	-0.62	20.2352	4.0	955.0	2.22	Outcome1	11.1	-1.24	0.0	No		12.3374858437146				ShowChoice	Loss
66.0	3	203.333	0.012	1291.347	11.1	-0.62	20.2352	1.0	955.0	2.22	Outcome1	11.1	-1.24	0.0	No		12.3374858437146				ShowResult	Loss
66.0	3	204.353	0.02	1292.367	11.1	-0.62	20.2352	3.959	955.0	2.22	Outcome1	11.1	-1.24	0.0	No		12.3374858437146				ISITrial	Loss
67.0	3	208.332	0.02	1296.346	5.8	2.9	20.9602	3.0	955.0	4.2	Outcome1	5.8	8.1	2918.5	Yes	2.0	-2.29530011325028	1.047	209.379		GetAnswer	Gain
67.0	3	209.401	0.022	1297.415	5.8	2.9	20.9602	4.0	955.0	4.2	Outcome1	5.8	8.1	2918.5	Yes		-2.29530011325028				ShowChoice	Gain
67.0	3	213.413	0.012	1301.427	5.8	2.9	20.9602	1.0	955.0	4.2	Outcome1	5.8	8.1	2918.5	Yes		-2.29530011325028				ShowResult	Gain
67.0	3	214.433	0.02	1302.447	5.8	2.9	20.9602	4.199	955.0	4.2	Outcome1	5.8	8.1	2918.5	Yes		-2.29530011325028				ISITrial	Gain
67.0	3	221.588	0.024	1309.602	5.8	2.9	20.9602	1.042	955.0	4.2	Outcome1	5.8	8.1	2918.5	Yes		-2.29530011325028			664.0	TrialHappiness	Gain
67.0	3	225.6	4.012	1313.614	5.8	2.9	20.9602	3.674	955.0	4.2	Outcome1	5.8	8.1	2918.5	Yes		-2.29530011325028				ISIRate	Gain
68.0	3	229.294	0.02	1317.308	9.06	4.53	22.0927	3.0	955.0	1.82	Outcome2	10.7	9.06	0.0	No	2.0	-1.64099660249151	0.834	230.128		GetAnswer	Loss
68.0	3	230.147	0.019	1318.161	9.06	4.53	22.0927	4.0	955.0	1.82	Outcome2	10.7	9.06	0.0	No		-1.64099660249151				ShowChoice	Loss
68.0	3	234.159	0.012	1322.173	9.06	4.53	22.0927	1.0	955.0	1.82	Outcome2	10.7	9.06	0.0	No		-1.64099660249151				ShowResult	Loss
68.0	3	235.179	0.02	1323.193	9.06	4.53	22.0927	2.185	955.0	1.82	Outcome2	10.7	9.06	0.0	No		-1.64099660249151				ISITrial	Loss
69.0	3	237.385	0.021	1325.399	11.5	0.36	23.5302	3.0	955.0	2.8	Outcome1	11.5	0.71	0.0	No	2.0	10.7938844847112	0.94	238.325		GetAnswer	Loss
69.0	3	238.338	0.013	1326.352	11.5	0.36	23.5302	4.0	955.0	2.8	Outcome1	11.5	0.71	0.0	No		10.7938844847112				ShowChoice	Loss
69.0	3	242.35	0.012	1330.364	11.5	0.36	23.5302	1.0	955.0	2.8	Outcome1	11.5	0.71	0.0	No		10.7938844847112				ShowResult	Loss
69.0	3	243.37	0.02	1331.384	11.5	0.36	23.5302	2.0	955.0	2.8	Outcome1	11.5	0.71	0.0	No		10.7938844847112				ISITrial	Loss
70.0	3	245.392	0.022	1333.406	0.0	0.0	23.5302	3.0	955.0	2.8	Certain	-5.62	5.5	3651.25	Yes	4.0	11.123442808606999	1.412	246.804		GetAnswer	Gain
70.0	3	246.83	0.026	1334.844	0.0	0.0	23.5302	4.0	955.0	2.8	Certain	-5.62	5.5	3651.25	Yes		11.123442808606999				ShowChoice	Gain
70.0	3	250.842	0.012	1338.856	0.0	0.0	23.5302	1.0	955.0	2.8	Certain	-5.62	5.5	3651.25	Yes		11.123442808606999				ShowResult	Gain
70.0	3	251.862	0.02	1339.876	0.0	0.0	23.5302	2.623	955.0	2.8	Certain	-5.62	5.5	3651.25	Yes		11.123442808606999				ISITrial	Gain
70.0	3	258.181	0.027	1346.195	0.0	0.0	23.5302	2.727	955.0	2.8	Certain	-5.62	5.5	3651.25	Yes		11.123442808606999			640.0	TrialHappiness	Gain
70.0	3	262.193	4.012	1350.207	0.0	0.0	23.5302	6.605	955.0	2.8	Certain	-5.62	5.5	3651.25	Yes		11.123442808606999				ISIRate	Gain
71.0	3	268.829	0.031	1356.843	-6.0	-6.0	22.7802	3.0	955.0	1.0	Certain	-12.16	-0.3	0.0	No	4.0	11.8607021517554	1.1	269.929		GetAnswer	Mixed
71.0	3	269.949	0.02	1357.963	-6.0	-6.0	22.7802	4.0	955.0	1.0	Certain	-12.16	-0.3	0.0	No		11.8607021517554				ShowChoice	Mixed
71.0	3	273.961	0.012	1361.975	-6.0	-6.0	22.7802	1.0	955.0	1.0	Certain	-12.16	-0.3	0.0	No		11.8607021517554				ShowResult	Mixed
71.0	3	274.981	0.02	1362.995	-6.0	-6.0	22.7802	5.499	955.0	1.0	Certain	-12.16	-0.3	0.0	No		11.8607021517554				ISITrial	Mixed
72.0	3	280.497	0.017	1368.511	13.7	0.74	24.4927	3.0	955.0	3.16	Outcome2	1.48	13.7	3080.5	Yes	2.0	12.2174405436014	1.024	281.521		GetAnswer	Loss
72.0	3	281.534	0.013	1369.548	13.7	0.74	24.4927	4.0	955.0	3.16	Outcome2	1.48	13.7	3080.5	Yes		12.2174405436014				ShowChoice	Loss
72.0	3	285.546	0.012	1373.56	13.7	0.74	24.4927	1.0	955.0	3.16	Outcome2	1.48	13.7	3080.5	Yes		12.2174405436014				ShowResult	Loss
72.0	3	286.565	0.019	1374.579	13.7	0.74	24.4927	5.672	955.0	3.16	Outcome2	1.48	13.7	3080.5	Yes		12.2174405436014				ISITrial	Loss
72.0	3	295.358	0.029	1383.372	13.7	0.74	24.4927	1.596	955.0	3.16	Outcome2	1.48	13.7	3080.5	Yes		12.2174405436014			616.0	TrialHappiness	Loss
72.0	3	299.37	4.012	1387.384	13.7	0.74	24.4927	4.322	955.0	3.16	Outcome2	1.48	13.7	3080.5	Yes		12.2174405436014				ISIRate	Loss
73.0	3	303.717	0.025	1391.731	0.0	0.0	24.4927	3.0	955.0	0.82	Certain	1.5	-0.48	0.0	No	4.0	-1.97763306908267	1.605	305.322		GetAnswer	Mixed
73.0	3	305.338	0.016	1393.352	0.0	0.0	24.4927	4.0	955.0	0.82	Certain	1.5	-0.48	0.0	No		-1.97763306908267				ShowChoice	Mixed
73.0	3	309.35	0.012	1397.364	0.0	0.0	24.4927	1.0	955.0	0.82	Certain	1.5	-0.48	0.0	No		-1.97763306908267				ShowResult	Mixed
73.0	3	310.37	0.02	1398.384	0.0	0.0	24.4927	4.616	955.0	0.82	Certain	1.5	-0.48	0.0	No		-1.97763306908267				ISITrial	Mixed
74.0	3	315.017	0.031	1403.031	3.29	1.64	24.9039	3.0	955.0	2.48	Outcome1	3.29	5.3	3056.25	Yes	2.0	-2.00962627406569	0.893	315.91		GetAnswer	Gain
74.0	3	315.937	0.027	1403.951	3.29	1.64	24.9039	4.0	955.0	2.48	Outcome1	3.29	5.3	3056.25	Yes		-2.00962627406569				ShowChoice	Gain
74.0	3	319.949	0.012	1407.963	3.29	1.64	24.9039	1.0	955.0	2.48	Outcome1	3.29	5.3	3056.25	Yes		-2.00962627406569				ShowResult	Gain
74.0	3	320.968	0.019	1408.982	3.29	1.64	24.9039	3.909	955.0	2.48	Outcome1	3.29	5.3	3056.25	Yes		-2.00962627406569				ISITrial	Gain
74.0	3	327.973	0.02	1415.987	3.29	1.64	24.9039	3.328	955.0	2.48	Outcome1	3.29	5.3	3056.25	Yes		-2.00962627406569			604.0	TrialHappiness	Gain
74.0	3	331.985	4.012	1419.999	3.29	1.64	24.9039	4.225	955.0	2.48	Outcome1	3.29	5.3	3056.25	Yes		-2.00962627406569				ISIRate	Gain
75.0	3	336.231	0.021	1424.245	12.9	-0.52	26.5164	3.0	955.0	2.0	Outcome2	-1.05	12.9	0.0	No	2.0	13.9535673839185	1.809	338.04		GetAnswer	Loss
75.0	3	338.053	0.013	1426.067	12.9	-0.52	26.5164	4.0	955.0	2.0	Outcome2	-1.05	12.9	0.0	No		13.9535673839185				ShowChoice	Loss
75.0	3	342.065	0.012	1430.079	12.9	-0.52	26.5164	1.0	955.0	2.0	Outcome2	-1.05	12.9	0.0	No		13.9535673839185				ShowResult	Loss
75.0	3	343.084	0.019	1431.098	12.9	-0.52	26.5164	4.979	955.0	2.0	Outcome2	-1.05	12.9	0.0	No		13.9535673839185				ISITrial	Loss
76.0	3	348.083	0.02	1436.097	1.18	2.0	26.6639	3.0	955.0	0.66	Outcome2	3.3	1.18	0.0	No	2.0	-2.1234428086070203	0.975	349.058		GetAnswer	Mixed
76.0	3	349.086	0.028	1437.1	1.18	2.0	26.6639	4.0	955.0	0.66	Outcome2	3.3	1.18	0.0	No		-2.1234428086070203				ShowChoice	Mixed
76.0	3	353.114	0.028	1441.128	1.18	2.0	26.6639	1.0	955.0	0.66	Outcome2	3.3	1.18	0.0	No		-2.1234428086070203				ShowResult	Mixed
76.0	3	354.134	0.02	1442.148	1.18	2.0	26.6639	3.931	955.0	0.66	Outcome2	3.3	1.18	0.0	No		-2.1234428086070203				ISITrial	Mixed
77.0	3	358.096	0.031	1446.11	4.14	2.07	27.1814	3.0	955.0	5.0	Outcome1	4.14	6.3	4000.0	Yes	2.0	-2.15656851642129	1.062	359.158		GetAnswer	Gain
77.0	3	359.183	0.025	1447.197	4.14	2.07	27.1814	4.0	955.0	5.0	Outcome1	4.14	6.3	4000.0	Yes		-2.15656851642129				ShowChoice	Gain
77.0	3	363.195	0.012	1451.209	4.14	2.07	27.1814	1.0	955.0	5.0	Outcome1	4.14	6.3	4000.0	Yes		-2.15656851642129				ShowResult	Gain
77.0	3	364.214	0.019	1452.228	4.14	2.07	27.1814	7.022	955.0	5.0	Outcome1	4.14	6.3	4000.0	Yes		-2.15656851642129				ISITrial	Gain
77.0	3	375.281	0.029	1463.295	4.14	2.07	27.1814	3.451	955.0	5.0	Outcome1	4.14	6.3	4000.0	Yes	2{-2}4{-4}2{-2}	-2.15656851642129	3.451	378.732	644.0	TrialHappiness	Gain
77.0	3	379.309	4.028	1467.323	4.14	2.07	27.1814	8.0	955.0	5.0	Outcome1	4.14	6.3	4000.0	Yes		-2.15656851642129				ISIRate	Gain
78.0	3	387.333	0.024	1475.347	-6.0	-6.0	26.4314	3.0	955.0	0.66	Certain	-13.17	1.3	0.0	No	4.0	14.4665911664779	1.183	388.516		GetAnswer	Mixed
78.0	3	388.537	0.02	1476.551	-6.0	-6.0	26.4314	4.0	955.0	0.66	Certain	-13.17	1.3	0.0	No		14.4665911664779				ShowChoice	Mixed
78.0	3	392.566	0.029	1480.58	-6.0	-6.0	26.4314	1.0	955.0	0.66	Certain	-13.17	1.3	0.0	No		14.4665911664779				ShowResult	Mixed
78.0	3	393.585	0.019	1481.599	-6.0	-6.0	26.4314	2.078	955.0	0.66	Certain	-13.17	1.3	0.0	No		14.4665911664779				ISITrial	Mixed
79.0	3	395.692	0.029	1483.706	7.84	3.92	27.4114	3.0	955.0	3.6	Outcome1	7.84	9.9	2729.5	Yes	2.0	-2.05671951679879	0.899	396.591		GetAnswer	Gain
79.0	3	396.611	0.02	1484.625	7.84	3.92	27.4114	4.0	955.0	3.6	Outcome1	7.84	9.9	2729.5	Yes		-2.05671951679879				ShowChoice	Gain
79.0	3	400.623	0.012	1488.637	7.84	3.92	27.4114	1.0	955.0	3.6	Outcome1	7.84	9.9	2729.5	Yes		-2.05671951679879				ShowResult	Gain
79.0	3	401.643	0.02	1489.657	7.84	3.92	27.4114	3.829	955.0	3.6	Outcome1	7.84	9.9	2729.5	Yes		-2.05671951679879				ISITrial	Gain
79.0	3	408.246	0.028	1496.26	7.84	3.92	27.4114	2.548	955.0	3.6	Outcome1	7.84	9.9	2729.5	Yes		-2.05671951679879			552.0	TrialHappiness	Gain
79.0	3	412.275	4.029	1500.289	7.84	3.92	27.4114	2.918	955.0	3.6	Outcome1	7.84	9.9	2729.5	Yes		-2.05671951679879				ISIRate	Gain
80.0	3	415.217	0.024	1503.231	-7.0	-7.0	26.5364	3.0	955.0	0.3	Certain	0.7	-16.03	0.0	No	4.0	16.7338618346546	1.382	416.599		GetAnswer	Mixed
80.0	3	416.621	0.022	1504.635	-7.0	-7.0	26.5364	4.0	955.0	0.3	Certain	0.7	-16.03	0.0	No		16.7338618346546				ShowChoice	Mixed
80.0	3	420.65	0.029	1508.664	-7.0	-7.0	26.5364	1.0	955.0	0.3	Certain	0.7	-16.03	0.0	No		16.7338618346546				ShowResult	Mixed
80.0	3	421.669	0.019	1509.683	-7.0	-7.0	26.5364	3.336	955.0	0.3	Certain	0.7	-16.03	0.0	No		16.7338618346546				ISITrial	Mixed
81.0	3	425.029	0.024	1513.043	2.4	1.2	26.8364	3.0	955.0	2.0	Outcome2	4.9	2.4	3923.75	Yes	2.0	-2.49745186862967	1.694	426.723		GetAnswer	Gain
81.0	3	426.751	0.028	1514.765	2.4	1.2	26.8364	4.0	955.0	2.0	Outcome2	4.9	2.4	3923.75	Yes		-2.49745186862967				ShowChoice	Gain
81.0	3	430.763	0.012	1518.777	2.4	1.2	26.8364	1.0	955.0	2.0	Outcome2	4.9	2.4	3923.75	Yes		-2.49745186862967				ShowResult	Gain
81.0	3	431.783	0.02	1519.797	2.4	1.2	26.8364	3.919	955.0	2.0	Outcome2	4.9	2.4	3923.75	Yes		-2.49745186862967				ISITrial	Gain
81.0	3	439.673	0.021	1527.687	2.4	1.2	26.8364	0.991	955.0	2.0	Outcome2	4.9	2.4	3923.75	Yes		-2.49745186862967			520.0	TrialHappiness	Gain
81.0	3	443.702	4.029	1531.716	2.4	1.2	26.8364	7.695	955.0	2.0	Outcome2	4.9	2.4	3923.75	Yes		-2.49745186862967				ISIRate	Gain
	3	451.425	0.028	1539.439				3.0													CurrentEarnings	
	3	454.451	0.026	1542.465				-0.001								{SPACE}		6.74	461.191		Goodbye	
