trial_number	block	onset	onset_delay	onset_unadjusted	amount_change	certain_amount	current_amount	duration	mood_target	multiplier	outcome	outcome1_amount	outcome2_amount	question_duration	rating	response	rpe	rt	rt_time	slider_response	trial_phase	trial_type
	0	-71.491	0.021	35.235				-0.001								{SPACE}		2.656	-68.835		Welcome	
	0	-68.816	0.019	37.91				5.0													LifeHappyPreview	
	0	-63.784	0.032	42.942				3.006												720.0	LifeHappiness	
	0	-50.578	0.018	56.148				4.0													BlockHappyPreview	
	0	-46.566	0.012	60.16				0.82												512.0	BlockStartHappiness	
	0	-13.367	0.013	93.359				-0.001								5.0					ScanWait	
	1	0.023	0.023	106.749				10.0													GetReady	
1.0	1	10.053	0.03	116.779	3.5	0.0	10.4375	3.0	955.0	0.82	Outcome1	3.5	-4.03	0.0	No	2.0	7.52548131370328	1.41	11.463		GetAnswer	Mixed
1.0	1	11.491	0.028	118.217	3.5	0.0	10.4375	4.0	955.0	0.82	Outcome1	3.5	-4.03	0.0	No		7.52548131370328				ShowChoice	Mixed
1.0	1	15.503	0.012	122.229	3.5	0.0	10.4375	1.0	955.0	0.82	Outcome1	3.5	-4.03	0.0	No		7.52548131370328				ShowResult	Mixed
1.0	1	16.523	0.02	123.249	3.5	0.0	10.4375	2.431	955.0	0.82	Outcome1	3.5	-4.03	0.0	No		7.52548131370328				ISITrial	Mixed
2.0	1	18.98	0.026	125.706	1.3	-2.0	10.6	3.0	955.0	0.66	Outcome2	-6.73	1.3	0.0	No	2.0	8.02718006795017	2.657	21.637		GetAnswer	Mixed
2.0	1	21.655	0.018	128.381	1.3	-2.0	10.6	4.0	955.0	0.66	Outcome2	-6.73	1.3	0.0	No		8.02718006795017				ShowChoice	Mixed
2.0	1	25.683	0.028	132.409	1.3	-2.0	10.6	1.0	955.0	0.66	Outcome2	-6.73	1.3	0.0	No		8.02718006795017				ShowResult	Mixed
2.0	1	26.703	0.02	133.429	1.3	-2.0	10.6	4.568	955.0	0.66	Outcome2	-6.73	1.3	0.0	No		8.02718006795017				ISITrial	Mixed
3.0	1	31.3	0.029	138.026	-2.0	-2.0	10.35	3.0	955.0	0.3	Certain	-1.3	-3.18	2868.0	Yes	4.0	-1.88137032842582	2.394	33.694		GetAnswer	Mixed
3.0	1	33.724	0.03	140.45	-2.0	-2.0	10.35	4.0	955.0	0.3	Certain	-1.3	-3.18	2868.0	Yes		-1.88137032842582				ShowChoice	Mixed
3.0	1	37.736	0.012	144.462	-2.0	-2.0	10.35	1.0	955.0	0.3	Certain	-1.3	-3.18	2868.0	Yes		-1.88137032842582				ShowResult	Mixed
3.0	1	38.756	0.02	145.482	-2.0	-2.0	10.35	3.243	955.0	0.3	Certain	-1.3	-3.18	2868.0	Yes		-1.88137032842582				ISITrial	Mixed
3.0	1	44.907	0.024	151.633	-2.0	-2.0	10.35	1.831	955.0	0.3	Certain	-1.3	-3.18	2868.0	Yes		-1.88137032842582			544.0	TrialHappiness	Mixed
3.0	1	48.936	4.029	155.662	-2.0	-2.0	10.35	3.472	955.0	0.3	Certain	-1.3	-3.18	2868.0	Yes		-1.88137032842582				ISIRate	Mixed
4.0	1	52.43	0.022	159.156	2.1	-2.0	10.6125	3.0	955.0	1.5	Outcome2	-6.39	2.1	0.0	No	2.0	8.486976217440539	1.936	54.366		GetAnswer	Mixed
4.0	1	54.386	0.02	161.112	2.1	-2.0	10.6125	4.0	955.0	1.5	Outcome2	-6.39	2.1	0.0	No		8.486976217440539				ShowChoice	Mixed
4.0	1	58.398	0.012	165.124	2.1	-2.0	10.6125	1.0	955.0	1.5	Outcome2	-6.39	2.1	0.0	No		8.486976217440539				ShowResult	Mixed
4.0	1	59.418	0.02	166.144	2.1	-2.0	10.6125	2.011	955.0	1.5	Outcome2	-6.39	2.1	0.0	No		8.486976217440539				ISITrial	Mixed
5.0	1	61.457	0.028	168.183	9.9	0.48	11.85	3.0	955.0	3.6	Outcome1	9.9	0.95	2582.5	Yes	2.0	8.9524348810872	2.01	63.467		GetAnswer	Gain
5.0	1	63.496	0.029	170.222	9.9	0.48	11.85	4.0	955.0	3.6	Outcome1	9.9	0.95	2582.5	Yes		8.9524348810872				ShowChoice	Gain
5.0	1	67.508	0.012	174.234	9.9	0.48	11.85	1.0	955.0	3.6	Outcome1	9.9	0.95	2582.5	Yes		8.9524348810872				ShowResult	Gain
5.0	1	68.528	0.02	175.254	9.9	0.48	11.85	5.129	955.0	3.6	Outcome1	9.9	0.95	2582.5	Yes		8.9524348810872				ISITrial	Gain
5.0	1	76.285	0.026	183.011	9.9	0.48	11.85	2.364	955.0	3.6	Outcome1	9.9	0.95	2582.5	Yes		8.9524348810872			584.0	TrialHappiness	Gain
5.0	1	80.313	4.028	187.039	9.9	0.48	11.85	2.33	955.0	3.6	Outcome1	9.9	0.95	2582.5	Yes		8.9524348810872				ISIRate	Gain
6.0	1	82.67	0.027	189.396	12.9	2.08	13.4625	3.0	955.0	2.0	Outcome2	4.16	12.9	0.0	No	2.0	8.73839184597962	1.356	84.026		GetAnswer	Loss
6.0	1	84.041	0.015	190.767	12.9	2.08	13.4625	4.0	955.0	2.0	Outcome2	4.16	12.9	0.0	No		8.73839184597962				ShowChoice	Loss
6.0	1	88.07	0.029	194.796	12.9	2.08	13.4625	1.0	955.0	2.0	Outcome2	4.16	12.9	0.0	No		8.73839184597962				ShowResult	Loss
6.0	1	89.09	0.02	195.816	12.9	2.08	13.4625	6.232	955.0	2.0	Outcome2	4.16	12.9	0.0	No		8.73839184597962				ISITrial	Loss
7.0	1	95.342	0.02	202.068	10.3	0.57	14.75	3.0	955.0	5.0	Outcome1	10.3	1.14	0.0	No	2.0	9.15855039637599	1.382	96.724		GetAnswer	Gain
7.0	1	96.746	0.022	203.472	10.3	0.57	14.75	4.0	955.0	5.0	Outcome1	10.3	1.14	0.0	No		9.15855039637599				ShowChoice	Gain
7.0	1	100.758	0.012	207.484	10.3	0.57	14.75	1.0	955.0	5.0	Outcome1	10.3	1.14	0.0	No		9.15855039637599				ShowResult	Gain
7.0	1	101.778	0.02	208.504	10.3	0.57	14.75	2.305	955.0	5.0	Outcome1	10.3	1.14	0.0	No		9.15855039637599				ISITrial	Gain
8.0	1	104.101	0.018	210.827	9.5	-0.04	15.9375	3.0	955.0	2.8	Outcome2	-0.08	9.5	3112.5	Yes	2.0	9.57870894677237	2.526	106.627		GetAnswer	Gain
8.0	1	106.642	0.015	213.368	9.5	-0.04	15.9375	4.0	955.0	2.8	Outcome2	-0.08	9.5	3112.5	Yes		9.57870894677237				ShowChoice	Gain
8.0	1	110.654	0.012	217.38	9.5	-0.04	15.9375	1.0	955.0	2.8	Outcome2	-0.08	9.5	3112.5	Yes		9.57870894677237				ShowResult	Gain
8.0	1	111.674	0.02	218.4	9.5	-0.04	15.9375	3.506	955.0	2.8	Outcome2	-0.08	9.5	3112.5	Yes		9.57870894677237				ISITrial	Gain
8.0	1	118.344	0.031	225.07	9.5	-0.04	15.9375	2.698	955.0	2.8	Outcome2	-0.08	9.5	3112.5	Yes		9.57870894677237			472.0	TrialHappiness	Gain
8.0	1	122.372	4.028	229.098	9.5	-0.04	15.9375	4.45	955.0	2.8	Outcome2	-0.08	9.5	3112.5	Yes		9.57870894677237				ISIRate	Gain
9.0	1	126.852	0.03	233.578	-6.0	-6.0	15.1875	3.0	955.0	1.2	Certain	-0.1	-12.0	0.0	No	4.0	11.901472253680598	2.202	129.054		GetAnswer	Mixed
9.0	1	129.076	0.022	235.802	-6.0	-6.0	15.1875	4.0	955.0	1.2	Certain	-0.1	-12.0	0.0	No		11.901472253680598				ShowChoice	Mixed
9.0	1	133.088	0.012	239.814	-6.0	-6.0	15.1875	1.0	955.0	1.2	Certain	-0.1	-12.0	0.0	No		11.901472253680598				ShowResult	Mixed
9.0	1	134.107	0.019	240.833	-6.0	-6.0	15.1875	2.0	955.0	1.2	Certain	-0.1	-12.0	0.0	No		11.901472253680598				ISITrial	Mixed
10.0	1	136.13	0.023	242.856	8.99	4.5	16.3113	3.0	955.0	2.48	Outcome2	11.3	8.99	4000.0	Yes	2.0	-2.31370328425821	0.995	137.125		GetAnswer	Loss
10.0	1	137.15	0.025	243.876	8.99	4.5	16.3113	4.0	955.0	2.48	Outcome2	11.3	8.99	4000.0	Yes		-2.31370328425821				ShowChoice	Loss
10.0	1	141.162	0.012	247.888	8.99	4.5	16.3113	1.0	955.0	2.48	Outcome2	11.3	8.99	4000.0	Yes		-2.31370328425821				ShowResult	Loss
10.0	1	142.182	0.02	248.908	8.99	4.5	16.3113	2.0	955.0	2.48	Outcome2	11.3	8.99	4000.0	Yes		-2.31370328425821				ISITrial	Loss
10.0	1	148.233	0.029	254.959	8.99	4.5	16.3113	1.445	955.0	2.48	Outcome2	11.3	8.99	4000.0	Yes		-2.31370328425821			528.0	TrialHappiness	Loss
10.0	1	152.262	4.029	258.988	8.99	4.5	16.3113	8.0	955.0	2.48	Outcome2	11.3	8.99	4000.0	Yes		-2.31370328425821				ISIRate	Loss
11.0	1	160.286	0.024	267.012	9.77	4.88	17.5326	3.0	955.0	3.6	Outcome2	11.9	9.77	0.0	No	2.0	-2.13203095507739	1.175	161.461		GetAnswer	Loss
11.0	1	161.489	0.028	268.215	9.77	4.88	17.5326	4.0	955.0	3.6	Outcome2	11.9	9.77	0.0	No		-2.13203095507739				ShowChoice	Loss
11.0	1	165.501	0.012	272.227	9.77	4.88	17.5326	1.0	955.0	3.6	Outcome2	11.9	9.77	0.0	No		-2.13203095507739				ShowResult	Loss
11.0	1	166.521	0.02	273.247	9.77	4.88	17.5326	3.324	955.0	3.6	Outcome2	11.9	9.77	0.0	No		-2.13203095507739				ISITrial	Loss
12.0	1	169.864	0.019	276.59	3.93	1.96	18.0238	3.0	955.0	4.2	Outcome2	6.1	3.93	2618.75	Yes	2.0	-2.17232918082295	1.176	171.04		GetAnswer	Gain
12.0	1	171.068	0.028	277.794	3.93	1.96	18.0238	4.0	955.0	4.2	Outcome2	6.1	3.93	2618.75	Yes		-2.17232918082295				ShowChoice	Gain
12.0	1	175.08	0.012	281.806	3.93	1.96	18.0238	1.0	955.0	4.2	Outcome2	6.1	3.93	2618.75	Yes		-2.17232918082295				ShowResult	Gain
12.0	1	176.1	0.02	282.826	3.93	1.96	18.0238	6.642	955.0	4.2	Outcome2	6.1	3.93	2618.75	Yes		-2.17232918082295				ISITrial	Gain
12.0	1	185.411	0.022	292.137	3.93	1.96	18.0238	0.0	955.0	4.2	Outcome2	6.1	3.93	2618.75	Yes		-2.17232918082295			512.0	TrialHappiness	Gain
12.0	1	189.44	4.029	296.166	3.93	1.96	18.0238	2.475	955.0	4.2	Outcome2	6.1	3.93	2618.75	Yes		-2.17232918082295				ISIRate	Gain
13.0	1	191.947	0.032	298.673	-0.3	-7.0	17.9863	3.0	955.0	1.0	Outcome1	-0.3	-13.58	0.0	No	2.0	13.2831257078143	2.159	194.106		GetAnswer	Mixed
13.0	1	194.12	0.014	300.846	-0.3	-7.0	17.9863	4.0	955.0	1.0	Outcome1	-0.3	-13.58	0.0	No		13.2831257078143				ShowChoice	Mixed
13.0	1	198.132	0.012	304.858	-0.3	-7.0	17.9863	1.0	955.0	1.0	Outcome1	-0.3	-13.58	0.0	No		13.2831257078143				ShowResult	Mixed
13.0	1	199.152	0.02	305.878	-0.3	-7.0	17.9863	3.48	955.0	1.0	Outcome1	-0.3	-13.58	0.0	No		13.2831257078143				ISITrial	Mixed
14.0	1	202.662	0.03	309.388	1.98	0.99	18.2338	3.0	955.0	2.0	Outcome2	4.3	1.98	0.0	No	2.0	-2.3193657984145	1.235	203.897		GetAnswer	Mixed
14.0	1	203.916	0.019	310.642	1.98	0.99	18.2338	4.0	955.0	2.0	Outcome2	4.3	1.98	0.0	No		-2.3193657984145				ShowChoice	Mixed
14.0	1	207.945	0.029	314.671	1.98	0.99	18.2338	1.0	955.0	2.0	Outcome2	4.3	1.98	0.0	No		-2.3193657984145				ShowResult	Mixed
14.0	1	208.965	0.02	315.691	1.98	0.99	18.2338	5.019	955.0	2.0	Outcome2	4.3	1.98	0.0	No		-2.3193657984145				ISITrial	Mixed
15.0	1	214.013	0.029	320.739	8.3	1.0	19.2713	3.0	955.0	5.0	Outcome1	8.3	-5.99	3348.5	Yes	2.0	14.286523216308	2.738	216.751		GetAnswer	Gain
15.0	1	216.771	0.02	323.497	8.3	1.0	19.2713	4.0	955.0	5.0	Outcome1	8.3	-5.99	3348.5	Yes		14.286523216308				ShowChoice	Gain
15.0	1	220.8	0.029	327.526	8.3	1.0	19.2713	1.0	955.0	5.0	Outcome1	8.3	-5.99	3348.5	Yes		14.286523216308				ShowResult	Gain
15.0	1	221.82	0.02	328.546	8.3	1.0	19.2713	7.614	955.0	5.0	Outcome1	8.3	-5.99	3348.5	Yes		14.286523216308				ISITrial	Gain
15.0	1	232.836	0.029	339.562	8.3	1.0	19.2713	1.913	955.0	5.0	Outcome1	8.3	-5.99	3348.5	Yes		14.286523216308			576.0	TrialHappiness	Gain
15.0	1	236.848	4.012	343.574	8.3	1.0	19.2713	5.394	955.0	5.0	Outcome1	8.3	-5.99	3348.5	Yes		14.286523216308				ISIRate	Gain
16.0	1	242.264	0.022	348.99	-1.1	-8.0	19.1338	3.0	955.0	0.4	Outcome2	-14.8	-1.1	0.0	No		13.701019252548098				GetAnswer	Mixed
16.0	1	245.29	0.026	352.016	-1.1	-8.0	19.1338	4.0	955.0	0.4	Outcome2	-14.8	-1.1	0.0	No		13.701019252548098				ShowChoice	Mixed
16.0	1	249.302	0.012	356.028	-1.1	-8.0	19.1338	1.0	955.0	0.4	Outcome2	-14.8	-1.1	0.0	No		13.701019252548098				ShowResult	Mixed
16.0	1	250.322	0.02	357.048	-1.1	-8.0	19.1338	3.008	955.0	0.4	Outcome2	-14.8	-1.1	0.0	No		13.701019252548098				ISITrial	Mixed
17.0	1	253.347	0.017	360.073	0.92	2.0	19.2488	3.0	955.0	0.52	Outcome1	0.92	3.1	3041.5	Yes	2.0	-2.17902982257456	1.781	255.128		GetAnswer	Mixed
17.0	1	255.153	0.025	361.879	0.92	2.0	19.2488	4.0	955.0	0.52	Outcome1	0.92	3.1	3041.5	Yes		-2.17902982257456				ShowChoice	Mixed
17.0	1	259.165	0.012	365.891	0.92	2.0	19.2488	1.0	955.0	0.52	Outcome1	0.92	3.1	3041.5	Yes		-2.17902982257456				ShowResult	Mixed
17.0	1	260.184	0.019	366.91	0.92	2.0	19.2488	3.566	955.0	0.52	Outcome1	0.92	3.1	3041.5	Yes		-2.17902982257456				ISITrial	Mixed
17.0	1	266.821	0.017	373.547	0.92	2.0	19.2488	1.997	955.0	0.52	Outcome1	0.92	3.1	3041.5	Yes		-2.17902982257456			560.0	TrialHappiness	Mixed
17.0	1	270.833	4.012	377.559	0.92	2.0	19.2488	4.166	955.0	0.52	Outcome1	0.92	3.1	3041.5	Yes		-2.17902982257456				ISIRate	Mixed
18.0	1	275.029	0.03	381.755	0.1	-7.0	19.2613	3.0	955.0	1.5	Outcome1	0.1	-14.73	0.0	No		14.8312570781427				GetAnswer	Mixed
18.0	1	278.055	0.026	384.781	0.1	-7.0	19.2613	4.0	955.0	1.5	Outcome1	0.1	-14.73	0.0	No		14.8312570781427				ShowChoice	Mixed
18.0	1	282.067	0.012	388.793	0.1	-7.0	19.2613	1.0	955.0	1.5	Outcome1	0.1	-14.73	0.0	No		14.8312570781427				ShowResult	Mixed
18.0	1	283.086	0.019	389.812	0.1	-7.0	19.2613	6.787	955.0	1.5	Outcome1	0.1	-14.73	0.0	No		14.8312570781427				ISITrial	Mixed
19.0	1	289.89	0.017	396.616	6.58	3.29	20.0838	3.0	955.0	2.0	Outcome1	6.58	8.9	0.0	No	2.0	-2.31700641751604	1.254	291.144		GetAnswer	Gain
19.0	1	291.16	0.016	397.886	6.58	3.29	20.0838	4.0	955.0	2.0	Outcome1	6.58	8.9	0.0	No		-2.31700641751604				ShowChoice	Gain
19.0	1	295.172	0.012	401.898	6.58	3.29	20.0838	1.0	955.0	2.0	Outcome1	6.58	8.9	0.0	No		-2.31700641751604				ShowResult	Gain
19.0	1	296.192	0.02	402.918	6.58	3.29	20.0838	2.0	955.0	2.0	Outcome1	6.58	8.9	0.0	No		-2.31700641751604				ISITrial	Gain
20.0	1	298.215	0.023	404.941	-1.0	-1.0	19.9588	3.0	955.0	5.0	Certain	6.3	-9.43	2921.25	Yes	4.0	15.7259343148358	2.058	300.273		GetAnswer	Gain
20.0	1	300.288	0.015	407.014	-1.0	-1.0	19.9588	4.0	955.0	5.0	Certain	6.3	-9.43	2921.25	Yes		15.7259343148358				ShowChoice	Gain
20.0	1	304.3	0.012	411.026	-1.0	-1.0	19.9588	1.0	955.0	5.0	Certain	6.3	-9.43	2921.25	Yes		15.7259343148358				ShowResult	Gain
20.0	1	305.319	0.019	412.045	-1.0	-1.0	19.9588	8.0	955.0	5.0	Certain	6.3	-9.43	2921.25	Yes		15.7259343148358				ISITrial	Gain
20.0	1	316.286	0.022	423.012	-1.0	-1.0	19.9588	2.531	955.0	5.0	Certain	6.3	-9.43	2921.25	Yes		15.7259343148358			456.0	TrialHappiness	Gain
20.0	1	320.298	4.012	427.024	-1.0	-1.0	19.9588	3.685	955.0	5.0	Certain	6.3	-9.43	2921.25	Yes		15.7259343148358				ISIRate	Gain
21.0	1	324.009	0.026	430.735	4.89	2.44	20.5701	3.0	955.0	3.16	Outcome1	4.89	7.7	0.0	No	2.0	-2.81360890902227	1.359	325.368		GetAnswer	Gain
21.0	1	325.396	0.028	432.122	4.89	2.44	20.5701	4.0	955.0	3.16	Outcome1	4.89	7.7	0.0	No		-2.81360890902227				ShowChoice	Gain
21.0	1	329.408	0.012	436.134	4.89	2.44	20.5701	1.0	955.0	3.16	Outcome1	4.89	7.7	0.0	No		-2.81360890902227				ShowResult	Gain
21.0	1	330.428	0.02	437.154	4.89	2.44	20.5701	3.555	955.0	3.16	Outcome1	4.89	7.7	0.0	No		-2.81360890902227				ISITrial	Gain
22.0	1	334.005	0.022	440.731	5.7	-3.0	21.2826	3.0	955.0	3.16	Outcome1	5.7	-12.81	3219.5	Yes	2.0	18.5050962627407	2.233	336.238		GetAnswer	Gain
22.0	1	336.262	0.024	442.988	5.7	-3.0	21.2826	4.0	955.0	3.16	Outcome1	5.7	-12.81	3219.5	Yes		18.5050962627407				ShowChoice	Gain
22.0	1	340.274	0.012	447.0	5.7	-3.0	21.2826	1.0	955.0	3.16	Outcome1	5.7	-12.81	3219.5	Yes		18.5050962627407				ShowResult	Gain
22.0	1	341.294	0.02	448.02	5.7	-3.0	21.2826	6.793	955.0	3.16	Outcome1	5.7	-12.81	3219.5	Yes		18.5050962627407				ISITrial	Gain
22.0	1	351.34	0.023	458.066	5.7	-3.0	21.2826	3.05	955.0	3.16	Outcome1	5.7	-12.81	3219.5	Yes		18.5050962627407			520.0	TrialHappiness	Gain
22.0	1	355.352	4.012	462.078	5.7	-3.0	21.2826	4.878	955.0	3.16	Outcome1	5.7	-12.81	3219.5	Yes		18.5050962627407				ISIRate	Gain
23.0	1	360.25	0.02	466.976	-2.0	-2.0	21.0326	3.0	955.0	1.68	Certain	6.5	-11.48	0.0	No	4.0	17.983012457531103	2.556	362.806		GetAnswer	Gain
23.0	1	362.825	0.019	469.551	-2.0	-2.0	21.0326	4.0	955.0	1.68	Certain	6.5	-11.48	0.0	No		17.983012457531103				ShowChoice	Gain
23.0	1	366.837	0.012	473.563	-2.0	-2.0	21.0326	1.0	955.0	1.68	Certain	6.5	-11.48	0.0	No		17.983012457531103				ShowResult	Gain
23.0	1	367.856	0.019	474.582	-2.0	-2.0	21.0326	8.0	955.0	1.68	Certain	6.5	-11.48	0.0	No		17.983012457531103				ISITrial	Gain
24.0	1	375.88	0.024	482.606	0.0	0.0	21.0326	3.0	955.0	3.16	Certain	9.7	-8.78	3255.0	Yes	4.0	18.475651189128	2.322	378.202		GetAnswer	Gain
24.0	1	378.221	0.019	484.947	0.0	0.0	21.0326	4.0	955.0	3.16	Certain	9.7	-8.78	3255.0	Yes		18.475651189128				ShowChoice	Gain
24.0	1	382.233	0.012	488.959	0.0	0.0	21.0326	1.0	955.0	3.16	Certain	9.7	-8.78	3255.0	Yes		18.475651189128				ShowResult	Gain
24.0	1	383.252	0.019	489.978	0.0	0.0	21.0326	2.0	955.0	3.16	Certain	9.7	-8.78	3255.0	Yes		18.475651189128				ISITrial	Gain
24.0	1	388.552	0.022	495.278	0.0	0.0	21.0326	3.873	955.0	3.16	Certain	9.7	-8.78	3255.0	Yes		18.475651189128			548.0	TrialHappiness	Gain
24.0	1	392.564	4.012	499.29	0.0	0.0	21.0326	5.02	955.0	3.16	Certain	9.7	-8.78	3255.0	Yes		18.475651189128				ISIRate	Gain
25.0	1	397.612	0.028	504.338	11.7	2.0	22.4951	3.0	955.0	3.16	Outcome2	-6.79	11.7	0.0	No	2.0	18.492638731596802	1.907	399.519		GetAnswer	Loss
25.0	1	399.534	0.015	506.26	11.7	2.0	22.4951	4.0	955.0	3.16	Outcome2	-6.79	11.7	0.0	No		18.492638731596802				ShowChoice	Loss
25.0	1	403.546	0.012	510.272	11.7	2.0	22.4951	1.0	955.0	3.16	Outcome2	-6.79	11.7	0.0	No		18.492638731596802				ShowResult	Loss
25.0	1	404.566	0.02	511.292	11.7	2.0	22.4951	3.749	955.0	3.16	Outcome2	-6.79	11.7	0.0	No		18.492638731596802				ISITrial	Loss
26.0	1	408.344	0.029	515.07	2.24	1.12	22.7751	3.0	955.0	2.0	Outcome1	2.24	4.9	0.0	No	2.0	-2.6549641374103397	1.426	409.77		GetAnswer	Gain
26.0	1	409.798	0.028	516.524	2.24	1.12	22.7751	4.0	955.0	2.0	Outcome1	2.24	4.9	0.0	No		-2.6549641374103397				ShowChoice	Gain
26.0	1	413.81	0.012	520.536	2.24	1.12	22.7751	1.0	955.0	2.0	Outcome1	2.24	4.9	0.0	No		-2.6549641374103397				ShowResult	Gain
26.0	1	414.83	0.02	521.556	2.24	1.12	22.7751	7.834	955.0	2.0	Outcome1	2.24	4.9	0.0	No		-2.6549641374103397				ISITrial	Gain
27.0	1	422.687	0.023	529.413	-3.19	-2.0	22.3763	3.0	955.0	0.82	Outcome2	-0.5	-3.19	2549.75	Yes		-2.69337485843715				GetAnswer	Mixed
27.0	1	425.713	0.026	532.439	-3.19	-2.0	22.3763	4.0	955.0	0.82	Outcome2	-0.5	-3.19	2549.75	Yes		-2.69337485843715				ShowChoice	Mixed
27.0	1	429.725	0.012	536.451	-3.19	-2.0	22.3763	1.0	955.0	0.82	Outcome2	-0.5	-3.19	2549.75	Yes		-2.69337485843715				ShowResult	Mixed
27.0	1	430.744	0.019	537.47	-3.19	-2.0	22.3763	4.225	955.0	0.82	Outcome2	-0.5	-3.19	2549.75	Yes		-2.69337485843715				ISITrial	Mixed
27.0	1	437.565	0.025	544.291	-3.19	-2.0	22.3763	0.592	955.0	0.82	Outcome2	-0.5	-3.19	2549.75	Yes		-2.69337485843715			552.0	TrialHappiness	Mixed
27.0	1	441.577	4.012	548.303	-3.19	-2.0	22.3763	2.199	955.0	0.82	Outcome2	-0.5	-3.19	2549.75	Yes		-2.69337485843715				ISIRate	Mixed
	1	443.8	0.024	550.526				-0.001								{SPACE}		29.576	473.376		Rest	
	1	473.405	0.029	580.131				4.0													BlockHappyPreview	
	1	477.417	0.012	584.143				2.196												592.0	BlockStartHappiness	
	1	495.872	0.016	602.598				-0.001								5.0		3.592	499.464		ScanWait	
	2	0.019	0.019	606.209				10.0													GetReady	
28.0	2	10.033	0.014	616.223	-7.98	-3.0	21.3788	3.0	70.0	0.4	Outcome2	0.9	-7.98	0.0	No	2.0	-8.877551020408161	1.693	11.726		GetAnswer	Mixed
28.0	2	11.738	0.012	617.928	-7.98	-3.0	21.3788	4.0	70.0	0.4	Outcome2	0.9	-7.98	0.0	No		-8.877551020408161				ShowChoice	Mixed
28.0	2	15.75	0.012	621.94	-7.98	-3.0	21.3788	1.0	70.0	0.4	Outcome2	0.9	-7.98	0.0	No		-8.877551020408161				ShowResult	Mixed
28.0	2	16.769	0.019	622.959	-7.98	-3.0	21.3788	3.575	70.0	0.4	Outcome2	0.9	-7.98	0.0	No		-8.877551020408161				ISITrial	Mixed
29.0	2	20.363	0.019	626.553	2.03	1.01	21.6326	3.0	70.0	2.8	Outcome2	11.5	2.03	3529.0	Yes	2.0	-9.469387755102039	1.449	21.812		GetAnswer	Loss
29.0	2	21.834	0.022	628.024	2.03	1.01	21.6326	4.0	70.0	2.8	Outcome2	11.5	2.03	3529.0	Yes		-9.469387755102039				ShowChoice	Loss
29.0	2	25.846	0.012	632.036	2.03	1.01	21.6326	1.0	70.0	2.8	Outcome2	11.5	2.03	3529.0	Yes		-9.469387755102039				ShowResult	Loss
29.0	2	26.866	0.02	633.056	2.03	1.01	21.6326	3.955	70.0	2.8	Outcome2	11.5	2.03	3529.0	Yes		-9.469387755102039				ISITrial	Loss
29.0	2	34.389	0.015	640.579	2.03	1.01	21.6326	1.36	70.0	2.8	Outcome2	11.5	2.03	3529.0	Yes		-9.469387755102039			448.0	TrialHappiness	Loss
29.0	2	38.417	4.028	644.607	2.03	1.01	21.6326	6.116	70.0	2.8	Outcome2	11.5	2.03	3529.0	Yes		-9.469387755102039				ISIRate	Loss
30.0	2	44.552	0.019	650.742	6.29	3.14	22.4188	3.0	70.0	3.6	Outcome2	13.9	6.29	0.0	No	2.0	-7.6122448979591795	1.269	45.821		GetAnswer	Loss
30.0	2	45.84	0.019	652.03	6.29	3.14	22.4188	4.0	70.0	3.6	Outcome2	13.9	6.29	0.0	No		-7.6122448979591795				ShowChoice	Loss
30.0	2	49.852	0.012	656.042	6.29	3.14	22.4188	1.0	70.0	3.6	Outcome2	13.9	6.29	0.0	No		-7.6122448979591795				ShowResult	Loss
30.0	2	50.871	0.019	657.061	6.29	3.14	22.4188	4.453	70.0	3.6	Outcome2	13.9	6.29	0.0	No		-7.6122448979591795				ISITrial	Loss
31.0	2	55.351	0.027	661.541	0.0	0.0	22.4188	3.0	70.0	0.52	Certain	0.28	-1.39	2503.25	Yes	4.0	1.6700680272108799	2.272	57.623		GetAnswer	Mixed
31.0	2	57.642	0.019	663.832	0.0	0.0	22.4188	4.0	70.0	0.52	Certain	0.28	-1.39	2503.25	Yes		1.6700680272108799				ShowChoice	Mixed
31.0	2	61.654	0.012	667.844	0.0	0.0	22.4188	1.0	70.0	0.52	Certain	0.28	-1.39	2503.25	Yes		1.6700680272108799				ShowResult	Mixed
31.0	2	62.673	0.019	668.863	0.0	0.0	22.4188	4.786	70.0	0.52	Certain	0.28	-1.39	2503.25	Yes		1.6700680272108799				ISITrial	Mixed
31.0	2	70.012	0.021	676.202	0.0	0.0	22.4188	3.719	70.0	0.52	Certain	0.28	-1.39	2503.25	Yes		1.6700680272108799			504.0	TrialHappiness	Mixed
31.0	2	74.024	4.012	680.214	0.0	0.0	22.4188	2.013	70.0	0.52	Certain	0.28	-1.39	2503.25	Yes		1.6700680272108799				ISIRate	Mixed
32.0	2	76.063	0.026	682.253	-0.22	-1.0	22.3913	3.0	70.0	0.52	Outcome1	-0.22	-2.15	0.0	No	2.0	1.9332955404384	2.572	78.635		GetAnswer	Mixed
32.0	2	78.654	0.019	684.844	-0.22	-1.0	22.3913	4.0	70.0	0.52	Outcome1	-0.22	-2.15	0.0	No		1.9332955404384				ShowChoice	Mixed
32.0	2	82.666	0.012	688.856	-0.22	-1.0	22.3913	1.0	70.0	0.52	Outcome1	-0.22	-2.15	0.0	No		1.9332955404384				ShowResult	Mixed
32.0	2	83.686	0.02	689.876	-0.22	-1.0	22.3913	2.0	70.0	0.52	Outcome1	-0.22	-2.15	0.0	No		1.9332955404384				ISITrial	Mixed
33.0	2	85.709	0.023	691.899	-9.41	-4.0	21.2151	3.0	70.0	0.2	Outcome1	-9.41	0.5	0.0	No	2.0	-9.913832199546489	2.026	87.735		GetAnswer	Mixed
33.0	2	87.748	0.013	693.938	-9.41	-4.0	21.2151	4.0	70.0	0.2	Outcome1	-9.41	0.5	0.0	No		-9.913832199546489				ShowChoice	Mixed
33.0	2	91.76	0.012	697.95	-9.41	-4.0	21.2151	1.0	70.0	0.2	Outcome1	-9.41	0.5	0.0	No		-9.913832199546489				ShowResult	Mixed
33.0	2	92.78	0.02	698.97	-9.41	-4.0	21.2151	5.099	70.0	0.2	Outcome1	-9.41	0.5	0.0	No		-9.913832199546489				ISITrial	Mixed
34.0	2	97.895	0.016	704.085	1.0	1.0	21.3401	3.0	70.0	2.22	Certain	-0.24	1.78	3231.5	Yes	4.0	2.01530612244898	1.983	99.878		GetAnswer	Gain
34.0	2	99.901	0.023	706.091	1.0	1.0	21.3401	4.0	70.0	2.22	Certain	-0.24	1.78	3231.5	Yes		2.01530612244898				ShowChoice	Gain
34.0	2	103.913	0.012	710.103	1.0	1.0	21.3401	1.0	70.0	2.22	Certain	-0.24	1.78	3231.5	Yes		2.01530612244898				ShowResult	Gain
34.0	2	104.933	0.02	711.123	1.0	1.0	21.3401	4.784	70.0	2.22	Certain	-0.24	1.78	3231.5	Yes		2.01530612244898				ISITrial	Gain
34.0	2	112.99	0.027	719.18	1.0	1.0	21.3401	3.15	70.0	2.22	Certain	-0.24	1.78	3231.5	Yes		2.01530612244898			488.0	TrialHappiness	Gain
34.0	2	117.002	4.012	723.192	1.0	1.0	21.3401	4.926	70.0	2.22	Certain	-0.24	1.78	3231.5	Yes		2.01530612244898				ISIRate	Gain
35.0	2	121.95	0.022	728.14	1.47	0.74	21.5239	3.0	70.0	4.2	Outcome1	1.47	12.1	0.0	No	2.0	-10.6258503401361	1.228	123.178		GetAnswer	Loss
35.0	2	123.204	0.026	729.394	1.47	0.74	21.5239	4.0	70.0	4.2	Outcome1	1.47	12.1	0.0	No		-10.6258503401361				ShowChoice	Loss
35.0	2	127.216	0.012	733.406	1.47	0.74	21.5239	1.0	70.0	4.2	Outcome1	1.47	12.1	0.0	No		-10.6258503401361				ShowResult	Loss
35.0	2	128.236	0.02	734.426	1.47	0.74	21.5239	2.098	70.0	4.2	Outcome1	1.47	12.1	0.0	No		-10.6258503401361				ISITrial	Loss
36.0	2	130.359	0.025	736.549	1.88	1.0	21.7589	3.0	70.0	2.8	Outcome1	1.88	-0.15	3335.75	Yes	2.0	2.03080120937264	2.517	132.876		GetAnswer	Gain
36.0	2	132.9	0.024	739.09	1.88	1.0	21.7589	4.0	70.0	2.8	Outcome1	1.88	-0.15	3335.75	Yes		2.03080120937264				ShowChoice	Gain
36.0	2	136.912	0.012	743.102	1.88	1.0	21.7589	1.0	70.0	2.8	Outcome1	1.88	-0.15	3335.75	Yes		2.03080120937264				ShowResult	Gain
36.0	2	137.932	0.02	744.122	1.88	1.0	21.7589	5.156	70.0	2.8	Outcome1	1.88	-0.15	3335.75	Yes		2.03080120937264				ISITrial	Gain
36.0	2	146.474	0.024	752.664	1.88	1.0	21.7589	2.615	70.0	2.8	Outcome1	1.88	-0.15	3335.75	Yes	4{-4}	2.03080120937264	2.615	149.089	472.0	TrialHappiness	Gain
36.0	2	150.486	4.012	756.676	1.88	1.0	21.7589	5.343	70.0	2.8	Outcome1	1.88	-0.15	3335.75	Yes		2.03080120937264				ISIRate	Gain
37.0	2	155.852	0.023	762.042	-0.6	-0.3	21.6839	3.0	70.0	1.82	Outcome2	10.7	-0.6	0.0	No	2.0	-11.3015873015873	2.434	158.286		GetAnswer	Loss
37.0	2	158.309	0.023	764.499	-0.6	-0.3	21.6839	4.0	70.0	1.82	Outcome2	10.7	-0.6	0.0	No		-11.3015873015873				ShowChoice	Loss
37.0	2	162.321	0.012	768.511	-0.6	-0.3	21.6839	1.0	70.0	1.82	Outcome2	10.7	-0.6	0.0	No		-11.3015873015873				ShowResult	Loss
37.0	2	163.341	0.02	769.531	-0.6	-0.3	21.6839	3.598	70.0	1.82	Outcome2	10.7	-0.6	0.0	No		-11.3015873015873				ISITrial	Loss
38.0	2	166.968	0.029	773.158	0.0	0.0	21.6839	3.0	70.0	2.0	Certain	0.57	-1.47	0.0	No	4.0	2.04327286470144	2.229	169.197		GetAnswer	Mixed
38.0	2	169.208	0.011	775.398	0.0	0.0	21.6839	4.0	70.0	2.0	Certain	0.57	-1.47	0.0	No		2.04327286470144				ShowChoice	Mixed
38.0	2	173.22	0.012	779.41	0.0	0.0	21.6839	1.0	70.0	2.0	Certain	0.57	-1.47	0.0	No		2.04327286470144				ShowResult	Mixed
38.0	2	174.24	0.02	780.43	0.0	0.0	21.6839	4.787	70.0	2.0	Certain	0.57	-1.47	0.0	No		2.04327286470144				ISITrial	Mixed
39.0	2	179.055	0.028	785.245	-3.71	2.0	21.2201	3.0	70.0	1.68	Outcome2	8.5	-3.71	2864.25	Yes	2.0	-12.213151927437599	2.974	182.029		GetAnswer	Gain
39.0	2	182.047	0.018	788.237	-3.71	2.0	21.2201	4.0	70.0	1.68	Outcome2	8.5	-3.71	2864.25	Yes		-12.213151927437599				ShowChoice	Gain
39.0	2	186.059	0.012	792.249	-3.71	2.0	21.2201	1.0	70.0	1.68	Outcome2	8.5	-3.71	2864.25	Yes		-12.213151927437599				ShowResult	Gain
39.0	2	187.079	0.02	793.269	-3.71	2.0	21.2201	2.348	70.0	1.68	Outcome2	8.5	-3.71	2864.25	Yes		-12.213151927437599				ISITrial	Gain
39.0	2	192.344	0.028	798.534	-3.71	2.0	21.2201	0.0	70.0	1.68	Outcome2	8.5	-3.71	2864.25	Yes		-12.213151927437599			512.0	TrialHappiness	Gain
39.0	2	196.356	4.012	802.546	-3.71	2.0	21.2201	3.457	70.0	1.68	Outcome2	8.5	-3.71	2864.25	Yes		-12.213151927437599				ISIRate	Gain
40.0	2	199.833	0.02	806.023	-3.25	-1.62	20.8139	3.0	70.0	4.2	Outcome2	10.1	-3.25	0.0	No	2.0	-13.3492063492064	1.24	201.073		GetAnswer	Gain
40.0	2	201.087	0.014	807.277	-3.25	-1.62	20.8139	4.0	70.0	4.2	Outcome2	10.1	-3.25	0.0	No		-13.3492063492064				ShowChoice	Gain
40.0	2	205.099	0.012	811.289	-3.25	-1.62	20.8139	1.0	70.0	4.2	Outcome2	10.1	-3.25	0.0	No		-13.3492063492064				ShowResult	Gain
40.0	2	206.119	0.02	812.309	-3.25	-1.62	20.8139	3.158	70.0	4.2	Outcome2	10.1	-3.25	0.0	No		-13.3492063492064				ISITrial	Gain
41.0	2	209.295	0.018	815.485	-0.15	-0.08	20.7951	3.0	70.0	3.16	Outcome2	13.7	-0.15	4000.0	Yes	2.0	-13.8503401360544	2.639	211.934		GetAnswer	Loss
41.0	2	211.986	0.052	818.176	-0.15	-0.08	20.7951	4.0	70.0	3.16	Outcome2	13.7	-0.15	4000.0	Yes		-13.8503401360544				ShowChoice	Loss
41.0	2	215.998	0.012	822.188	-0.15	-0.08	20.7951	1.0	70.0	3.16	Outcome2	13.7	-0.15	4000.0	Yes		-13.8503401360544				ShowResult	Loss
41.0	2	217.018	0.02	823.208	-0.15	-0.08	20.7951	4.506	70.0	3.16	Outcome2	13.7	-0.15	4000.0	Yes		-13.8503401360544				ISITrial	Loss
41.0	2	225.577	0.029	831.767	-0.15	-0.08	20.7951	0.0	70.0	3.16	Outcome2	13.7	-0.15	4000.0	Yes		-13.8503401360544			512.0	TrialHappiness	Loss
41.0	2	229.589	4.012	835.779	-0.15	-0.08	20.7951	8.0	70.0	3.16	Outcome2	13.7	-0.15	4000.0	Yes		-13.8503401360544				ISIRate	Loss
42.0	2	237.613	0.024	843.803	0.0	0.0	20.7951	3.0	70.0	1.68	Certain	1.12	-1.25	0.0	No	4.0	2.36526832955404	1.62	239.233		GetAnswer	Gain
42.0	2	239.251	0.018	845.441	0.0	0.0	20.7951	4.0	70.0	1.68	Certain	1.12	-1.25	0.0	No		2.36526832955404				ShowChoice	Gain
42.0	2	243.263	0.012	849.453	0.0	0.0	20.7951	1.0	70.0	1.68	Certain	1.12	-1.25	0.0	No		2.36526832955404				ShowResult	Gain
42.0	2	244.283	0.02	850.473	0.0	0.0	20.7951	6.248	70.0	1.68	Certain	1.12	-1.25	0.0	No		2.36526832955404				ISITrial	Gain
43.0	2	250.552	0.021	856.742	-1.55	-0.78	20.6013	3.0	70.0	2.48	Outcome2	13.3	-1.55	2775.75	Yes	2.0	-14.8526077097506	1.492	252.044		GetAnswer	Loss
43.0	2	252.056	0.012	858.246	-1.55	-0.78	20.6013	4.0	70.0	2.48	Outcome2	13.3	-1.55	2775.75	Yes		-14.8526077097506				ShowChoice	Loss
43.0	2	256.068	0.012	862.258	-1.55	-0.78	20.6013	1.0	70.0	2.48	Outcome2	13.3	-1.55	2775.75	Yes		-14.8526077097506				ShowResult	Loss
43.0	2	257.088	0.02	863.278	-1.55	-0.78	20.6013	4.596	70.0	2.48	Outcome2	13.3	-1.55	2775.75	Yes		-14.8526077097506				ISITrial	Loss
43.0	2	264.493	0.015	870.683	-1.55	-0.78	20.6013	1.411	70.0	2.48	Outcome2	13.3	-1.55	2775.75	Yes		-14.8526077097506			504.0	TrialHappiness	Loss
43.0	2	268.505	4.012	874.695	-1.55	-0.78	20.6013	3.103	70.0	2.48	Outcome2	13.3	-1.55	2775.75	Yes		-14.8526077097506				ISIRate	Loss
44.0	2	271.631	0.023	877.821	-8.32	0.0	19.5613	3.0	70.0	2.0	Outcome1	-8.32	6.9	0.0	No	2.0	-15.2176870748299	2.063	273.694		GetAnswer	Gain
44.0	2	273.721	0.027	879.911	-8.32	0.0	19.5613	4.0	70.0	2.0	Outcome1	-8.32	6.9	0.0	No		-15.2176870748299				ShowChoice	Gain
44.0	2	277.733	0.012	883.923	-8.32	0.0	19.5613	1.0	70.0	2.0	Outcome1	-8.32	6.9	0.0	No		-15.2176870748299				ShowResult	Gain
44.0	2	278.753	0.02	884.943	-8.32	0.0	19.5613	2.42	70.0	2.0	Outcome1	-8.32	6.9	0.0	No		-15.2176870748299				ISITrial	Gain
45.0	2	281.193	0.02	887.383	1.0	1.0	19.6863	3.0	70.0	2.22	Certain	2.28	-0.18	0.0	No	4.0	2.4572940287226	1.322	282.515		GetAnswer	Gain
45.0	2	282.531	0.016	888.721	1.0	1.0	19.6863	4.0	70.0	2.22	Certain	2.28	-0.18	0.0	No		2.4572940287226				ShowChoice	Gain
45.0	2	286.543	0.012	892.733	1.0	1.0	19.6863	1.0	70.0	2.22	Certain	2.28	-0.18	0.0	No		2.4572940287226				ShowResult	Gain
45.0	2	287.562	0.019	893.752	1.0	1.0	19.6863	3.144	70.0	2.22	Certain	2.28	-0.18	0.0	No		2.4572940287226				ISITrial	Gain
46.0	2	290.722	0.016	896.912	-10.7	-2.0	18.3488	3.0	70.0	2.8	Outcome2	5.5	-10.7	3841.25	Yes		-16.2018140589569				GetAnswer	Gain
46.0	2	293.747	0.025	899.937	-10.7	-2.0	18.3488	4.0	70.0	2.8	Outcome2	5.5	-10.7	3841.25	Yes		-16.2018140589569				ShowChoice	Gain
46.0	2	297.759	0.012	903.949	-10.7	-2.0	18.3488	1.0	70.0	2.8	Outcome2	5.5	-10.7	3841.25	Yes		-16.2018140589569				ShowResult	Gain
46.0	2	298.779	0.02	904.969	-10.7	-2.0	18.3488	2.246	70.0	2.8	Outcome2	5.5	-10.7	3841.25	Yes		-16.2018140589569				ISITrial	Gain
46.0	2	304.897	0.02	911.087	-10.7	-2.0	18.3488	3.519	70.0	2.8	Outcome2	5.5	-10.7	3841.25	Yes		-16.2018140589569			448.0	TrialHappiness	Gain
46.0	2	308.909	4.012	915.099	-10.7	-2.0	18.3488	7.365	70.0	2.8	Outcome2	5.5	-10.7	3841.25	Yes		-16.2018140589569				ISIRate	Gain
47.0	2	316.298	0.024	922.488	-4.0	-4.0	17.8488	3.0	70.0	1.0	Certain	3.7	-12.04	0.0	No	4.0	-15.7414965986395	2.259	318.557		GetAnswer	Mixed
47.0	2	318.572	0.015	924.762	-4.0	-4.0	17.8488	4.0	70.0	1.0	Certain	3.7	-12.04	0.0	No		-15.7414965986395				ShowChoice	Mixed
47.0	2	322.584	0.012	928.774	-4.0	-4.0	17.8488	1.0	70.0	1.0	Certain	3.7	-12.04	0.0	No		-15.7414965986395				ShowResult	Mixed
47.0	2	323.603	0.019	929.793	-4.0	-4.0	17.8488	2.0	70.0	1.0	Certain	3.7	-12.04	0.0	No		-15.7414965986395				ISITrial	Mixed
48.0	2	325.626	0.023	931.816	1.68	0.0	18.0588	3.0	70.0	1.82	Outcome1	1.68	-0.67	2831.75	Yes	2.0	2.3475056689342404	1.822	327.448		GetAnswer	Gain
48.0	2	327.465	0.017	933.655	1.68	0.0	18.0588	4.0	70.0	1.82	Outcome1	1.68	-0.67	2831.75	Yes		2.3475056689342404				ShowChoice	Gain
48.0	2	331.477	0.012	937.667	1.68	0.0	18.0588	1.0	70.0	1.82	Outcome1	1.68	-0.67	2831.75	Yes		2.3475056689342404				ShowResult	Gain
48.0	2	332.497	0.02	938.687	1.68	0.0	18.0588	3.692	70.0	1.82	Outcome1	1.68	-0.67	2831.75	Yes		2.3475056689342404				ISITrial	Gain
48.0	2	339.066	0.026	945.256	1.68	0.0	18.0588	2.826	70.0	1.82	Outcome1	1.68	-0.67	2831.75	Yes		2.3475056689342404			492.0	TrialHappiness	Gain
48.0	2	343.095	4.029	949.285	1.68	0.0	18.0588	3.327	70.0	1.82	Outcome1	1.68	-0.67	2831.75	Yes		2.3475056689342404				ISIRate	Gain
49.0	2	346.455	0.033	952.645	-8.05	0.0	17.0526	3.0	70.0	2.48	Outcome1	-8.05	9.3	0.0	No	2.0	-17.3469387755102	1.687	348.142		GetAnswer	Gain
49.0	2	348.16	0.018	954.35	-8.05	0.0	17.0526	4.0	70.0	2.48	Outcome1	-8.05	9.3	0.0	No		-17.3469387755102				ShowChoice	Gain
49.0	2	352.172	0.012	958.362	-8.05	0.0	17.0526	1.0	70.0	2.48	Outcome1	-8.05	9.3	0.0	No		-17.3469387755102				ShowResult	Gain
49.0	2	353.192	0.02	959.382	-8.05	0.0	17.0526	8.0	70.0	2.48	Outcome1	-8.05	9.3	0.0	No		-17.3469387755102				ISITrial	Gain
50.0	2	361.216	0.024	967.406	-7.33	1.0	16.1364	3.0	70.0	1.68	Outcome2	10.5	-7.33	3547.25	Yes	2.0	-17.8253968253968	2.942	364.158		GetAnswer	Loss
50.0	2	364.175	0.017	970.365	-7.33	1.0	16.1364	4.0	70.0	1.68	Outcome2	10.5	-7.33	3547.25	Yes		-17.8253968253968				ShowChoice	Loss
50.0	2	368.203	0.028	974.393	-7.33	1.0	16.1364	1.0	70.0	1.68	Outcome2	10.5	-7.33	3547.25	Yes		-17.8253968253968				ShowResult	Loss
50.0	2	369.223	0.02	975.413	-7.33	1.0	16.1364	7.537	70.0	1.68	Outcome2	10.5	-7.33	3547.25	Yes		-17.8253968253968				ISITrial	Loss
50.0	2	380.356	0.03	986.546	-7.33	1.0	16.1364	3.518	70.0	1.68	Outcome2	10.5	-7.33	3547.25	Yes		-17.8253968253968			488.0	TrialHappiness	Loss
50.0	2	384.368	4.012	990.558	-7.33	1.0	16.1364	6.189	70.0	1.68	Outcome2	10.5	-7.33	3547.25	Yes		-17.8253968253968				ISIRate	Loss
51.0	2	390.587	0.03	996.777	1.98	0.0	16.3839	3.0	70.0	3.6	Outcome1	1.98	-0.65	0.0	No	2.0	2.6254724111867	1.569	392.156		GetAnswer	Gain
51.0	2	392.175	0.019	998.365	1.98	0.0	16.3839	4.0	70.0	3.6	Outcome1	1.98	-0.65	0.0	No		2.6254724111867				ShowChoice	Gain
51.0	2	396.187	0.012	1002.377	1.98	0.0	16.3839	1.0	70.0	3.6	Outcome1	1.98	-0.65	0.0	No		2.6254724111867				ShowResult	Gain
51.0	2	397.207	0.02	1003.397	1.98	0.0	16.3839	5.508	70.0	3.6	Outcome1	1.98	-0.65	0.0	No		2.6254724111867				ISITrial	Gain
52.0	2	402.74	0.025	1008.93	-17.01	-7.0	14.2576	3.0	70.0	1.0	Outcome2	1.7	-17.01	0.0	No	2.0	-18.709750566893398	1.937	404.677		GetAnswer	Mixed
52.0	2	404.696	0.019	1010.886	-17.01	-7.0	14.2576	4.0	70.0	1.0	Outcome2	1.7	-17.01	0.0	No		-18.709750566893398				ShowChoice	Mixed
52.0	2	408.708	0.012	1014.898	-17.01	-7.0	14.2576	1.0	70.0	1.0	Outcome2	1.7	-17.01	0.0	No		-18.709750566893398				ShowResult	Mixed
52.0	2	409.728	0.02	1015.918	-17.01	-7.0	14.2576	5.913	70.0	1.0	Outcome2	1.7	-17.01	0.0	No		-18.709750566893398				ISITrial	Mixed
53.0	2	415.662	0.021	1021.852	-13.88	-4.0	12.5226	3.0	70.0	2.48	Outcome1	-13.88	5.3	2996.75	Yes	2.0	-19.183673469387802	2.544	418.206		GetAnswer	Gain
53.0	2	418.236	0.03	1024.426	-13.88	-4.0	12.5226	4.0	70.0	2.48	Outcome1	-13.88	5.3	2996.75	Yes		-19.183673469387802				ShowChoice	Gain
53.0	2	422.265	0.029	1028.455	-13.88	-4.0	12.5226	1.0	70.0	2.48	Outcome1	-13.88	5.3	2996.75	Yes		-19.183673469387802				ShowResult	Gain
53.0	2	423.285	0.02	1029.475	-13.88	-4.0	12.5226	3.66	70.0	2.48	Outcome1	-13.88	5.3	2996.75	Yes		-19.183673469387802				ISITrial	Gain
53.0	2	429.988	0.029	1036.178	-13.88	-4.0	12.5226	3.529	70.0	2.48	Outcome1	-13.88	5.3	2996.75	Yes		-19.183673469387802			400.0	TrialHappiness	Gain
53.0	2	434.017	4.029	1040.207	-13.88	-4.0	12.5226	3.987	70.0	2.48	Outcome1	-13.88	5.3	2996.75	Yes		-19.183673469387802				ISIRate	Gain
54.0	2	438.029	0.025	1044.219	-4.0	-4.0	12.0226	3.0	70.0	2.22	Certain	-13.06	5.1	0.0	No	4.0	-18.1609977324263	2.183	440.212		GetAnswer	Gain
54.0	2	440.235	0.023	1046.425	-4.0	-4.0	12.0226	4.0	70.0	2.22	Certain	-13.06	5.1	0.0	No		-18.1609977324263				ShowChoice	Gain
54.0	2	444.247	0.012	1050.437	-4.0	-4.0	12.0226	1.0	70.0	2.22	Certain	-13.06	5.1	0.0	No		-18.1609977324263				ShowResult	Gain
54.0	2	445.267	0.02	1051.457	-4.0	-4.0	12.0226	8.0	70.0	2.22	Certain	-13.06	5.1	0.0	No		-18.1609977324263				ISITrial	Gain
	2	453.291	0.024	1059.481				-0.001								{SPACE}		26.577	479.868		Rest	
	2	479.887	0.019	1086.077				4.0													BlockHappyPreview	
	2	483.899	0.012	1090.089				3.712												516.0	BlockStartHappiness	
	2	504.06	0.016	1110.25				-0.001								5.0		1.592	505.652		ScanWait	
	3	0.012	0.012	1111.854				10.0													GetReady	
55.0	3	10.026	0.014	1121.868	2.92	1.46	12.3876	3.0	955.0	1.82	Outcome1	2.92	4.7	2533.25	Yes	2.0	-1.78152132880332	1.262	11.288		GetAnswer	Gain
55.0	3	11.313	0.025	1123.155	2.92	1.46	12.3876	4.0	955.0	1.82	Outcome1	2.92	4.7	2533.25	Yes		-1.78152132880332				ShowChoice	Gain
55.0	3	15.325	0.012	1127.167	2.92	1.46	12.3876	1.0	955.0	1.82	Outcome1	2.92	4.7	2533.25	Yes		-1.78152132880332				ShowResult	Gain
55.0	3	16.345	0.02	1128.187	2.92	1.46	12.3876	7.709	955.0	1.82	Outcome1	2.92	4.7	2533.25	Yes		-1.78152132880332				ISITrial	Gain
55.0	3	26.625	0.024	1138.467	2.92	1.46	12.3876	3.986	955.0	1.82	Outcome1	2.92	4.7	2533.25	Yes		-1.78152132880332			480.0	TrialHappiness	Gain
55.0	3	30.637	4.012	1142.479	2.92	1.46	12.3876	2.133	955.0	1.82	Outcome1	2.92	4.7	2533.25	Yes		-1.78152132880332				ISIRate	Gain
56.0	3	32.794	0.024	1144.636	3.3	-1.0	12.8001	3.0	955.0	0.66	Outcome2	-5.27	3.3	0.0	No	2.0	8.56625141562854	2.096	34.89		GetAnswer	Mixed
56.0	3	34.917	0.027	1146.759	3.3	-1.0	12.8001	4.0	955.0	0.66	Outcome2	-5.27	3.3	0.0	No		8.56625141562854				ShowChoice	Mixed
56.0	3	38.929	0.012	1150.771	3.3	-1.0	12.8001	1.0	955.0	0.66	Outcome2	-5.27	3.3	0.0	No		8.56625141562854				ShowResult	Mixed
56.0	3	39.949	0.02	1151.791	3.3	-1.0	12.8001	4.697	955.0	0.66	Outcome2	-5.27	3.3	0.0	No		8.56625141562854				ISITrial	Mixed
57.0	3	44.663	0.017	1156.505	1.9	-2.0	13.0376	3.0	955.0	1.2	Outcome1	1.9	-7.2	0.0	No	2.0	9.104190260475649	2.069	46.732		GetAnswer	Mixed
57.0	3	46.752	0.02	1158.594	1.9	-2.0	13.0376	4.0	955.0	1.2	Outcome1	1.9	-7.2	0.0	No		9.104190260475649				ShowChoice	Mixed
57.0	3	50.764	0.012	1162.606	1.9	-2.0	13.0376	1.0	955.0	1.2	Outcome1	1.9	-7.2	0.0	No		9.104190260475649				ShowResult	Mixed
57.0	3	51.784	0.02	1163.626	1.9	-2.0	13.0376	4.291	955.0	1.2	Outcome1	1.9	-7.2	0.0	No		9.104190260475649				ISITrial	Mixed
58.0	3	56.097	0.022	1167.939	4.1	0.0	13.5501	3.0	955.0	1.5	Outcome2	-5.54	4.1	3045.75	Yes	2.0	9.642129105322761	2.0	58.097		GetAnswer	Mixed
58.0	3	58.12	0.023	1169.962	4.1	0.0	13.5501	4.0	955.0	1.5	Outcome2	-5.54	4.1	3045.75	Yes		9.642129105322761				ShowChoice	Mixed
58.0	3	62.132	0.012	1173.974	4.1	0.0	13.5501	1.0	955.0	1.5	Outcome2	-5.54	4.1	3045.75	Yes		9.642129105322761				ShowResult	Mixed
58.0	3	63.151	0.019	1174.993	4.1	0.0	13.5501	2.037	955.0	1.5	Outcome2	-5.54	4.1	3045.75	Yes		9.642129105322761				ISITrial	Mixed
58.0	3	68.283	0.03	1180.125	4.1	0.0	13.5501	3.785	955.0	1.5	Outcome2	-5.54	4.1	3045.75	Yes		9.642129105322761			520.0	TrialHappiness	Mixed
58.0	3	72.295	4.012	1184.137	4.1	0.0	13.5501	4.183	955.0	1.5	Outcome2	-5.54	4.1	3045.75	Yes		9.642129105322761				ISIRate	Mixed
59.0	3	76.508	0.03	1188.35	11.1	0.8	14.9376	3.0	955.0	2.22	Outcome2	1.6	11.1	0.0	No	2.0	9.50056625141563	1.232	77.74		GetAnswer	Loss
59.0	3	77.762	0.022	1189.604	11.1	0.8	14.9376	4.0	955.0	2.22	Outcome2	1.6	11.1	0.0	No		9.50056625141563				ShowChoice	Loss
59.0	3	81.774	0.012	1193.616	11.1	0.8	14.9376	1.0	955.0	2.22	Outcome2	1.6	11.1	0.0	No		9.50056625141563				ShowResult	Loss
59.0	3	82.793	0.019	1194.635	11.1	0.8	14.9376	5.064	955.0	2.22	Outcome2	1.6	11.1	0.0	No		9.50056625141563				ISITrial	Loss
60.0	3	87.875	0.018	1199.717	13.5	1.76	16.6251	3.0	955.0	2.8	Outcome2	3.51	13.5	3562.5	Yes	2.0	9.993204983012461	1.076	88.951		GetAnswer	Loss
60.0	3	88.978	0.027	1200.82	13.5	1.76	16.6251	4.0	955.0	2.8	Outcome2	3.51	13.5	3562.5	Yes		9.993204983012461				ShowChoice	Loss
60.0	3	92.99	0.012	1204.832	13.5	1.76	16.6251	1.0	955.0	2.8	Outcome2	3.51	13.5	3562.5	Yes		9.993204983012461				ShowResult	Loss
60.0	3	94.01	0.02	1205.852	13.5	1.76	16.6251	8.0	955.0	2.8	Outcome2	3.51	13.5	3562.5	Yes		9.993204983012461				ISITrial	Loss
60.0	3	105.611	0.015	1217.453	13.5	1.76	16.6251	1.513	955.0	2.8	Outcome2	3.51	13.5	3562.5	Yes		9.993204983012461			552.0	TrialHappiness	Loss
60.0	3	109.624	4.013	1221.466	13.5	1.76	16.6251	6.25	955.0	2.8	Outcome2	3.51	13.5	3562.5	Yes		9.993204983012461				ISIRate	Loss
61.0	3	115.892	0.018	1227.734	1.5	-3.0	16.8126	3.0	955.0	0.82	Outcome2	-8.44	1.5	0.0	No	2.0	9.94224235560589	1.962	117.854		GetAnswer	Mixed
61.0	3	117.882	0.028	1229.724	1.5	-3.0	16.8126	4.0	955.0	0.82	Outcome2	-8.44	1.5	0.0	No		9.94224235560589				ShowChoice	Mixed
61.0	3	121.894	0.012	1233.736	1.5	-3.0	16.8126	1.0	955.0	0.82	Outcome2	-8.44	1.5	0.0	No		9.94224235560589				ShowResult	Mixed
61.0	3	122.913	0.019	1234.755	1.5	-3.0	16.8126	4.586	955.0	0.82	Outcome2	-8.44	1.5	0.0	No		9.94224235560589				ISITrial	Mixed
62.0	3	127.527	0.028	1239.369	8.7	-0.85	17.9001	3.0	955.0	1.82	Outcome2	-1.7	8.7	3748.75	Yes	2.0	10.398640996602499	1.38	128.907		GetAnswer	Gain
62.0	3	128.931	0.024	1240.773	8.7	-0.85	17.9001	4.0	955.0	1.82	Outcome2	-1.7	8.7	3748.75	Yes		10.398640996602499				ShowChoice	Gain
62.0	3	132.943	0.012	1244.785	8.7	-0.85	17.9001	1.0	955.0	1.82	Outcome2	-1.7	8.7	3748.75	Yes		10.398640996602499				ShowResult	Gain
62.0	3	133.963	0.02	1245.805	8.7	-0.85	17.9001	5.212	955.0	1.82	Outcome2	-1.7	8.7	3748.75	Yes		10.398640996602499				ISITrial	Gain
62.0	3	142.973	0.029	1254.815	8.7	-0.85	17.9001	2.877	955.0	1.82	Outcome2	-1.7	8.7	3748.75	Yes		10.398640996602499			544.0	TrialHappiness	Gain
62.0	3	146.985	4.012	1258.827	8.7	-0.85	17.9001	6.995	955.0	1.82	Outcome2	-1.7	8.7	3748.75	Yes		10.398640996602499				ISIRate	Gain
63.0	3	154.006	0.026	1265.848	-5.0	-5.0	17.2751	3.0	955.0	0.3	Certain	-10.29	0.7	0.0	No	4.0	10.990939977349901	1.581	155.587		GetAnswer	Mixed
63.0	3	155.611	0.024	1267.453	-5.0	-5.0	17.2751	4.0	955.0	0.3	Certain	-10.29	0.7	0.0	No		10.990939977349901				ShowChoice	Mixed
63.0	3	159.623	0.012	1271.465	-5.0	-5.0	17.2751	1.0	955.0	0.3	Certain	-10.29	0.7	0.0	No		10.990939977349901				ShowResult	Mixed
63.0	3	160.643	0.02	1272.485	-5.0	-5.0	17.2751	5.595	955.0	0.3	Certain	-10.29	0.7	0.0	No		10.990939977349901				ISITrial	Mixed
64.0	3	166.26	0.022	1278.102	10.9	-0.28	18.6376	3.0	955.0	2.0	Outcome2	-0.56	10.9	0.0	No	2.0	11.4563986409966	1.447	167.707		GetAnswer	Loss
64.0	3	167.731	0.024	1279.573	10.9	-0.28	18.6376	4.0	955.0	2.0	Outcome2	-0.56	10.9	0.0	No		11.4563986409966				ShowChoice	Loss
64.0	3	171.743	0.012	1283.585	10.9	-0.28	18.6376	1.0	955.0	2.0	Outcome2	-0.56	10.9	0.0	No		11.4563986409966				ShowResult	Loss
64.0	3	172.762	0.019	1284.604	10.9	-0.28	18.6376	5.47	955.0	2.0	Outcome2	-0.56	10.9	0.0	No		11.4563986409966				ISITrial	Loss
65.0	3	178.262	0.03	1290.104	10.42	5.21	19.9401	3.0	955.0	1.68	Outcome2	12.5	10.42	2996.75	Yes	2.0	-2.0795583238958097	1.153	179.415		GetAnswer	Loss
65.0	3	179.432	0.017	1291.274	10.42	5.21	19.9401	4.0	955.0	1.68	Outcome2	12.5	10.42	2996.75	Yes		-2.0795583238958097				ShowChoice	Loss
65.0	3	183.444	0.012	1295.286	10.42	5.21	19.9401	1.0	955.0	1.68	Outcome2	12.5	10.42	2996.75	Yes		-2.0795583238958097				ShowResult	Loss
65.0	3	184.464	0.02	1296.306	10.42	5.21	19.9401	3.344	955.0	1.68	Outcome2	12.5	10.42	2996.75	Yes		-2.0795583238958097				ISITrial	Loss
65.0	3	190.85	0.029	1302.692	10.42	5.21	19.9401	3.618	955.0	1.68	Outcome2	12.5	10.42	2996.75	Yes		-2.0795583238958097			488.0	TrialHappiness	Loss
65.0	3	194.862	4.012	1306.704	10.42	5.21	19.9401	3.987	955.0	1.68	Outcome2	12.5	10.42	2996.75	Yes		-2.0795583238958097				ISIRate	Loss
66.0	3	198.874	0.025	1310.716	-2.05	-1.0	19.6838	3.0	955.0	2.0	Outcome2	0.3	-2.05	0.0	No	2.0	-2.34560211400529	2.571	201.445		GetAnswer	Mixed
66.0	3	201.465	0.02	1313.307	-2.05	-1.0	19.6838	4.0	955.0	2.0	Outcome2	0.3	-2.05	0.0	No		-2.34560211400529				ShowChoice	Mixed
66.0	3	205.477	0.012	1317.319	-2.05	-1.0	19.6838	1.0	955.0	2.0	Outcome2	0.3	-2.05	0.0	No		-2.34560211400529				ShowResult	Mixed
66.0	3	206.496	0.019	1318.338	-2.05	-1.0	19.6838	3.959	955.0	2.0	Outcome2	0.3	-2.05	0.0	No		-2.34560211400529				ISITrial	Mixed
67.0	3	210.475	0.02	1322.317	12.3	-0.78	21.2213	3.0	955.0	5.0	Outcome2	-1.57	12.3	2918.5	Yes	2.0	13.8674971687429	1.494	211.969		GetAnswer	Loss
67.0	3	211.996	0.027	1323.838	12.3	-0.78	21.2213	4.0	955.0	5.0	Outcome2	-1.57	12.3	2918.5	Yes		13.8674971687429				ShowChoice	Loss
67.0	3	216.008	0.012	1327.85	12.3	-0.78	21.2213	1.0	955.0	5.0	Outcome2	-1.57	12.3	2918.5	Yes		13.8674971687429				ShowResult	Loss
67.0	3	217.028	0.02	1328.87	12.3	-0.78	21.2213	4.199	955.0	5.0	Outcome2	-1.57	12.3	2918.5	Yes		13.8674971687429				ISITrial	Loss
67.0	3	224.183	0.024	1336.025	12.3	-0.78	21.2213	2.807	955.0	5.0	Outcome2	-1.57	12.3	2918.5	Yes		13.8674971687429			568.0	TrialHappiness	Loss
67.0	3	228.195	4.012	1340.037	12.3	-0.78	21.2213	3.674	955.0	5.0	Outcome2	-1.57	12.3	2918.5	Yes		13.8674971687429				ISIRate	Loss
68.0	3	231.889	0.02	1343.731	3.9	-2.0	21.7088	3.0	955.0	1.2	Outcome2	-9.14	3.9	0.0	No	2.0	13.037372593431499	1.672	233.561		GetAnswer	Mixed
68.0	3	233.577	0.016	1345.419	3.9	-2.0	21.7088	4.0	955.0	1.2	Outcome2	-9.14	3.9	0.0	No		13.037372593431499				ShowChoice	Mixed
68.0	3	237.589	0.012	1349.431	3.9	-2.0	21.7088	1.0	955.0	1.2	Outcome2	-9.14	3.9	0.0	No		13.037372593431499				ShowResult	Mixed
68.0	3	238.609	0.02	1350.451	3.9	-2.0	21.7088	2.185	955.0	1.2	Outcome2	-9.14	3.9	0.0	No		13.037372593431499				ISITrial	Mixed
69.0	3	240.816	0.022	1352.658	8.1	1.0	22.7213	3.0	955.0	4.2	Outcome1	8.1	-5.38	0.0	No	2.0	13.475651189128001	2.093	242.909		GetAnswer	Gain
69.0	3	242.922	0.013	1354.764	8.1	1.0	22.7213	4.0	955.0	4.2	Outcome1	8.1	-5.38	0.0	No		13.475651189128001				ShowChoice	Gain
69.0	3	246.934	0.012	1358.776	8.1	1.0	22.7213	1.0	955.0	4.2	Outcome1	8.1	-5.38	0.0	No		13.475651189128001				ShowResult	Gain
69.0	3	247.954	0.02	1359.796	8.1	1.0	22.7213	2.0	955.0	4.2	Outcome1	8.1	-5.38	0.0	No		13.475651189128001				ISITrial	Gain
70.0	3	249.976	0.022	1361.818	0.72	2.0	22.8113	3.0	955.0	0.4	Outcome2	2.9	0.72	3651.25	Yes	2.0	-2.18214420536051	1.173	251.149		GetAnswer	Mixed
70.0	3	251.163	0.014	1363.005	0.72	2.0	22.8113	4.0	955.0	0.4	Outcome2	2.9	0.72	3651.25	Yes		-2.18214420536051				ShowChoice	Mixed
70.0	3	255.175	0.012	1367.017	0.72	2.0	22.8113	1.0	955.0	0.4	Outcome2	2.9	0.72	3651.25	Yes		-2.18214420536051				ShowResult	Mixed
70.0	3	256.195	0.02	1368.037	0.72	2.0	22.8113	2.623	955.0	0.4	Outcome2	2.9	0.72	3651.25	Yes		-2.18214420536051				ISITrial	Mixed
70.0	3	262.514	0.027	1374.356	0.72	2.0	22.8113	3.718	955.0	0.4	Outcome2	2.9	0.72	3651.25	Yes	{-2}2{-2}4{-4}4{-4}	-2.18214420536051	3.718	266.232	560.0	TrialHappiness	Mixed
70.0	3	266.526	4.012	1378.368	0.72	2.0	22.8113	6.605	955.0	0.4	Outcome2	2.9	0.72	3651.25	Yes		-2.18214420536051				ISIRate	Mixed
71.0	3	273.146	0.015	1384.988	0.25	1.0	22.8425	3.0	955.0	0.2	Outcome1	0.25	2.5	0.0	No	2.0	-2.25113250283126	1.228	274.374		GetAnswer	Mixed
71.0	3	274.4	0.026	1386.242	0.25	1.0	22.8425	4.0	955.0	0.2	Outcome1	0.25	2.5	0.0	No		-2.25113250283126				ShowChoice	Mixed
71.0	3	278.412	0.012	1390.254	0.25	1.0	22.8425	1.0	955.0	0.2	Outcome1	0.25	2.5	0.0	No		-2.25113250283126				ShowResult	Mixed
71.0	3	279.431	0.019	1391.273	0.25	1.0	22.8425	5.499	955.0	0.2	Outcome1	0.25	2.5	0.0	No		-2.25113250283126				ISITrial	Mixed
72.0	3	284.948	0.018	1396.79	-2.0	-2.0	22.5925	3.0	955.0	0.66	Certain	-2.99	-0.7	3080.5	Yes	4.0	-2.2884107210268	1.954	286.902		GetAnswer	Mixed
72.0	3	286.92	0.018	1398.762	-2.0	-2.0	22.5925	4.0	955.0	0.66	Certain	-2.99	-0.7	3080.5	Yes		-2.2884107210268				ShowChoice	Mixed
72.0	3	290.932	0.012	1402.774	-2.0	-2.0	22.5925	1.0	955.0	0.66	Certain	-2.99	-0.7	3080.5	Yes		-2.2884107210268				ShowResult	Mixed
72.0	3	291.952	0.02	1403.794	-2.0	-2.0	22.5925	5.672	955.0	0.66	Certain	-2.99	-0.7	3080.5	Yes		-2.2884107210268				ISITrial	Mixed
72.0	3	300.745	0.029	1412.587	-2.0	-2.0	22.5925	3.934	955.0	0.66	Certain	-2.99	-0.7	3080.5	Yes		-2.2884107210268			544.0	TrialHappiness	Mixed
72.0	3	304.757	4.012	1416.599	-2.0	-2.0	22.5925	4.322	955.0	0.66	Certain	-2.99	-0.7	3080.5	Yes		-2.2884107210268				ISIRate	Mixed
73.0	3	309.103	0.024	1420.945	2.7	-5.0	22.93	3.0	955.0	0.3	Outcome2	-12.95	2.7	0.0	No	2.0	15.654586636466599	1.961	311.064		GetAnswer	Mixed
73.0	3	311.076	0.012	1422.918	2.7	-5.0	22.93	4.0	955.0	0.3	Outcome2	-12.95	2.7	0.0	No		15.654586636466599				ShowChoice	Mixed
73.0	3	315.088	0.012	1426.93	2.7	-5.0	22.93	1.0	955.0	0.3	Outcome2	-12.95	2.7	0.0	No		15.654586636466599				ShowResult	Mixed
73.0	3	316.108	0.02	1427.95	2.7	-5.0	22.93	4.616	955.0	0.3	Outcome2	-12.95	2.7	0.0	No		15.654586636466599				ISITrial	Mixed
74.0	3	320.755	0.031	1432.597	13.1	-1.51	24.5675	3.0	955.0	2.22	Outcome1	13.1	-3.02	3056.25	Yes	2.0	16.1200453001133	1.151	321.906		GetAnswer	Loss
74.0	3	321.925	0.019	1433.767	13.1	-1.51	24.5675	4.0	955.0	2.22	Outcome1	13.1	-3.02	3056.25	Yes		16.1200453001133				ShowChoice	Loss
74.0	3	325.937	0.012	1437.779	13.1	-1.51	24.5675	1.0	955.0	2.22	Outcome1	13.1	-3.02	3056.25	Yes		16.1200453001133				ShowResult	Loss
74.0	3	326.957	0.02	1438.799	13.1	-1.51	24.5675	3.909	955.0	2.22	Outcome1	13.1	-3.02	3056.25	Yes		16.1200453001133				ISITrial	Loss
74.0	3	333.961	0.02	1445.803	13.1	-1.51	24.5675	1.93	955.0	2.22	Outcome1	13.1	-3.02	3056.25	Yes		16.1200453001133			552.0	TrialHappiness	Loss
74.0	3	337.973	4.012	1449.815	13.1	-1.51	24.5675	4.225	955.0	2.22	Outcome1	13.1	-3.02	3056.25	Yes		16.1200453001133				ISIRate	Loss
75.0	3	342.219	0.021	1454.061	3.46	1.73	25.0	3.0	955.0	3.6	Outcome1	3.46	5.9	0.0	No	2.0	-2.43573046432616	1.067	343.286		GetAnswer	Gain
75.0	3	343.306	0.02	1455.148	3.46	1.73	25.0	4.0	955.0	3.6	Outcome1	3.46	5.9	0.0	No		-2.43573046432616				ShowChoice	Gain
75.0	3	347.318	0.012	1459.16	3.46	1.73	25.0	1.0	955.0	3.6	Outcome1	3.46	5.9	0.0	No		-2.43573046432616				ShowResult	Gain
75.0	3	348.337	0.019	1460.179	3.46	1.73	25.0	4.979	955.0	3.6	Outcome1	3.46	5.9	0.0	No		-2.43573046432616				ISITrial	Gain
76.0	3	353.336	0.02	1465.178	7.3	-1.0	25.9125	3.0	955.0	2.48	Outcome1	7.3	-9.61	0.0	No	2.0	16.906002265005696	1.742	355.078		GetAnswer	Gain
76.0	3	355.091	0.013	1466.933	7.3	-1.0	25.9125	4.0	955.0	2.48	Outcome1	7.3	-9.61	0.0	No		16.906002265005696				ShowChoice	Gain
76.0	3	359.103	0.012	1470.945	7.3	-1.0	25.9125	1.0	955.0	2.48	Outcome1	7.3	-9.61	0.0	No		16.906002265005696				ShowResult	Gain
76.0	3	360.122	0.019	1471.964	7.3	-1.0	25.9125	3.931	955.0	2.48	Outcome1	7.3	-9.61	0.0	No		16.906002265005696				ISITrial	Gain
77.0	3	364.084	0.031	1475.926	-1.5	-10.0	25.725	3.0	955.0	0.2	Outcome1	-1.5	-18.86	4000.0	Yes	2.0	17.3624009060023	2.39	366.474		GetAnswer	Mixed
77.0	3	366.492	0.018	1478.334	-1.5	-10.0	25.725	4.0	955.0	0.2	Outcome1	-1.5	-18.86	4000.0	Yes		17.3624009060023				ShowChoice	Mixed
77.0	3	370.504	0.012	1482.346	-1.5	-10.0	25.725	1.0	955.0	0.2	Outcome1	-1.5	-18.86	4000.0	Yes		17.3624009060023				ShowResult	Mixed
77.0	3	371.523	0.019	1483.365	-1.5	-10.0	25.725	7.022	955.0	0.2	Outcome1	-1.5	-18.86	4000.0	Yes		17.3624009060023				ISITrial	Mixed
77.0	3	382.59	0.029	1494.432	-1.5	-10.0	25.725	3.685	955.0	0.2	Outcome1	-1.5	-18.86	4000.0	Yes		17.3624009060023			508.0	TrialHappiness	Mixed
77.0	3	386.602	4.012	1498.444	-1.5	-10.0	25.725	8.0	955.0	0.2	Outcome1	-1.5	-18.86	4000.0	Yes		17.3624009060023				ISIRate	Mixed
78.0	3	394.626	0.024	1506.468	12.7	-2.94	27.3125	3.0	955.0	1.82	Outcome2	-5.87	12.7	0.0	No	2.0	18.5662514156285	1.617	396.243		GetAnswer	Loss
78.0	3	396.264	0.021	1508.106	12.7	-2.94	27.3125	4.0	955.0	1.82	Outcome2	-5.87	12.7	0.0	No		18.5662514156285				ShowChoice	Loss
78.0	3	400.276	0.012	1512.118	12.7	-2.94	27.3125	1.0	955.0	1.82	Outcome2	-5.87	12.7	0.0	No		18.5662514156285				ShowResult	Loss
78.0	3	401.296	0.02	1513.138	12.7	-2.94	27.3125	2.078	955.0	1.82	Outcome2	-5.87	12.7	0.0	No		18.5662514156285				ISITrial	Loss
79.0	3	403.402	0.028	1515.244	13.1	-2.98	28.95	3.0	955.0	2.22	Outcome2	-5.97	13.1	2729.5	Yes	2.0	19.0724801812005	1.209	404.611		GetAnswer	Loss
79.0	3	404.639	0.028	1516.481	13.1	-2.98	28.95	4.0	955.0	2.22	Outcome2	-5.97	13.1	2729.5	Yes		19.0724801812005				ShowChoice	Loss
79.0	3	408.651	0.012	1520.493	13.1	-2.98	28.95	1.0	955.0	2.22	Outcome2	-5.97	13.1	2729.5	Yes		19.0724801812005				ShowResult	Loss
79.0	3	409.671	0.02	1521.513	13.1	-2.98	28.95	3.829	955.0	2.22	Outcome2	-5.97	13.1	2729.5	Yes		19.0724801812005				ISITrial	Loss
79.0	3	416.274	0.029	1528.116	13.1	-2.98	28.95	3.549	955.0	2.22	Outcome2	-5.97	13.1	2729.5	Yes		19.0724801812005			448.0	TrialHappiness	Loss
79.0	3	420.286	4.012	1532.128	13.1	-2.98	28.95	2.918	955.0	2.22	Outcome2	-5.97	13.1	2729.5	Yes		19.0724801812005				ISIRate	Loss
80.0	3	423.228	0.024	1535.07	6.84	3.42	29.805	3.0	955.0	3.6	Outcome2	9.9	6.84	0.0	No	2.0	-3.0562476406191004	1.033	424.261		GetAnswer	Gain
80.0	3	424.281	0.02	1536.123	6.84	3.42	29.805	4.0	955.0	3.6	Outcome2	9.9	6.84	0.0	No		-3.0562476406191004				ShowChoice	Gain
80.0	3	428.293	0.012	1540.135	6.84	3.42	29.805	1.0	955.0	3.6	Outcome2	9.9	6.84	0.0	No		-3.0562476406191004				ShowResult	Gain
80.0	3	429.313	0.02	1541.155	6.84	3.42	29.805	3.336	955.0	3.6	Outcome2	9.9	6.84	0.0	No		-3.0562476406191004				ISITrial	Gain
81.0	3	432.673	0.024	1544.515	-12.0	-12.0	28.305	3.0	955.0	0.3	Certain	-1.3	-22.47	3923.75	Yes	4.0	21.172140430351103	2.02	434.693		GetAnswer	Mixed
81.0	3	434.712	0.019	1546.554	-12.0	-12.0	28.305	4.0	955.0	0.3	Certain	-1.3	-22.47	3923.75	Yes		21.172140430351103				ShowChoice	Mixed
81.0	3	438.724	0.012	1550.566	-12.0	-12.0	28.305	1.0	955.0	0.3	Certain	-1.3	-22.47	3923.75	Yes		21.172140430351103				ShowResult	Mixed
81.0	3	439.744	0.02	1551.586	-12.0	-12.0	28.305	3.919	955.0	0.3	Certain	-1.3	-22.47	3923.75	Yes		21.172140430351103				ISITrial	Mixed
81.0	3	447.634	0.021	1559.476	-12.0	-12.0	28.305	0.0	955.0	0.3	Certain	-1.3	-22.47	3923.75	Yes		21.172140430351103			512.0	TrialHappiness	Mixed
81.0	3	451.646	4.012	1563.488	-12.0	-12.0	28.305	7.695	955.0	0.3	Certain	-1.3	-22.47	3923.75	Yes		21.172140430351103				ISIRate	Mixed
	3	459.369	0.028	1571.211				3.0													CurrentEarnings	
	3	462.395	0.026	1574.237				-0.001								{SPACE}		6.706	469.101		Goodbye	
