trial_number	block	onset	onset_delay	onset_unadjusted	amount_change	certain_amount	current_amount	duration	mood_target	multiplier	outcome	outcome1_amount	outcome2_amount	question_duration	rating	response	rpe	rt	rt_time	slider_response	trial_phase	trial_type
	0	-35.566	0.02	33.492				-0.001								{SPACE}		2.393	-33.173		Welcome	
	0	-33.142	0.031	35.916				5.0													LifeHappyPreview	
	0	-28.11	0.032	40.948				2.714												620.0	LifeHappiness	
	0	-16.375	0.031	52.683				4.0													BlockHappyPreview	
	0	-12.363	0.012	56.695				0.993								2{-2}		0.993	-11.37	584.0	BlockStartHappiness	
	0	-3.587	0.019	65.471				-0.001								5.0					ScanWait	
	1	0.024	0.024	69.082				10.0													GetReady	
1.0	1	10.054	0.03	79.112	5.7	2.0	10.7125	3.0	955.0	3.16	Outcome2	-0.6	5.7	0.0	No	2.0	6.30237825594564	1.387	11.441		GetAnswer	Gain
1.0	1	11.458	0.017	80.516	5.7	2.0	10.7125	4.0	955.0	3.16	Outcome2	-0.6	5.7	0.0	No		6.30237825594564				ShowChoice	Gain
1.0	1	15.47	0.012	84.528	5.7	2.0	10.7125	1.0	955.0	3.16	Outcome2	-0.6	5.7	0.0	No		6.30237825594564				ShowResult	Gain
1.0	1	16.49	0.02	85.548	5.7	2.0	10.7125	2.431	955.0	3.16	Outcome2	-0.6	5.7	0.0	No		6.30237825594564				ISITrial	Gain
2.0	1	18.947	0.026	88.005	11.76	5.88	12.1825	3.0	955.0	2.48	Outcome2	13.3	11.76	0.0	No	2.0	-1.54058135145338	1.238	20.185		GetAnswer	Loss
2.0	1	20.201	0.016	89.259	11.76	5.88	12.1825	4.0	955.0	2.48	Outcome2	13.3	11.76	0.0	No		-1.54058135145338				ShowChoice	Loss
2.0	1	24.213	0.012	93.271	11.76	5.88	12.1825	1.0	955.0	2.48	Outcome2	13.3	11.76	0.0	No		-1.54058135145338				ShowResult	Loss
2.0	1	25.233	0.02	94.291	11.76	5.88	12.1825	4.568	955.0	2.48	Outcome2	13.3	11.76	0.0	No		-1.54058135145338				ISITrial	Loss
3.0	1	29.83	0.029	98.888	-5.0	-5.0	11.5575	3.0	955.0	0.2	Certain	-8.64	-1.5	2868.0	Yes	4.0	7.14269535673839	2.304	32.134		GetAnswer	Mixed
3.0	1	32.154	0.02	101.212	-5.0	-5.0	11.5575	4.0	955.0	0.2	Certain	-8.64	-1.5	2868.0	Yes		7.14269535673839				ShowChoice	Mixed
3.0	1	36.182	0.028	105.24	-5.0	-5.0	11.5575	1.0	955.0	0.2	Certain	-8.64	-1.5	2868.0	Yes		7.14269535673839				ShowResult	Mixed
3.0	1	37.202	0.02	106.26	-5.0	-5.0	11.5575	3.243	955.0	0.2	Certain	-8.64	-1.5	2868.0	Yes		7.14269535673839				ISITrial	Mixed
3.0	1	43.354	0.024	112.412	-5.0	-5.0	11.5575	0.892	955.0	0.2	Certain	-8.64	-1.5	2868.0	Yes		7.14269535673839			584.0	TrialHappiness	Mixed
3.0	1	47.383	4.029	116.441	-5.0	-5.0	11.5575	3.472	955.0	0.2	Certain	-8.64	-1.5	2868.0	Yes		7.14269535673839				ISIRate	Mixed
4.0	1	50.876	0.021	119.934	10.7	1.57	12.895	3.0	955.0	1.82	Outcome1	10.7	3.14	0.0	No	2.0	7.562853907134769	1.106	51.982		GetAnswer	Loss
4.0	1	52.013	0.031	121.071	10.7	1.57	12.895	4.0	955.0	1.82	Outcome1	10.7	3.14	0.0	No		7.562853907134769				ShowChoice	Loss
4.0	1	56.025	0.012	125.083	10.7	1.57	12.895	1.0	955.0	1.82	Outcome1	10.7	3.14	0.0	No		7.562853907134769				ShowResult	Loss
4.0	1	57.045	0.02	126.103	10.7	1.57	12.895	2.011	955.0	1.82	Outcome1	10.7	3.14	0.0	No		7.562853907134769				ISITrial	Loss
5.0	1	59.084	0.028	128.142	9.85	4.92	14.1262	3.0	955.0	2.8	Outcome1	9.85	11.5	2582.5	Yes	2.0	-1.64562098905247	0.926	60.01		GetAnswer	Loss
5.0	1	60.037	0.027	129.095	9.85	4.92	14.1262	4.0	955.0	2.8	Outcome1	9.85	11.5	2582.5	Yes		-1.64562098905247				ShowChoice	Loss
5.0	1	64.049	0.012	133.107	9.85	4.92	14.1262	1.0	955.0	2.8	Outcome1	9.85	11.5	2582.5	Yes		-1.64562098905247				ShowResult	Loss
5.0	1	65.069	0.02	134.127	9.85	4.92	14.1262	5.129	955.0	2.8	Outcome1	9.85	11.5	2582.5	Yes		-1.64562098905247				ISITrial	Loss
5.0	1	72.826	0.026	141.884	9.85	4.92	14.1262	1.008	955.0	2.8	Outcome1	9.85	11.5	2582.5	Yes		-1.64562098905247			680.0	TrialHappiness	Loss
5.0	1	76.854	4.028	145.912	9.85	4.92	14.1262	2.33	955.0	2.8	Outcome1	9.85	11.5	2582.5	Yes		-1.64562098905247				ISIRate	Loss
6.0	1	79.211	0.027	148.269	0.5	-3.0	14.1887	3.0	955.0	0.2	Outcome1	0.5	-6.27	0.0	No	2.0	6.77236693091733	1.249	80.46		GetAnswer	Mixed
6.0	1	80.482	0.022	149.54	0.5	-3.0	14.1887	4.0	955.0	0.2	Outcome1	0.5	-6.27	0.0	No		6.77236693091733				ShowChoice	Mixed
6.0	1	84.494	0.012	153.552	0.5	-3.0	14.1887	1.0	955.0	0.2	Outcome1	0.5	-6.27	0.0	No		6.77236693091733				ShowResult	Mixed
6.0	1	85.514	0.02	154.572	0.5	-3.0	14.1887	6.232	955.0	0.2	Outcome1	0.5	-6.27	0.0	No		6.77236693091733				ISITrial	Mixed
7.0	1	91.766	0.02	160.824	-4.0	-4.0	13.6887	3.0	955.0	0.4	Certain	-8.18	-1.1	0.0	No	4.0	7.083805209513019	1.563	93.329		GetAnswer	Mixed
7.0	1	93.354	0.025	162.412	-4.0	-4.0	13.6887	4.0	955.0	0.4	Certain	-8.18	-1.1	0.0	No		7.083805209513019				ShowChoice	Mixed
7.0	1	97.383	0.029	166.441	-4.0	-4.0	13.6887	1.0	955.0	0.4	Certain	-8.18	-1.1	0.0	No		7.083805209513019				ShowResult	Mixed
7.0	1	98.402	0.019	167.46	-4.0	-4.0	13.6887	2.305	955.0	0.4	Certain	-8.18	-1.1	0.0	No		7.083805209513019				ISITrial	Mixed
8.0	1	100.726	0.019	169.784	0.56	1.0	13.7587	3.0	955.0	1.2	Outcome2	1.9	0.56	3112.5	Yes	2.0	-1.34295960739902	1.247	101.973		GetAnswer	Mixed
8.0	1	101.996	0.023	171.054	0.56	1.0	13.7587	4.0	955.0	1.2	Outcome2	1.9	0.56	3112.5	Yes		-1.34295960739902				ShowChoice	Mixed
8.0	1	106.009	0.013	175.067	0.56	1.0	13.7587	1.0	955.0	1.2	Outcome2	1.9	0.56	3112.5	Yes		-1.34295960739902				ShowResult	Mixed
8.0	1	107.028	0.019	176.086	0.56	1.0	13.7587	3.506	955.0	1.2	Outcome2	1.9	0.56	3112.5	Yes		-1.34295960739902				ISITrial	Mixed
8.0	1	113.698	0.031	182.756	0.56	1.0	13.7587	1.741	955.0	1.2	Outcome2	1.9	0.56	3112.5	Yes		-1.34295960739902			652.0	TrialHappiness	Mixed
8.0	1	117.727	4.029	186.785	0.56	1.0	13.7587	4.45	955.0	1.2	Outcome2	1.9	0.56	3112.5	Yes		-1.34295960739902				ISIRate	Mixed
9.0	1	122.207	0.03	191.265	-1.0	-1.0	13.6337	3.0	955.0	0.52	Certain	3.1	-5.08	0.0	No	4.0	8.18233295583239	1.787	123.994		GetAnswer	Mixed
9.0	1	124.013	0.019	193.071	-1.0	-1.0	13.6337	4.0	955.0	0.52	Certain	3.1	-5.08	0.0	No		8.18233295583239				ShowChoice	Mixed
9.0	1	128.041	0.028	197.099	-1.0	-1.0	13.6337	1.0	955.0	0.52	Certain	3.1	-5.08	0.0	No		8.18233295583239				ShowResult	Mixed
9.0	1	129.061	0.02	198.119	-1.0	-1.0	13.6337	2.0	955.0	0.52	Certain	3.1	-5.08	0.0	No		8.18233295583239				ISITrial	Mixed
10.0	1	131.084	0.023	200.142	2.39	1.2	13.9325	3.0	955.0	1.2	Outcome2	3.9	2.39	4000.0	Yes	2.0	-1.51113627784069	0.943	132.027		GetAnswer	Mixed
10.0	1	132.053	0.026	201.111	2.39	1.2	13.9325	4.0	955.0	1.2	Outcome2	3.9	2.39	4000.0	Yes		-1.51113627784069				ShowChoice	Mixed
10.0	1	136.065	0.012	205.123	2.39	1.2	13.9325	1.0	955.0	1.2	Outcome2	3.9	2.39	4000.0	Yes		-1.51113627784069				ShowResult	Mixed
10.0	1	137.085	0.02	206.143	2.39	1.2	13.9325	2.0	955.0	1.2	Outcome2	3.9	2.39	4000.0	Yes		-1.51113627784069				ISITrial	Mixed
10.0	1	143.137	0.029	212.195	2.39	1.2	13.9325	1.543	955.0	1.2	Outcome2	3.9	2.39	4000.0	Yes		-1.51113627784069			736.0	TrialHappiness	Mixed
10.0	1	147.165	4.028	216.223	2.39	1.2	13.9325	8.0	955.0	1.2	Outcome2	3.9	2.39	4000.0	Yes		-1.51113627784069				ISIRate	Mixed
11.0	1	155.189	0.024	224.247	-2.0	-2.0	13.6825	3.0	955.0	0.82	Certain	-5.94	1.5	0.0	No	4.0	7.44167610419026	1.405	156.594		GetAnswer	Mixed
11.0	1	156.61	0.016	225.668	-2.0	-2.0	13.6825	4.0	955.0	0.82	Certain	-5.94	1.5	0.0	No		7.44167610419026				ShowChoice	Mixed
11.0	1	160.622	0.012	229.68	-2.0	-2.0	13.6825	1.0	955.0	0.82	Certain	-5.94	1.5	0.0	No		7.44167610419026				ShowResult	Mixed
11.0	1	161.642	0.02	230.7	-2.0	-2.0	13.6825	3.324	955.0	0.82	Certain	-5.94	1.5	0.0	No		7.44167610419026				ISITrial	Mixed
12.0	1	164.985	0.019	234.043	12.9	2.6	15.295	3.0	955.0	2.0	Outcome1	12.9	5.21	2618.75	Yes	2.0	7.689694224235559	0.877	165.862		GetAnswer	Loss
12.0	1	165.888	0.026	234.946	12.9	2.6	15.295	4.0	955.0	2.0	Outcome1	12.9	5.21	2618.75	Yes		7.689694224235559				ShowChoice	Loss
12.0	1	169.917	0.029	238.975	12.9	2.6	15.295	1.0	955.0	2.0	Outcome1	12.9	5.21	2618.75	Yes		7.689694224235559				ShowResult	Loss
12.0	1	170.937	0.02	239.995	12.9	2.6	15.295	6.642	955.0	2.0	Outcome1	12.9	5.21	2618.75	Yes		7.689694224235559				ISITrial	Loss
12.0	1	180.248	0.022	249.306	12.9	2.6	15.295	2.162	955.0	2.0	Outcome1	12.9	5.21	2618.75	Yes		7.689694224235559			756.0	TrialHappiness	Loss
12.0	1	184.277	4.029	253.335	12.9	2.6	15.295	2.475	955.0	2.0	Outcome1	12.9	5.21	2618.75	Yes		7.689694224235559				ISIRate	Loss
13.0	1	186.784	0.032	255.842	12.1	2.25	16.8075	3.0	955.0	4.2	Outcome2	4.5	12.1	0.0	No	2.0	7.59796149490374	0.91	187.694		GetAnswer	Loss
13.0	1	187.72	0.026	256.778	12.1	2.25	16.8075	4.0	955.0	4.2	Outcome2	4.5	12.1	0.0	No		7.59796149490374				ShowChoice	Loss
13.0	1	191.749	0.029	260.807	12.1	2.25	16.8075	1.0	955.0	4.2	Outcome2	4.5	12.1	0.0	No		7.59796149490374				ShowResult	Loss
13.0	1	192.769	0.02	261.827	12.1	2.25	16.8075	3.48	955.0	4.2	Outcome2	4.5	12.1	0.0	No		7.59796149490374				ISITrial	Loss
14.0	1	196.279	0.03	265.337	3.3	0.0	17.22	3.0	955.0	0.66	Outcome2	-4.52	3.3	0.0	No	2.0	7.823329558323901	1.781	198.06		GetAnswer	Mixed
14.0	1	198.085	0.024	267.143	3.3	0.0	17.22	4.0	955.0	0.66	Outcome2	-4.52	3.3	0.0	No		7.823329558323901				ShowChoice	Mixed
14.0	1	202.113	0.028	271.171	3.3	0.0	17.22	1.0	955.0	0.66	Outcome2	-4.52	3.3	0.0	No		7.823329558323901				ShowResult	Mixed
14.0	1	203.133	0.02	272.191	3.3	0.0	17.22	5.019	955.0	0.66	Outcome2	-4.52	3.3	0.0	No		7.823329558323901				ISITrial	Mixed
15.0	1	208.182	0.03	277.24	-1.7	-1.0	17.0075	3.0	955.0	0.82	Outcome1	-1.7	-0.5	3348.5	Yes	2.0	-1.19658361645904	2.159	210.341		GetAnswer	Mixed
15.0	1	210.372	0.031	279.43	-1.7	-1.0	17.0075	4.0	955.0	0.82	Outcome1	-1.7	-0.5	3348.5	Yes		-1.19658361645904				ShowChoice	Mixed
15.0	1	214.4	0.028	283.458	-1.7	-1.0	17.0075	1.0	955.0	0.82	Outcome1	-1.7	-0.5	3348.5	Yes		-1.19658361645904				ShowResult	Mixed
15.0	1	215.42	0.02	284.478	-1.7	-1.0	17.0075	7.614	955.0	0.82	Outcome1	-1.7	-0.5	3348.5	Yes		-1.19658361645904				ISITrial	Mixed
15.0	1	226.436	0.028	295.494	-1.7	-1.0	17.0075	0.776	955.0	0.82	Outcome1	-1.7	-0.5	3348.5	Yes	2{-2}	-1.19658361645904	0.776	227.212	616.0	TrialHappiness	Mixed
15.0	1	230.465	4.029	299.523	-1.7	-1.0	17.0075	5.394	955.0	0.82	Outcome1	-1.7	-0.5	3348.5	Yes		-1.19658361645904				ISIRate	Mixed
16.0	1	235.881	0.022	304.939	6.9	1.0	17.87	3.0	955.0	2.0	Outcome1	6.9	-3.75	0.0	No	2.0	10.6523216308041	1.313	237.194		GetAnswer	Gain
16.0	1	237.219	0.025	306.277	6.9	1.0	17.87	4.0	955.0	2.0	Outcome1	6.9	-3.75	0.0	No		10.6523216308041				ShowChoice	Gain
16.0	1	241.248	0.029	310.306	6.9	1.0	17.87	1.0	955.0	2.0	Outcome1	6.9	-3.75	0.0	No		10.6523216308041				ShowResult	Gain
16.0	1	242.267	0.019	311.325	6.9	1.0	17.87	3.008	955.0	2.0	Outcome1	6.9	-3.75	0.0	No		10.6523216308041				ISITrial	Gain
17.0	1	245.31	0.035	314.368	-2.0	-2.0	17.62	3.0	955.0	1.0	Certain	-7.34	3.7	3041.5	Yes	4.0	11.0362400906002	1.643	246.953		GetAnswer	Mixed
17.0	1	246.981	0.028	316.039	-2.0	-2.0	17.62	4.0	955.0	1.0	Certain	-7.34	3.7	3041.5	Yes		11.0362400906002				ShowChoice	Mixed
17.0	1	251.01	0.029	320.068	-2.0	-2.0	17.62	1.0	955.0	1.0	Certain	-7.34	3.7	3041.5	Yes		11.0362400906002				ShowResult	Mixed
17.0	1	252.03	0.02	321.088	-2.0	-2.0	17.62	3.566	955.0	1.0	Certain	-7.34	3.7	3041.5	Yes		11.0362400906002				ISITrial	Mixed
17.0	1	258.7	0.034	327.758	-2.0	-2.0	17.62	1.411	955.0	1.0	Certain	-7.34	3.7	3041.5	Yes	2{-2}2{-2}	11.0362400906002	1.411	260.111	592.0	TrialHappiness	Mixed
17.0	1	262.729	4.029	331.787	-2.0	-2.0	17.62	4.166	955.0	1.0	Certain	-7.34	3.7	3041.5	Yes		11.0362400906002				ISIRate	Mixed
18.0	1	266.925	0.03	335.983	-0.1	-6.0	17.6075	3.0	955.0	1.2	Outcome1	-0.1	-11.93	0.0	No	2.0	11.8278595696489	1.909	268.834		GetAnswer	Mixed
18.0	1	268.864	0.03	337.922	-0.1	-6.0	17.6075	4.0	955.0	1.2	Outcome1	-0.1	-11.93	0.0	No		11.8278595696489				ShowChoice	Mixed
18.0	1	272.892	0.028	341.95	-0.1	-6.0	17.6075	1.0	955.0	1.2	Outcome1	-0.1	-11.93	0.0	No		11.8278595696489				ShowResult	Mixed
18.0	1	273.912	0.02	342.97	-0.1	-6.0	17.6075	6.787	955.0	1.2	Outcome1	-0.1	-11.93	0.0	No		11.8278595696489				ISITrial	Mixed
19.0	1	280.733	0.034	349.791	-1.0	-1.0	17.4825	3.0	955.0	1.0	Certain	-0.3	-2.28	0.0	No	4.0	-1.97914307285768	1.416	282.149		GetAnswer	Mixed
19.0	1	282.17	0.021	351.228	-1.0	-1.0	17.4825	4.0	955.0	1.0	Certain	-0.3	-2.28	0.0	No		-1.97914307285768				ShowChoice	Mixed
19.0	1	286.199	0.029	355.257	-1.0	-1.0	17.4825	1.0	955.0	1.0	Certain	-0.3	-2.28	0.0	No		-1.97914307285768				ShowResult	Mixed
19.0	1	287.219	0.02	356.277	-1.0	-1.0	17.4825	2.0	955.0	1.0	Certain	-0.3	-2.28	0.0	No		-1.97914307285768				ISITrial	Mixed
20.0	1	289.242	0.023	358.3	13.9	0.62	19.22	3.0	955.0	3.6	Outcome1	13.9	1.25	2921.25	Yes	2.0	12.6500566251416	1.335	290.577		GetAnswer	Loss
20.0	1	290.596	0.019	359.654	13.9	0.62	19.22	4.0	955.0	3.6	Outcome1	13.9	1.25	2921.25	Yes		12.6500566251416				ShowChoice	Loss
20.0	1	294.624	0.028	363.682	13.9	0.62	19.22	1.0	955.0	3.6	Outcome1	13.9	1.25	2921.25	Yes		12.6500566251416				ShowResult	Loss
20.0	1	295.644	0.02	364.702	13.9	0.62	19.22	8.0	955.0	3.6	Outcome1	13.9	1.25	2921.25	Yes		12.6500566251416				ISITrial	Loss
20.0	1	306.61	0.021	375.668	13.9	0.62	19.22	1.193	955.0	3.6	Outcome1	13.9	1.25	2921.25	Yes		12.6500566251416			744.0	TrialHappiness	Loss
20.0	1	310.639	4.029	379.697	13.9	0.62	19.22	3.685	955.0	3.6	Outcome1	13.9	1.25	2921.25	Yes		12.6500566251416				ISIRate	Loss
21.0	1	314.35	0.026	383.408	10.3	-0.09	20.5075	3.0	955.0	5.0	Outcome2	-0.18	10.3	0.0	No	2.0	10.4790486976217	1.57	315.92		GetAnswer	Gain
21.0	1	315.938	0.018	384.996	10.3	-0.09	20.5075	4.0	955.0	5.0	Outcome2	-0.18	10.3	0.0	No		10.4790486976217				ShowChoice	Gain
21.0	1	319.967	0.029	389.025	10.3	-0.09	20.5075	1.0	955.0	5.0	Outcome2	-0.18	10.3	0.0	No		10.4790486976217				ShowResult	Gain
21.0	1	320.987	0.02	390.045	10.3	-0.09	20.5075	3.555	955.0	5.0	Outcome2	-0.18	10.3	0.0	No		10.4790486976217				ISITrial	Gain
22.0	1	324.564	0.022	393.622	10.45	5.22	21.8138	3.0	955.0	3.6	Outcome2	11.9	10.45	3219.5	Yes	2.0	-1.4507361268403198	1.145	325.709		GetAnswer	Loss
22.0	1	325.734	0.025	394.792	10.45	5.22	21.8138	4.0	955.0	3.6	Outcome2	11.9	10.45	3219.5	Yes		-1.4507361268403198				ShowChoice	Loss
22.0	1	329.763	0.029	398.821	10.45	5.22	21.8138	1.0	955.0	3.6	Outcome2	11.9	10.45	3219.5	Yes		-1.4507361268403198				ShowResult	Loss
22.0	1	330.783	0.02	399.841	10.45	5.22	21.8138	6.793	955.0	3.6	Outcome2	11.9	10.45	3219.5	Yes		-1.4507361268403198				ISITrial	Loss
22.0	1	340.846	0.023	409.904	10.45	5.22	21.8138	1.863	955.0	3.6	Outcome2	11.9	10.45	3219.5	Yes		-1.4507361268403198			736.0	TrialHappiness	Loss
22.0	1	344.858	4.012	413.916	10.45	5.22	21.8138	4.878	955.0	3.6	Outcome2	11.9	10.45	3219.5	Yes		-1.4507361268403198				ISIRate	Loss
23.0	1	349.756	0.02	418.814	2.8	1.4	22.1638	3.0	955.0	2.0	Outcome1	2.8	4.3	0.0	No	2.0	-1.5031143827859599	0.892	350.648		GetAnswer	Mixed
23.0	1	350.676	0.027	419.734	2.8	1.4	22.1638	4.0	955.0	2.0	Outcome1	2.8	4.3	0.0	No		-1.5031143827859599				ShowChoice	Mixed
23.0	1	354.688	0.012	423.746	2.8	1.4	22.1638	1.0	955.0	2.0	Outcome1	2.8	4.3	0.0	No		-1.5031143827859599				ShowResult	Mixed
23.0	1	355.708	0.02	424.766	2.8	1.4	22.1638	8.0	955.0	2.0	Outcome1	2.8	4.3	0.0	No		-1.5031143827859599				ISITrial	Mixed
24.0	1	363.732	0.024	432.79	-1.0	-1.0	22.0388	3.0	955.0	1.68	Certain	-6.84	4.5	3255.0	Yes	4.0	11.3408833522084	1.897	365.629		GetAnswer	Gain
24.0	1	365.654	0.025	434.712	-1.0	-1.0	22.0388	4.0	955.0	1.68	Certain	-6.84	4.5	3255.0	Yes		11.3408833522084				ShowChoice	Gain
24.0	1	369.683	0.029	438.741	-1.0	-1.0	22.0388	1.0	955.0	1.68	Certain	-6.84	4.5	3255.0	Yes		11.3408833522084				ShowResult	Gain
24.0	1	370.703	0.02	439.761	-1.0	-1.0	22.0388	2.0	955.0	1.68	Certain	-6.84	4.5	3255.0	Yes		11.3408833522084				ISITrial	Gain
24.0	1	376.002	0.022	445.06	-1.0	-1.0	22.0388	1.621	955.0	1.68	Certain	-6.84	4.5	3255.0	Yes		11.3408833522084			724.0	TrialHappiness	Gain
24.0	1	380.031	4.029	449.089	-1.0	-1.0	22.0388	5.02	955.0	1.68	Certain	-6.84	4.5	3255.0	Yes		11.3408833522084				ISIRate	Gain
25.0	1	385.079	0.028	454.137	9.5	-1.14	23.2263	3.0	955.0	2.8	Outcome1	9.5	-2.29	0.0	No	2.0	11.79275198188	0.988	386.067		GetAnswer	Gain
25.0	1	386.082	0.015	455.14	9.5	-1.14	23.2263	4.0	955.0	2.8	Outcome1	9.5	-2.29	0.0	No		11.79275198188				ShowChoice	Gain
25.0	1	390.111	0.029	459.169	9.5	-1.14	23.2263	1.0	955.0	2.8	Outcome1	9.5	-2.29	0.0	No		11.79275198188				ShowResult	Gain
25.0	1	391.13	0.019	460.188	9.5	-1.14	23.2263	3.749	955.0	2.8	Outcome1	9.5	-2.29	0.0	No		11.79275198188				ISITrial	Gain
26.0	1	394.908	0.029	463.966	-0.9	-7.0	23.1138	3.0	955.0	0.52	Outcome2	-12.95	-0.9	0.0	No	2.0	12.054360135900302	2.728	397.636		GetAnswer	Mixed
26.0	1	397.667	0.031	466.725	-0.9	-7.0	23.1138	4.0	955.0	0.52	Outcome2	-12.95	-0.9	0.0	No		12.054360135900302				ShowChoice	Mixed
26.0	1	401.696	0.029	470.754	-0.9	-7.0	23.1138	1.0	955.0	0.52	Outcome2	-12.95	-0.9	0.0	No		12.054360135900302				ShowResult	Mixed
26.0	1	402.715	0.019	471.773	-0.9	-7.0	23.1138	7.834	955.0	0.52	Outcome2	-12.95	-0.9	0.0	No		12.054360135900302				ISITrial	Mixed
27.0	1	410.572	0.023	479.63	-0.61	-0.61	23.0376	3.0	955.0	2.22	Certain	-1.22	11.1	2549.75	Yes	4.0	12.315968289920699	1.68	412.252		GetAnswer	Loss
27.0	1	412.277	0.025	481.335	-0.61	-0.61	23.0376	4.0	955.0	2.22	Certain	-1.22	11.1	2549.75	Yes		12.315968289920699				ShowChoice	Loss
27.0	1	416.306	0.029	485.364	-0.61	-0.61	23.0376	1.0	955.0	2.22	Certain	-1.22	11.1	2549.75	Yes		12.315968289920699				ShowResult	Loss
27.0	1	417.326	0.02	486.384	-0.61	-0.61	23.0376	4.225	955.0	2.22	Certain	-1.22	11.1	2549.75	Yes		12.315968289920699				ISITrial	Loss
27.0	1	424.146	0.024	493.204	-0.61	-0.61	23.0376	0.992	955.0	2.22	Certain	-1.22	11.1	2549.75	Yes	2{-2}	12.315968289920699	0.992	425.138	728.0	TrialHappiness	Loss
27.0	1	428.175	4.029	497.233	-0.61	-0.61	23.0376	2.199	955.0	2.22	Certain	-1.22	11.1	2549.75	Yes		12.315968289920699				ISIRate	Loss
	1	430.398	0.024	499.456				-0.001								{SPACE}		23.51	453.908		Rest	
	1	453.936	0.028	522.994				4.0													BlockHappyPreview	
	1	457.948	0.012	527.006				1.71												728.0	BlockStartHappiness	
	1	483.508	0.016	552.566				-0.001								5.0		12.49	495.998		ScanWait	
	2	0.029	0.029	565.086				10.0													GetReady	
28.0	2	10.06	0.031	575.117	-4.0	-4.0	22.5376	3.0	70.0	0.4	Certain	0.9	-10.29	0.0	No	4.0	-11.190476190476199	1.395	11.455		GetAnswer	Mixed
28.0	2	11.481	0.026	576.538	-4.0	-4.0	22.5376	4.0	70.0	0.4	Certain	0.9	-10.29	0.0	No		-11.190476190476199				ShowChoice	Mixed
28.0	2	15.509	0.028	580.566	-4.0	-4.0	22.5376	1.0	70.0	0.4	Certain	0.9	-10.29	0.0	No		-11.190476190476199				ShowResult	Mixed
28.0	2	16.529	0.02	581.586	-4.0	-4.0	22.5376	3.575	70.0	0.4	Certain	0.9	-10.29	0.0	No		-11.190476190476199				ISITrial	Mixed
29.0	2	20.123	0.019	585.18	-2.0	-2.0	22.2876	3.0	70.0	1.5	Certain	-7.84	4.1	3529.0	Yes	4.0	-11.9365079365079	1.875	21.998		GetAnswer	Mixed
29.0	2	22.029	0.031	587.086	-2.0	-2.0	22.2876	4.0	70.0	1.5	Certain	-7.84	4.1	3529.0	Yes		-11.9365079365079				ShowChoice	Mixed
29.0	2	26.058	0.029	591.115	-2.0	-2.0	22.2876	1.0	70.0	1.5	Certain	-7.84	4.1	3529.0	Yes		-11.9365079365079				ShowResult	Mixed
29.0	2	27.077	0.019	592.134	-2.0	-2.0	22.2876	3.955	70.0	1.5	Certain	-7.84	4.1	3529.0	Yes		-11.9365079365079				ISITrial	Mixed
29.0	2	34.617	0.032	599.674	-2.0	-2.0	22.2876	0.625	70.0	1.5	Certain	-7.84	4.1	3529.0	Yes		-11.9365079365079			496.0	TrialHappiness	Mixed
29.0	2	38.645	4.028	603.702	-2.0	-2.0	22.2876	6.116	70.0	1.5	Certain	-7.84	4.1	3529.0	Yes		-11.9365079365079				ISIRate	Mixed
30.0	2	44.78	0.019	609.837	-0.18	-1.0	22.2651	3.0	70.0	0.66	Outcome1	-0.18	-2.04	0.0	No	2.0	1.85506424792139	2.448	47.228		GetAnswer	Mixed
30.0	2	47.254	0.026	612.311	-0.18	-1.0	22.2651	4.0	70.0	0.66	Outcome1	-0.18	-2.04	0.0	No		1.85506424792139				ShowChoice	Mixed
30.0	2	51.283	0.029	616.34	-0.18	-1.0	22.2651	1.0	70.0	0.66	Outcome1	-0.18	-2.04	0.0	No		1.85506424792139				ShowResult	Mixed
30.0	2	52.303	0.02	617.36	-0.18	-1.0	22.2651	4.453	70.0	0.66	Outcome1	-0.18	-2.04	0.0	No		1.85506424792139				ISITrial	Mixed
31.0	2	56.783	0.027	621.84	1.0	1.0	22.3901	3.0	70.0	2.8	Certain	-3.72	5.5	2503.25	Yes	4.0	-9.21995464852608	1.137	57.92		GetAnswer	Gain
31.0	2	57.937	0.017	622.994	1.0	1.0	22.3901	4.0	70.0	2.8	Certain	-3.72	5.5	2503.25	Yes		-9.21995464852608				ShowChoice	Gain
31.0	2	61.965	0.028	627.022	1.0	1.0	22.3901	1.0	70.0	2.8	Certain	-3.72	5.5	2503.25	Yes		-9.21995464852608				ShowResult	Gain
31.0	2	62.985	0.02	628.042	1.0	1.0	22.3901	4.786	70.0	2.8	Certain	-3.72	5.5	2503.25	Yes		-9.21995464852608				ISITrial	Gain
31.0	2	70.324	0.022	635.381	1.0	1.0	22.3901	1.01	70.0	2.8	Certain	-3.72	5.5	2503.25	Yes		-9.21995464852608			492.0	TrialHappiness	Gain
31.0	2	74.352	4.028	639.409	1.0	1.0	22.3901	2.013	70.0	2.8	Certain	-3.72	5.5	2503.25	Yes		-9.21995464852608				ISIRate	Gain
32.0	2	76.392	0.027	641.449	-3.53	1.0	21.9489	3.0	70.0	4.2	Outcome2	6.1	-3.53	0.0	No	2.0	-9.634920634920631	1.213	77.605		GetAnswer	Gain
32.0	2	77.629	0.024	642.686	-3.53	1.0	21.9489	4.0	70.0	4.2	Outcome2	6.1	-3.53	0.0	No		-9.634920634920631				ShowChoice	Gain
32.0	2	81.658	0.029	646.715	-3.53	1.0	21.9489	1.0	70.0	4.2	Outcome2	6.1	-3.53	0.0	No		-9.634920634920631				ShowResult	Gain
32.0	2	82.677	0.019	647.734	-3.53	1.0	21.9489	2.0	70.0	4.2	Outcome2	6.1	-3.53	0.0	No		-9.634920634920631				ISITrial	Gain
33.0	2	84.7	0.023	649.757	0.0	0.0	21.9489	3.0	70.0	0.66	Certain	-1.64	0.32	0.0	No	4.0	1.95918367346939	1.467	86.167		GetAnswer	Mixed
33.0	2	86.188	0.021	651.245	0.0	0.0	21.9489	4.0	70.0	0.66	Certain	-1.64	0.32	0.0	No		1.95918367346939				ShowChoice	Mixed
33.0	2	90.217	0.029	655.274	0.0	0.0	21.9489	1.0	70.0	0.66	Certain	-1.64	0.32	0.0	No		1.95918367346939				ShowResult	Mixed
33.0	2	91.236	0.019	656.293	0.0	0.0	21.9489	5.099	70.0	0.66	Certain	-1.64	0.32	0.0	No		1.95918367346939				ISITrial	Mixed
34.0	2	96.368	0.033	661.425	-5.69	0.0	21.2376	3.0	70.0	2.0	Outcome2	4.9	-5.69	3231.5	Yes	2.0	-10.591836734693901	1.309	97.677		GetAnswer	Gain
34.0	2	97.706	0.029	662.763	-5.69	0.0	21.2376	4.0	70.0	2.0	Outcome2	4.9	-5.69	3231.5	Yes		-10.591836734693901				ShowChoice	Gain
34.0	2	101.735	0.029	666.792	-5.69	0.0	21.2376	1.0	70.0	2.0	Outcome2	4.9	-5.69	3231.5	Yes		-10.591836734693901				ShowResult	Gain
34.0	2	102.754	0.019	667.811	-5.69	0.0	21.2376	4.784	70.0	2.0	Outcome2	4.9	-5.69	3231.5	Yes		-10.591836734693901				ISITrial	Gain
34.0	2	110.812	0.028	675.869	-5.69	0.0	21.2376	0.841	70.0	2.0	Outcome2	4.9	-5.69	3231.5	Yes		-10.591836734693901			376.0	TrialHappiness	Gain
34.0	2	114.841	4.029	679.898	-5.69	0.0	21.2376	4.926	70.0	2.0	Outcome2	4.9	-5.69	3231.5	Yes		-10.591836734693901				ISIRate	Gain
35.0	2	119.789	0.022	684.846	-0.8	-0.4	21.1376	3.0	70.0	5.0	Outcome1	-0.8	8.3	0.0	No	2.0	-9.09750566893424	1.425	121.214		GetAnswer	Gain
35.0	2	121.243	0.029	686.3	-0.8	-0.4	21.1376	4.0	70.0	5.0	Outcome1	-0.8	8.3	0.0	No		-9.09750566893424				ShowChoice	Gain
35.0	2	125.255	0.012	690.312	-0.8	-0.4	21.1376	1.0	70.0	5.0	Outcome1	-0.8	8.3	0.0	No		-9.09750566893424				ShowResult	Gain
35.0	2	126.275	0.02	691.332	-0.8	-0.4	21.1376	2.098	70.0	5.0	Outcome1	-0.8	8.3	0.0	No		-9.09750566893424				ISITrial	Gain
36.0	2	128.398	0.025	693.455	-8.74	-4.0	20.0451	3.0	70.0	0.3	Outcome2	0.7	-8.74	3335.75	Yes	2.0	-9.44444444444444	1.748	130.146		GetAnswer	Mixed
36.0	2	130.17	0.024	695.227	-8.74	-4.0	20.0451	4.0	70.0	0.3	Outcome2	0.7	-8.74	3335.75	Yes		-9.44444444444444				ShowChoice	Mixed
36.0	2	134.199	0.029	699.256	-8.74	-4.0	20.0451	1.0	70.0	0.3	Outcome2	0.7	-8.74	3335.75	Yes		-9.44444444444444				ShowResult	Mixed
36.0	2	135.218	0.019	700.275	-8.74	-4.0	20.0451	5.156	70.0	0.3	Outcome2	0.7	-8.74	3335.75	Yes		-9.44444444444444				ISITrial	Mixed
36.0	2	143.761	0.024	708.818	-8.74	-4.0	20.0451	0.958	70.0	0.3	Outcome2	0.7	-8.74	3335.75	Yes	4{-4}	-9.44444444444444	0.958	144.719	304.0	TrialHappiness	Mixed
36.0	2	147.789	4.028	712.846	-8.74	-4.0	20.0451	5.343	70.0	0.3	Outcome2	0.7	-8.74	3335.75	Yes		-9.44444444444444				ISIRate	Mixed
37.0	2	153.156	0.024	718.213	1.68	1.0	20.2551	3.0	70.0	1.82	Outcome2	0.35	1.68	0.0	No	2.0	1.33295540438398	1.089	154.245		GetAnswer	Gain
37.0	2	154.259	0.013	719.316	1.68	1.0	20.2551	4.0	70.0	1.82	Outcome2	0.35	1.68	0.0	No		1.33295540438398				ShowChoice	Gain
37.0	2	158.288	0.029	723.345	1.68	1.0	20.2551	1.0	70.0	1.82	Outcome2	0.35	1.68	0.0	No		1.33295540438398				ShowResult	Gain
37.0	2	159.307	0.019	724.364	1.68	1.0	20.2551	3.598	70.0	1.82	Outcome2	0.35	1.68	0.0	No		1.33295540438398				ISITrial	Gain
38.0	2	162.935	0.03	727.992	-0.73	-0.36	20.1639	3.0	70.0	4.2	Outcome2	8.1	-0.73	0.0	No	2.0	-8.83219954648526	1.327	164.262		GetAnswer	Gain
38.0	2	164.289	0.027	729.346	-0.73	-0.36	20.1639	4.0	70.0	4.2	Outcome2	8.1	-0.73	0.0	No		-8.83219954648526				ShowChoice	Gain
38.0	2	168.318	0.029	733.375	-0.73	-0.36	20.1639	1.0	70.0	4.2	Outcome2	8.1	-0.73	0.0	No		-8.83219954648526				ShowResult	Gain
38.0	2	169.337	0.019	734.394	-0.73	-0.36	20.1639	4.787	70.0	4.2	Outcome2	8.1	-0.73	0.0	No		-8.83219954648526				ISITrial	Gain
39.0	2	174.152	0.028	739.209	3.6	1.8	20.6139	3.0	70.0	1.82	Outcome2	12.7	3.6	2864.25	Yes	2.0	-9.09750566893424	0.899	175.051		GetAnswer	Loss
39.0	2	175.071	0.02	740.128	3.6	1.8	20.6139	4.0	70.0	1.82	Outcome2	12.7	3.6	2864.25	Yes		-9.09750566893424				ShowChoice	Loss
39.0	2	179.1	0.029	744.157	3.6	1.8	20.6139	1.0	70.0	1.82	Outcome2	12.7	3.6	2864.25	Yes		-9.09750566893424				ShowResult	Loss
39.0	2	180.12	0.02	745.177	3.6	1.8	20.6139	2.348	70.0	1.82	Outcome2	12.7	3.6	2864.25	Yes		-9.09750566893424				ISITrial	Loss
39.0	2	185.386	0.028	750.443	3.6	1.8	20.6139	3.785	70.0	1.82	Outcome2	12.7	3.6	2864.25	Yes		-9.09750566893424			360.0	TrialHappiness	Loss
39.0	2	189.414	4.028	754.471	3.6	1.8	20.6139	3.457	70.0	1.82	Outcome2	12.7	3.6	2864.25	Yes		-9.09750566893424				ISIRate	Loss
40.0	2	192.891	0.02	757.948	-3.22	2.0	20.2114	3.0	70.0	2.22	Outcome2	7.1	-3.22	0.0	No	2.0	-10.315192743764198	1.099	193.99		GetAnswer	Gain
40.0	2	194.011	0.021	759.068	-3.22	2.0	20.2114	4.0	70.0	2.22	Outcome2	7.1	-3.22	0.0	No		-10.315192743764198				ShowChoice	Gain
40.0	2	198.023	0.012	763.08	-3.22	2.0	20.2114	1.0	70.0	2.22	Outcome2	7.1	-3.22	0.0	No		-10.315192743764198				ShowResult	Gain
40.0	2	199.043	0.02	764.1	-3.22	2.0	20.2114	3.158	70.0	2.22	Outcome2	7.1	-3.22	0.0	No		-10.315192743764198				ISITrial	Gain
41.0	2	202.236	0.035	767.293	2.17	1.0	20.4826	3.0	70.0	1.82	Outcome2	0.52	2.17	4000.0	Yes	2.0	1.65419501133787	1.122	203.358		GetAnswer	Gain
41.0	2	203.373	0.015	768.43	2.17	1.0	20.4826	4.0	70.0	1.82	Outcome2	0.52	2.17	4000.0	Yes		1.65419501133787				ShowChoice	Gain
41.0	2	207.402	0.029	772.459	2.17	1.0	20.4826	1.0	70.0	1.82	Outcome2	0.52	2.17	4000.0	Yes		1.65419501133787				ShowResult	Gain
41.0	2	208.421	0.019	773.478	2.17	1.0	20.4826	4.506	70.0	1.82	Outcome2	0.52	2.17	4000.0	Yes		1.65419501133787				ISITrial	Gain
41.0	2	216.98	0.028	782.037	2.17	1.0	20.4826	1.695	70.0	1.82	Outcome2	0.52	2.17	4000.0	Yes		1.65419501133787			208.0	TrialHappiness	Gain
41.0	2	221.009	4.029	786.066	2.17	1.0	20.4826	8.0	70.0	1.82	Outcome2	0.52	2.17	4000.0	Yes		1.65419501133787				ISIRate	Gain
42.0	2	229.033	0.024	794.09	-5.0	-5.0	19.8576	3.0	70.0	0.3	Certain	-1.3	-9.69	0.0	No	4.0	-8.38775510204082	1.574	230.607		GetAnswer	Mixed
42.0	2	230.621	0.014	795.678	-5.0	-5.0	19.8576	4.0	70.0	0.3	Certain	-1.3	-9.69	0.0	No		-8.38775510204082				ShowChoice	Mixed
42.0	2	234.65	0.029	799.707	-5.0	-5.0	19.8576	1.0	70.0	0.3	Certain	-1.3	-9.69	0.0	No		-8.38775510204082				ShowResult	Mixed
42.0	2	235.67	0.02	800.727	-5.0	-5.0	19.8576	6.248	70.0	0.3	Certain	-1.3	-9.69	0.0	No		-8.38775510204082				ISITrial	Mixed
43.0	2	241.939	0.021	806.996	-3.84	0.0	19.3776	3.0	70.0	1.82	Outcome1	-3.84	4.7	2775.75	Yes	2.0	-8.54421768707483	1.519	243.458		GetAnswer	Gain
43.0	2	243.476	0.018	808.533	-3.84	0.0	19.3776	4.0	70.0	1.82	Outcome1	-3.84	4.7	2775.75	Yes		-8.54421768707483				ShowChoice	Gain
43.0	2	247.488	0.012	812.545	-3.84	0.0	19.3776	1.0	70.0	1.82	Outcome1	-3.84	4.7	2775.75	Yes		-8.54421768707483				ShowResult	Gain
43.0	2	248.508	0.02	813.565	-3.84	0.0	19.3776	4.596	70.0	1.82	Outcome1	-3.84	4.7	2775.75	Yes		-8.54421768707483				ISITrial	Gain
43.0	2	255.93	0.032	820.987	-3.84	0.0	19.3776	1.31	70.0	1.82	Outcome1	-3.84	4.7	2775.75	Yes		-8.54421768707483			136.0	TrialHappiness	Gain
43.0	2	259.959	4.029	825.016	-3.84	0.0	19.3776	3.103	70.0	1.82	Outcome1	-3.84	4.7	2775.75	Yes		-8.54421768707483				ISIRate	Gain
44.0	2	263.085	0.023	828.142	5.62	2.81	20.0801	3.0	70.0	2.22	Outcome2	13.1	5.62	0.0	No	2.0	-7.47619047619048	0.943	264.028		GetAnswer	Loss
44.0	2	264.055	0.027	829.112	5.62	2.81	20.0801	4.0	70.0	2.22	Outcome2	13.1	5.62	0.0	No		-7.47619047619048				ShowChoice	Loss
44.0	2	268.084	0.029	833.141	5.62	2.81	20.0801	1.0	70.0	2.22	Outcome2	13.1	5.62	0.0	No		-7.47619047619048				ShowResult	Loss
44.0	2	269.103	0.019	834.16	5.62	2.81	20.0801	2.42	70.0	2.22	Outcome2	13.1	5.62	0.0	No		-7.47619047619048				ISITrial	Loss
45.0	2	271.544	0.021	836.601	1.27	1.0	20.2389	3.0	70.0	2.22	Outcome2	0.47	1.27	0.0	No	2.0	0.803854875283447	1.191	272.735		GetAnswer	Gain
45.0	2	272.764	0.029	837.821	1.27	1.0	20.2389	4.0	70.0	2.22	Outcome2	0.47	1.27	0.0	No		0.803854875283447				ShowChoice	Gain
45.0	2	276.793	0.029	841.85	1.27	1.0	20.2389	1.0	70.0	2.22	Outcome2	0.47	1.27	0.0	No		0.803854875283447				ShowResult	Gain
45.0	2	277.813	0.02	842.87	1.27	1.0	20.2389	3.144	70.0	2.22	Outcome2	0.47	1.27	0.0	No		0.803854875283447				ISITrial	Gain
46.0	2	280.989	0.032	846.046	6.07	3.04	20.9977	3.0	70.0	3.16	Outcome1	6.07	13.7	3841.25	Yes	2.0	-7.62585034013605	0.79	281.779		GetAnswer	Loss
46.0	2	281.808	0.029	846.865	6.07	3.04	20.9977	4.0	70.0	3.16	Outcome1	6.07	13.7	3841.25	Yes		-7.62585034013605				ShowChoice	Loss
46.0	2	285.82	0.012	850.877	6.07	3.04	20.9977	1.0	70.0	3.16	Outcome1	6.07	13.7	3841.25	Yes		-7.62585034013605				ShowResult	Loss
46.0	2	286.84	0.02	851.897	6.07	3.04	20.9977	2.246	70.0	3.16	Outcome1	6.07	13.7	3841.25	Yes		-7.62585034013605				ISITrial	Loss
46.0	2	292.975	0.021	858.032	6.07	3.04	20.9977	1.026	70.0	3.16	Outcome1	6.07	13.7	3841.25	Yes		-7.62585034013605			384.0	TrialHappiness	Loss
46.0	2	297.004	4.029	862.061	6.07	3.04	20.9977	7.365	70.0	3.16	Outcome1	6.07	13.7	3841.25	Yes		-7.62585034013605				ISIRate	Loss
47.0	2	304.393	0.024	869.45	-11.62	-5.0	19.5452	3.0	70.0	2.0	Outcome1	-11.62	0.3	0.0	No	2.0	-11.918367346938801	1.93	306.323		GetAnswer	Mixed
47.0	2	306.348	0.025	871.405	-11.62	-5.0	19.5452	4.0	70.0	2.0	Outcome1	-11.62	0.3	0.0	No		-11.918367346938801				ShowChoice	Mixed
47.0	2	310.36	0.012	875.417	-11.62	-5.0	19.5452	1.0	70.0	2.0	Outcome1	-11.62	0.3	0.0	No		-11.918367346938801				ShowResult	Mixed
47.0	2	311.38	0.02	876.437	-11.62	-5.0	19.5452	2.0	70.0	2.0	Outcome1	-11.62	0.3	0.0	No		-11.918367346938801				ISITrial	Mixed
48.0	2	313.403	0.023	878.46	1.0	1.0	19.6702	3.0	70.0	2.48	Certain	-4.97	7.3	2831.75	Yes	4.0	-12.2743764172336	1.555	314.958		GetAnswer	Gain
48.0	2	314.974	0.016	880.031	1.0	1.0	19.6702	4.0	70.0	2.48	Certain	-4.97	7.3	2831.75	Yes		-12.2743764172336				ShowChoice	Gain
48.0	2	319.003	0.029	884.06	1.0	1.0	19.6702	1.0	70.0	2.48	Certain	-4.97	7.3	2831.75	Yes		-12.2743764172336				ShowResult	Gain
48.0	2	320.023	0.02	885.08	1.0	1.0	19.6702	3.692	70.0	2.48	Certain	-4.97	7.3	2831.75	Yes		-12.2743764172336				ISITrial	Gain
48.0	2	326.592	0.026	891.649	1.0	1.0	19.6702	0.993	70.0	2.48	Certain	-4.97	7.3	2831.75	Yes		-12.2743764172336			296.0	TrialHappiness	Gain
48.0	2	330.604	4.012	895.661	1.0	1.0	19.6702	3.327	70.0	2.48	Certain	-4.97	7.3	2831.75	Yes		-12.2743764172336				ISIRate	Gain
49.0	2	333.965	0.034	899.022	-1.83	-0.92	19.4414	3.0	70.0	2.48	Outcome1	-1.83	9.3	0.0	No	2.0	-11.133786848072601	1.179	335.144		GetAnswer	Gain
49.0	2	335.168	0.024	900.225	-1.83	-0.92	19.4414	4.0	70.0	2.48	Outcome1	-1.83	9.3	0.0	No		-11.133786848072601				ShowChoice	Gain
49.0	2	339.197	0.029	904.254	-1.83	-0.92	19.4414	1.0	70.0	2.48	Outcome1	-1.83	9.3	0.0	No		-11.133786848072601				ShowResult	Gain
49.0	2	340.217	0.02	905.274	-1.83	-0.92	19.4414	8.0	70.0	2.48	Outcome1	-1.83	9.3	0.0	No		-11.133786848072601				ISITrial	Gain
50.0	2	348.241	0.024	913.298	-11.29	-5.0	18.0301	3.0	70.0	1.5	Outcome2	0.1	-11.29	3547.25	Yes	2.0	-11.390022675736999	1.604	349.845		GetAnswer	Mixed
50.0	2	349.862	0.017	914.919	-11.29	-5.0	18.0301	4.0	70.0	1.5	Outcome2	0.1	-11.29	3547.25	Yes		-11.390022675736999				ShowChoice	Mixed
50.0	2	353.891	0.029	918.948	-11.29	-5.0	18.0301	1.0	70.0	1.5	Outcome2	0.1	-11.29	3547.25	Yes		-11.390022675736999				ShowResult	Mixed
50.0	2	354.911	0.02	919.968	-11.29	-5.0	18.0301	7.537	70.0	1.5	Outcome2	0.1	-11.29	3547.25	Yes		-11.390022675736999				ISITrial	Mixed
50.0	2	366.044	0.03	931.101	-11.29	-5.0	18.0301	2.65	70.0	1.5	Outcome2	0.1	-11.29	3547.25	Yes		-11.390022675736999			152.0	TrialHappiness	Mixed
50.0	2	370.073	4.029	935.13	-11.29	-5.0	18.0301	6.189	70.0	1.5	Outcome2	0.1	-11.29	3547.25	Yes		-11.390022675736999				ISIRate	Mixed
51.0	2	376.292	0.03	941.349	3.3	1.65	18.4426	3.0	70.0	1.68	Outcome2	12.5	3.3	0.0	No	2.0	-9.19727891156463	1.111	377.403		GetAnswer	Loss
51.0	2	377.428	0.025	942.485	3.3	1.65	18.4426	4.0	70.0	1.68	Outcome2	12.5	3.3	0.0	No		-9.19727891156463				ShowChoice	Loss
51.0	2	381.44	0.012	946.497	3.3	1.65	18.4426	1.0	70.0	1.68	Outcome2	12.5	3.3	0.0	No		-9.19727891156463				ShowResult	Loss
51.0	2	382.46	0.02	947.517	3.3	1.65	18.4426	5.508	70.0	1.68	Outcome2	12.5	3.3	0.0	No		-9.19727891156463				ISITrial	Loss
52.0	2	387.993	0.025	953.05	-2.0	-2.0	18.1926	3.0	70.0	0.3	Certain	-6.59	2.7	0.0	No	4.0	-9.29024943310658	2.055	390.048		GetAnswer	Mixed
52.0	2	390.066	0.018	955.123	-2.0	-2.0	18.1926	4.0	70.0	0.3	Certain	-6.59	2.7	0.0	No		-9.29024943310658				ShowChoice	Mixed
52.0	2	394.095	0.029	959.152	-2.0	-2.0	18.1926	1.0	70.0	0.3	Certain	-6.59	2.7	0.0	No		-9.29024943310658				ShowResult	Mixed
52.0	2	395.115	0.02	960.172	-2.0	-2.0	18.1926	5.913	70.0	0.3	Certain	-6.59	2.7	0.0	No		-9.29024943310658				ISITrial	Mixed
53.0	2	401.049	0.021	966.106	1.92	0.96	18.4326	3.0	70.0	2.48	Outcome1	1.92	11.3	2996.75	Yes	2.0	-9.38321995464853	0.941	401.99		GetAnswer	Loss
53.0	2	402.019	0.029	967.076	1.92	0.96	18.4326	4.0	70.0	2.48	Outcome1	1.92	11.3	2996.75	Yes		-9.38321995464853				ShowChoice	Loss
53.0	2	406.047	0.028	971.104	1.92	0.96	18.4326	1.0	70.0	2.48	Outcome1	1.92	11.3	2996.75	Yes		-9.38321995464853				ShowResult	Loss
53.0	2	407.067	0.02	972.124	1.92	0.96	18.4326	3.66	70.0	2.48	Outcome1	1.92	11.3	2996.75	Yes		-9.38321995464853				ISITrial	Loss
53.0	2	413.771	0.029	978.828	1.92	0.96	18.4326	1.092	70.0	2.48	Outcome1	1.92	11.3	2996.75	Yes		-9.38321995464853			248.0	TrialHappiness	Loss
53.0	2	417.799	4.028	982.856	1.92	0.96	18.4326	3.987	70.0	2.48	Outcome1	1.92	11.3	2996.75	Yes		-9.38321995464853				ISIRate	Loss
54.0	2	421.811	0.025	986.868	-4.61	1.0	17.8564	3.0	70.0	1.68	Outcome2	6.5	-4.61	0.0	No	2.0	-11.108843537415	0.911	422.722		GetAnswer	Gain
54.0	2	422.748	0.026	987.805	-4.61	1.0	17.8564	4.0	70.0	1.68	Outcome2	6.5	-4.61	0.0	No		-11.108843537415				ShowChoice	Gain
54.0	2	426.776	0.028	991.833	-4.61	1.0	17.8564	1.0	70.0	1.68	Outcome2	6.5	-4.61	0.0	No		-11.108843537415				ShowResult	Gain
54.0	2	427.796	0.02	992.853	-4.61	1.0	17.8564	8.0	70.0	1.68	Outcome2	6.5	-4.61	0.0	No		-11.108843537415				ISITrial	Gain
	2	435.82	0.024	1000.877				-0.001								{SPACE}		54.386	490.206		Rest	
	2	490.233	0.027	1055.29				4.0													BlockHappyPreview	
	2	494.245	0.012	1059.302				2.231												280.0	BlockStartHappiness	
	2	511.196	0.014	1076.253				-0.001								5.0		5.15	516.346		ScanWait	
	3	0.016	0.016	1081.419				10.0													GetReady	
55.0	3	10.046	0.03	1091.449	10.5	-0.48	19.1689	3.0	955.0	1.68	Outcome2	-0.97	10.5	2533.25	Yes	2.0	11.4665911664779	1.295	11.341		GetAnswer	Loss
55.0	3	11.366	0.025	1092.769	10.5	-0.48	19.1689	4.0	955.0	1.68	Outcome2	-0.97	10.5	2533.25	Yes		11.4665911664779				ShowChoice	Loss
55.0	3	15.395	0.029	1096.798	10.5	-0.48	19.1689	1.0	955.0	1.68	Outcome2	-0.97	10.5	2533.25	Yes		11.4665911664779				ShowResult	Loss
55.0	3	16.415	0.02	1097.818	10.5	-0.48	19.1689	7.709	955.0	1.68	Outcome2	-0.97	10.5	2533.25	Yes		11.4665911664779				ISITrial	Loss
55.0	3	26.696	0.025	1108.099	10.5	-0.48	19.1689	0.0	955.0	1.68	Outcome2	-0.97	10.5	2533.25	Yes		11.4665911664779			512.0	TrialHappiness	Loss
55.0	3	30.725	4.029	1112.128	10.5	-0.48	19.1689	2.133	955.0	1.68	Outcome2	-0.97	10.5	2533.25	Yes		11.4665911664779				ISIRate	Loss
56.0	3	32.881	0.023	1114.284	5.84	2.92	19.8989	3.0	955.0	3.16	Outcome1	5.84	7.7	0.0	No	2.0	-1.8614571536428801	1.004	33.885		GetAnswer	Gain
56.0	3	33.901	0.016	1115.304	5.84	2.92	19.8989	4.0	955.0	3.16	Outcome1	5.84	7.7	0.0	No		-1.8614571536428801				ShowChoice	Gain
56.0	3	37.929	0.028	1119.332	5.84	2.92	19.8989	1.0	955.0	3.16	Outcome1	5.84	7.7	0.0	No		-1.8614571536428801				ShowResult	Gain
56.0	3	38.949	0.02	1120.352	5.84	2.92	19.8989	4.697	955.0	3.16	Outcome1	5.84	7.7	0.0	No		-1.8614571536428801				ISITrial	Gain
57.0	3	43.68	0.034	1125.083	2.1	-2.0	20.1614	3.0	955.0	1.5	Outcome2	-6.69	2.1	0.0	No	2.0	8.7916194790487	1.535	45.215		GetAnswer	Mixed
57.0	3	45.235	0.02	1126.638	2.1	-2.0	20.1614	4.0	955.0	1.5	Outcome2	-6.69	2.1	0.0	No		8.7916194790487				ShowChoice	Mixed
57.0	3	49.263	0.028	1130.666	2.1	-2.0	20.1614	1.0	955.0	1.5	Outcome2	-6.69	2.1	0.0	No		8.7916194790487				ShowResult	Mixed
57.0	3	50.283	0.02	1131.686	2.1	-2.0	20.1614	4.291	955.0	1.5	Outcome2	-6.69	2.1	0.0	No		8.7916194790487				ISITrial	Mixed
58.0	3	54.596	0.022	1135.999	7.5	-0.9	21.0989	3.0	955.0	2.8	Outcome1	7.5	-1.79	3045.75	Yes	2.0	9.29331823329558	1.043	55.639		GetAnswer	Gain
58.0	3	55.666	0.027	1137.069	7.5	-0.9	21.0989	4.0	955.0	2.8	Outcome1	7.5	-1.79	3045.75	Yes		9.29331823329558				ShowChoice	Gain
58.0	3	59.678	0.012	1141.081	7.5	-0.9	21.0989	1.0	955.0	2.8	Outcome1	7.5	-1.79	3045.75	Yes		9.29331823329558				ShowResult	Gain
58.0	3	60.698	0.02	1142.101	7.5	-0.9	21.0989	2.037	955.0	2.8	Outcome1	7.5	-1.79	3045.75	Yes		9.29331823329558				ISITrial	Gain
58.0	3	65.83	0.03	1147.233	7.5	-0.9	21.0989	2.247	955.0	2.8	Outcome1	7.5	-1.79	3045.75	Yes		9.29331823329558			544.0	TrialHappiness	Gain
58.0	3	69.842	4.012	1151.245	7.5	-0.9	21.0989	4.183	955.0	2.8	Outcome1	7.5	-1.79	3045.75	Yes		9.29331823329558				ISIRate	Gain
59.0	3	74.054	0.029	1155.457	2.3	-2.0	21.3864	3.0	955.0	2.0	Outcome1	2.3	-6.95	0.0	No	2.0	9.25141562853907	1.028	75.082		GetAnswer	Mixed
59.0	3	75.108	0.026	1156.511	2.3	-2.0	21.3864	4.0	955.0	2.0	Outcome1	2.3	-6.95	0.0	No		9.25141562853907				ShowChoice	Mixed
59.0	3	79.12	0.012	1160.523	2.3	-2.0	21.3864	1.0	955.0	2.0	Outcome1	2.3	-6.95	0.0	No		9.25141562853907				ShowResult	Mixed
59.0	3	80.139	0.019	1161.542	2.3	-2.0	21.3864	5.064	955.0	2.0	Outcome1	2.3	-6.95	0.0	No		9.25141562853907				ISITrial	Mixed
60.0	3	85.221	0.018	1166.624	3.5	-1.0	21.8239	3.0	955.0	0.82	Outcome1	3.5	-6.22	3562.5	Yes	2.0	9.71687429218573	1.33	86.551		GetAnswer	Mixed
60.0	3	86.575	0.024	1167.978	3.5	-1.0	21.8239	4.0	955.0	0.82	Outcome1	3.5	-6.22	3562.5	Yes		9.71687429218573				ShowChoice	Mixed
60.0	3	90.587	0.012	1171.99	3.5	-1.0	21.8239	1.0	955.0	0.82	Outcome1	3.5	-6.22	3562.5	Yes		9.71687429218573				ShowResult	Mixed
60.0	3	91.607	0.02	1173.01	3.5	-1.0	21.8239	8.0	955.0	0.82	Outcome1	3.5	-6.22	3562.5	Yes		9.71687429218573				ISITrial	Mixed
60.0	3	103.209	0.016	1184.612	3.5	-1.0	21.8239	1.628	955.0	0.82	Outcome1	3.5	-6.22	3562.5	Yes		9.71687429218573			592.0	TrialHappiness	Mixed
60.0	3	107.221	4.012	1188.624	3.5	-1.0	21.8239	6.25	955.0	0.82	Outcome1	3.5	-6.22	3562.5	Yes		9.71687429218573				ISIRate	Mixed
61.0	3	113.489	0.018	1194.892	5.9	1.0	22.5614	3.0	955.0	3.6	Outcome2	-3.47	5.9	0.0	No	2.0	9.3669309173273	1.598	115.087		GetAnswer	Gain
61.0	3	115.111	0.024	1196.514	5.9	1.0	22.5614	4.0	955.0	3.6	Outcome2	-3.47	5.9	0.0	No		9.3669309173273				ShowChoice	Gain
61.0	3	119.123	0.012	1200.526	5.9	1.0	22.5614	1.0	955.0	3.6	Outcome2	-3.47	5.9	0.0	No		9.3669309173273				ShowResult	Gain
61.0	3	120.143	0.02	1201.546	5.9	1.0	22.5614	4.586	955.0	3.6	Outcome2	-3.47	5.9	0.0	No		9.3669309173273				ISITrial	Gain
62.0	3	124.757	0.028	1206.16	0.0	0.0	22.5614	3.0	955.0	2.48	Certain	5.3	-4.48	3748.75	Yes	4.0	9.77802944507361	1.71	126.467		GetAnswer	Gain
62.0	3	126.478	0.011	1207.881	0.0	0.0	22.5614	4.0	955.0	2.48	Certain	5.3	-4.48	3748.75	Yes		9.77802944507361				ShowChoice	Gain
62.0	3	130.49	0.012	1211.893	0.0	0.0	22.5614	1.0	955.0	2.48	Certain	5.3	-4.48	3748.75	Yes		9.77802944507361				ShowResult	Gain
62.0	3	131.51	0.02	1212.913	0.0	0.0	22.5614	5.212	955.0	2.48	Certain	5.3	-4.48	3748.75	Yes		9.77802944507361				ISITrial	Gain
62.0	3	140.521	0.029	1221.924	0.0	0.0	22.5614	1.27	955.0	2.48	Certain	5.3	-4.48	3748.75	Yes		9.77802944507361			544.0	TrialHappiness	Gain
62.0	3	144.533	4.012	1225.936	0.0	0.0	22.5614	6.995	955.0	2.48	Certain	5.3	-4.48	3748.75	Yes		9.77802944507361				ISIRate	Gain
63.0	3	151.554	0.026	1232.957	11.7	0.35	24.0239	3.0	955.0	3.16	Outcome2	0.7	11.7	0.0	No	2.0	11.004530011324999	1.782	153.336		GetAnswer	Loss
63.0	3	153.359	0.023	1234.762	11.7	0.35	24.0239	4.0	955.0	3.16	Outcome2	0.7	11.7	0.0	No		11.004530011324999				ShowChoice	Loss
63.0	3	157.371	0.012	1238.774	11.7	0.35	24.0239	1.0	955.0	3.16	Outcome2	0.7	11.7	0.0	No		11.004530011324999				ShowResult	Loss
63.0	3	158.391	0.02	1239.794	11.7	0.35	24.0239	5.595	955.0	3.16	Outcome2	0.7	11.7	0.0	No		11.004530011324999				ISITrial	Loss
64.0	3	164.008	0.022	1245.411	6.86	3.43	24.8814	3.0	955.0	2.0	Outcome2	8.9	6.86	0.0	No	2.0	-2.04190260475651	0.825	164.833		GetAnswer	Gain
64.0	3	164.86	0.027	1246.263	6.86	3.43	24.8814	4.0	955.0	2.0	Outcome2	8.9	6.86	0.0	No		-2.04190260475651				ShowChoice	Gain
64.0	3	168.872	0.012	1250.275	6.86	3.43	24.8814	1.0	955.0	2.0	Outcome2	8.9	6.86	0.0	No		-2.04190260475651				ShowResult	Gain
64.0	3	169.892	0.02	1251.295	6.86	3.43	24.8814	5.47	955.0	2.0	Outcome2	8.9	6.86	0.0	No		-2.04190260475651				ISITrial	Gain
65.0	3	175.392	0.03	1256.795	8.5	2.0	25.9439	3.0	955.0	1.68	Outcome2	-3.44	8.5	2996.75	Yes	2.0	11.9354473386183	1.365	176.757		GetAnswer	Gain
65.0	3	176.779	0.022	1258.182	8.5	2.0	25.9439	4.0	955.0	1.68	Outcome2	-3.44	8.5	2996.75	Yes		11.9354473386183				ShowChoice	Gain
65.0	3	180.791	0.012	1262.194	8.5	2.0	25.9439	1.0	955.0	1.68	Outcome2	-3.44	8.5	2996.75	Yes		11.9354473386183				ShowResult	Gain
65.0	3	181.811	0.02	1263.214	8.5	2.0	25.9439	3.344	955.0	1.68	Outcome2	-3.44	8.5	2996.75	Yes		11.9354473386183				ISITrial	Gain
65.0	3	188.197	0.029	1269.6	8.5	2.0	25.9439	1.343	955.0	1.68	Outcome2	-3.44	8.5	2996.75	Yes		11.9354473386183			640.0	TrialHappiness	Gain
65.0	3	192.209	4.012	1273.612	8.5	2.0	25.9439	3.987	955.0	1.68	Outcome2	-3.44	8.5	2996.75	Yes		11.9354473386183				ISIRate	Gain
66.0	3	196.221	0.025	1277.624	-3.0	-3.0	25.5689	3.0	955.0	1.0	Certain	-9.07	1.7	0.0	No	4.0	10.770101925254801	2.087	198.308		GetAnswer	Mixed
66.0	3	198.327	0.019	1279.73	-3.0	-3.0	25.5689	4.0	955.0	1.0	Certain	-9.07	1.7	0.0	No		10.770101925254801				ShowChoice	Mixed
66.0	3	202.339	0.012	1283.742	-3.0	-3.0	25.5689	1.0	955.0	1.0	Certain	-9.07	1.7	0.0	No		10.770101925254801				ShowResult	Mixed
66.0	3	203.359	0.02	1284.762	-3.0	-3.0	25.5689	3.959	955.0	1.0	Certain	-9.07	1.7	0.0	No		10.770101925254801				ISITrial	Mixed
67.0	3	207.338	0.02	1288.741	10.54	5.27	26.8864	3.0	955.0	5.0	Outcome2	12.3	10.54	2918.5	Yes	2.0	-1.75962627406569	0.897	208.235		GetAnswer	Loss
67.0	3	208.257	0.022	1289.66	10.54	5.27	26.8864	4.0	955.0	5.0	Outcome2	12.3	10.54	2918.5	Yes		-1.75962627406569				ShowChoice	Loss
67.0	3	212.269	0.012	1293.672	10.54	5.27	26.8864	1.0	955.0	5.0	Outcome2	12.3	10.54	2918.5	Yes		-1.75962627406569				ShowResult	Loss
67.0	3	213.289	0.02	1294.692	10.54	5.27	26.8864	4.199	955.0	5.0	Outcome2	12.3	10.54	2918.5	Yes		-1.75962627406569				ISITrial	Loss
67.0	3	220.444	0.025	1301.847	10.54	5.27	26.8864	1.577	955.0	5.0	Outcome2	12.3	10.54	2918.5	Yes		-1.75962627406569			632.0	TrialHappiness	Loss
67.0	3	224.456	4.012	1305.859	10.54	5.27	26.8864	3.674	955.0	5.0	Outcome2	12.3	10.54	2918.5	Yes		-1.75962627406569				ISIRate	Loss
68.0	3	228.15	0.02	1309.553	9.7	-0.96	28.0989	3.0	955.0	3.16	Outcome1	9.7	-1.92	0.0	No	2.0	11.6194790486976	1.43	229.58		GetAnswer	Gain
68.0	3	229.604	0.024	1311.007	9.7	-0.96	28.0989	4.0	955.0	3.16	Outcome1	9.7	-1.92	0.0	No		11.6194790486976				ShowChoice	Gain
68.0	3	233.616	0.012	1315.019	9.7	-0.96	28.0989	1.0	955.0	3.16	Outcome1	9.7	-1.92	0.0	No		11.6194790486976				ShowResult	Gain
68.0	3	234.636	0.02	1316.039	9.7	-0.96	28.0989	2.185	955.0	3.16	Outcome1	9.7	-1.92	0.0	No		11.6194790486976				ISITrial	Gain
69.0	3	236.843	0.022	1318.246	-3.0	-3.0	27.7239	3.0	955.0	0.2	Certain	-9.49	2.5	0.0	No	4.0	11.9852774631937	2.279	239.122		GetAnswer	Mixed
69.0	3	239.133	0.011	1320.536	-3.0	-3.0	27.7239	4.0	955.0	0.2	Certain	-9.49	2.5	0.0	No		11.9852774631937				ShowChoice	Mixed
69.0	3	243.145	0.012	1324.548	-3.0	-3.0	27.7239	1.0	955.0	0.2	Certain	-9.49	2.5	0.0	No		11.9852774631937				ShowResult	Mixed
69.0	3	244.165	0.02	1325.568	-3.0	-3.0	27.7239	2.0	955.0	0.2	Certain	-9.49	2.5	0.0	No		11.9852774631937				ISITrial	Mixed
70.0	3	246.188	0.023	1327.591	6.02	3.01	28.4764	3.0	955.0	3.6	Outcome2	7.9	6.02	3651.25	Yes	2.0	-1.8827859569648897	1.17	247.358		GetAnswer	Gain
70.0	3	247.374	0.016	1328.777	6.02	3.01	28.4764	4.0	955.0	3.6	Outcome2	7.9	6.02	3651.25	Yes		-1.8827859569648897				ShowChoice	Gain
70.0	3	251.386	0.012	1332.789	6.02	3.01	28.4764	1.0	955.0	3.6	Outcome2	7.9	6.02	3651.25	Yes		-1.8827859569648897				ShowResult	Gain
70.0	3	252.406	0.02	1333.809	6.02	3.01	28.4764	2.623	955.0	3.6	Outcome2	7.9	6.02	3651.25	Yes		-1.8827859569648897				ISITrial	Gain
70.0	3	258.725	0.027	1340.128	6.02	3.01	28.4764	0.959	955.0	3.6	Outcome2	7.9	6.02	3651.25	Yes		-1.8827859569648897			632.0	TrialHappiness	Gain
70.0	3	262.737	4.012	1344.14	6.02	3.01	28.4764	6.605	955.0	3.6	Outcome2	7.9	6.02	3651.25	Yes		-1.8827859569648897				ISIRate	Gain
71.0	3	269.374	0.032	1350.777	7.99	4.0	29.4752	3.0	955.0	3.6	Outcome1	7.99	9.9	0.0	No	2.0	-1.9132691581728998	0.993	270.367		GetAnswer	Gain
71.0	3	270.393	0.026	1351.796	7.99	4.0	29.4752	4.0	955.0	3.6	Outcome1	7.99	9.9	0.0	No		-1.9132691581728998				ShowChoice	Gain
71.0	3	274.405	0.012	1355.808	7.99	4.0	29.4752	1.0	955.0	3.6	Outcome1	7.99	9.9	0.0	No		-1.9132691581728998				ShowResult	Gain
71.0	3	275.425	0.02	1356.828	7.99	4.0	29.4752	5.499	955.0	3.6	Outcome1	7.99	9.9	0.0	No		-1.9132691581728998				ISITrial	Gain
72.0	3	280.942	0.018	1362.345	0.96	2.0	29.5952	3.0	955.0	0.4	Outcome2	2.9	0.96	3080.5	Yes	2.0	-1.9437523593809	2.063	283.005		GetAnswer	Mixed
72.0	3	283.031	0.026	1364.434	0.96	2.0	29.5952	4.0	955.0	0.4	Outcome2	2.9	0.96	3080.5	Yes		-1.9437523593809				ShowChoice	Mixed
72.0	3	287.043	0.012	1368.446	0.96	2.0	29.5952	1.0	955.0	0.4	Outcome2	2.9	0.96	3080.5	Yes		-1.9437523593809				ShowResult	Mixed
72.0	3	288.063	0.02	1369.466	0.96	2.0	29.5952	5.672	955.0	0.4	Outcome2	2.9	0.96	3080.5	Yes		-1.9437523593809				ISITrial	Mixed
72.0	3	296.856	0.029	1378.259	0.96	2.0	29.5952	0.843	955.0	0.4	Outcome2	2.9	0.96	3080.5	Yes		-1.9437523593809			664.0	TrialHappiness	Mixed
72.0	3	300.868	4.012	1382.271	0.96	2.0	29.5952	4.322	955.0	0.4	Outcome2	2.9	0.96	3080.5	Yes		-1.9437523593809				ISIRate	Mixed
73.0	3	305.215	0.025	1386.618	0.0	0.0	29.5952	3.0	955.0	5.0	Certain	-6.6	6.3	0.0	No	4.0	12.904869762174402	1.89	307.105		GetAnswer	Gain
73.0	3	307.12	0.015	1388.523	0.0	0.0	29.5952	4.0	955.0	5.0	Certain	-6.6	6.3	0.0	No		12.904869762174402				ShowChoice	Gain
73.0	3	311.132	0.012	1392.535	0.0	0.0	29.5952	1.0	955.0	5.0	Certain	-6.6	6.3	0.0	No		12.904869762174402				ShowResult	Gain
73.0	3	312.152	0.02	1393.555	0.0	0.0	29.5952	4.616	955.0	5.0	Certain	-6.6	6.3	0.0	No		12.904869762174402				ISITrial	Gain
74.0	3	316.799	0.031	1398.202	10.1	-1.56	30.8577	3.0	955.0	4.2	Outcome2	-3.13	10.1	3056.25	Yes	2.0	13.2344280860702	1.549	318.348		GetAnswer	Gain
74.0	3	318.371	0.023	1399.774	10.1	-1.56	30.8577	4.0	955.0	4.2	Outcome2	-3.13	10.1	3056.25	Yes		13.2344280860702				ShowChoice	Gain
74.0	3	322.383	0.012	1403.786	10.1	-1.56	30.8577	1.0	955.0	4.2	Outcome2	-3.13	10.1	3056.25	Yes		13.2344280860702				ShowResult	Gain
74.0	3	323.402	0.019	1404.805	10.1	-1.56	30.8577	3.909	955.0	4.2	Outcome2	-3.13	10.1	3056.25	Yes		13.2344280860702				ISITrial	Gain
74.0	3	330.407	0.02	1411.81	10.1	-1.56	30.8577	2.835	955.0	4.2	Outcome2	-3.13	10.1	3056.25	Yes		13.2344280860702			748.0	TrialHappiness	Gain
74.0	3	334.419	4.012	1415.822	10.1	-1.56	30.8577	4.225	955.0	4.2	Outcome2	-3.13	10.1	3056.25	Yes		13.2344280860702				ISIRate	Gain
75.0	3	338.665	0.021	1420.068	-5.0	-5.0	30.2327	3.0	955.0	0.52	Certain	-11.04	1.1	0.0	No	4.0	12.1370328425821	1.92	340.585		GetAnswer	Mixed
75.0	3	340.604	0.019	1422.007	-5.0	-5.0	30.2327	4.0	955.0	0.52	Certain	-11.04	1.1	0.0	No		12.1370328425821				ShowChoice	Mixed
75.0	3	344.616	0.012	1426.019	-5.0	-5.0	30.2327	1.0	955.0	0.52	Certain	-11.04	1.1	0.0	No		12.1370328425821				ShowResult	Mixed
75.0	3	345.636	0.02	1427.039	-5.0	-5.0	30.2327	4.979	955.0	0.52	Certain	-11.04	1.1	0.0	No		12.1370328425821				ISITrial	Mixed
76.0	3	350.634	0.019	1432.037	-1.64	-1.64	30.0277	3.0	955.0	2.22	Certain	-3.27	9.1	0.0	No	4.0	12.3714609286523	1.407	352.041		GetAnswer	Gain
76.0	3	352.055	0.014	1433.458	-1.64	-1.64	30.0277	4.0	955.0	2.22	Certain	-3.27	9.1	0.0	No		12.3714609286523				ShowChoice	Gain
76.0	3	356.067	0.012	1437.47	-1.64	-1.64	30.0277	1.0	955.0	2.22	Certain	-3.27	9.1	0.0	No		12.3714609286523				ShowResult	Gain
76.0	3	357.087	0.02	1438.49	-1.64	-1.64	30.0277	3.931	955.0	2.22	Certain	-3.27	9.1	0.0	No		12.3714609286523				ISITrial	Gain
77.0	3	361.049	0.031	1442.452	10.9	-0.86	31.3902	3.0	955.0	2.0	Outcome1	10.9	-1.71	4000.0	Yes		12.6058890147225				GetAnswer	Loss
77.0	3	364.074	0.025	1445.477	10.9	-0.86	31.3902	4.0	955.0	2.0	Outcome1	10.9	-1.71	4000.0	Yes		12.6058890147225				ShowChoice	Loss
77.0	3	368.087	0.013	1449.49	10.9	-0.86	31.3902	1.0	955.0	2.0	Outcome1	10.9	-1.71	4000.0	Yes		12.6058890147225				ShowResult	Loss
77.0	3	369.106	0.019	1450.509	10.9	-0.86	31.3902	7.022	955.0	2.0	Outcome1	10.9	-1.71	4000.0	Yes		12.6058890147225				ISITrial	Loss
77.0	3	380.173	0.029	1461.576	10.9	-0.86	31.3902	0.892	955.0	2.0	Outcome1	10.9	-1.71	4000.0	Yes		12.6058890147225			688.0	TrialHappiness	Loss
77.0	3	384.185	4.012	1465.588	10.9	-0.86	31.3902	8.0	955.0	2.0	Outcome1	10.9	-1.71	4000.0	Yes		12.6058890147225				ISIRate	Loss
78.0	3	392.209	0.024	1473.612	5.82	5.82	32.1177	3.0	955.0	2.8	Certain	11.64	13.5	0.0	No	4.0	-1.8605134012834998	1.586	393.795		GetAnswer	Loss
78.0	3	393.814	0.019	1475.217	5.82	5.82	32.1177	4.0	955.0	2.8	Certain	11.64	13.5	0.0	No		-1.8605134012834998				ShowChoice	Loss
78.0	3	397.826	0.012	1479.229	5.82	5.82	32.1177	1.0	955.0	2.8	Certain	11.64	13.5	0.0	No		-1.8605134012834998				ShowResult	Loss
78.0	3	398.845	0.019	1480.248	5.82	5.82	32.1177	2.078	955.0	2.8	Certain	11.64	13.5	0.0	No		-1.8605134012834998				ISITrial	Loss
79.0	3	400.952	0.029	1482.355	-0.43	-0.43	32.0639	3.0	955.0	2.48	Certain	-0.86	13.3	2729.5	Yes	4.0	14.1619479048698	1.845	402.797		GetAnswer	Loss
79.0	3	402.824	0.027	1484.227	-0.43	-0.43	32.0639	4.0	955.0	2.48	Certain	-0.86	13.3	2729.5	Yes		14.1619479048698				ShowChoice	Loss
79.0	3	406.836	0.012	1488.239	-0.43	-0.43	32.0639	1.0	955.0	2.48	Certain	-0.86	13.3	2729.5	Yes		14.1619479048698				ShowResult	Loss
79.0	3	407.856	0.02	1489.259	-0.43	-0.43	32.0639	3.829	955.0	2.48	Certain	-0.86	13.3	2729.5	Yes		14.1619479048698				ISITrial	Loss
79.0	3	414.459	0.028	1495.862	-0.43	-0.43	32.0639	1.126	955.0	2.48	Certain	-0.86	13.3	2729.5	Yes		14.1619479048698			712.0	TrialHappiness	Loss
79.0	3	418.471	4.012	1499.874	-0.43	-0.43	32.0639	2.918	955.0	2.48	Certain	-0.86	13.3	2729.5	Yes		14.1619479048698				ISIRate	Loss
80.0	3	421.413	0.024	1502.816	-1.08	-1.08	31.9289	3.0	955.0	3.6	Certain	11.9	-2.16	0.0	No	4.0	14.0566251415629	1.549	422.962		GetAnswer	Loss
80.0	3	422.985	0.023	1504.388	-1.08	-1.08	31.9289	4.0	955.0	3.6	Certain	11.9	-2.16	0.0	No		14.0566251415629				ShowChoice	Loss
80.0	3	426.997	0.012	1508.4	-1.08	-1.08	31.9289	1.0	955.0	3.6	Certain	11.9	-2.16	0.0	No		14.0566251415629				ShowResult	Loss
80.0	3	428.016	0.019	1509.419	-1.08	-1.08	31.9289	3.336	955.0	3.6	Certain	11.9	-2.16	0.0	No		14.0566251415629				ISITrial	Loss
81.0	3	431.376	0.024	1512.779	3.93	3.93	32.4201	3.0	955.0	3.16	Certain	7.86	9.7	3923.75	Yes	4.0	-1.83644771611929	1.389	432.765		GetAnswer	Gain
81.0	3	432.781	0.016	1514.184	3.93	3.93	32.4201	4.0	955.0	3.16	Certain	7.86	9.7	3923.75	Yes		-1.83644771611929				ShowChoice	Gain
81.0	3	436.793	0.012	1518.196	3.93	3.93	32.4201	1.0	955.0	3.16	Certain	7.86	9.7	3923.75	Yes		-1.83644771611929				ShowResult	Gain
81.0	3	437.812	0.019	1519.215	3.93	3.93	32.4201	3.919	955.0	3.16	Certain	7.86	9.7	3923.75	Yes		-1.83644771611929				ISITrial	Gain
81.0	3	445.703	0.021	1527.106	3.93	3.93	32.4201	1.276	955.0	3.16	Certain	7.86	9.7	3923.75	Yes	2{-2}	-1.83644771611929	1.276	446.979	712.0	TrialHappiness	Gain
81.0	3	449.715	4.012	1531.118	3.93	3.93	32.4201	7.695	955.0	3.16	Certain	7.86	9.7	3923.75	Yes		-1.83644771611929				ISIRate	Gain
	3	457.438	0.028	1538.841				3.0													CurrentEarnings	
	3	460.464	0.026	1541.867				-0.001								{SPACE}		26.925	487.389		Goodbye	
