trial_number	block	onset	onset_delay	onset_unadjusted	amount_change	certain_amount	current_amount	duration	mood_target	multiplier	outcome	outcome1_amount	outcome2_amount	question_duration	rating	response	rpe	rt	rt_time	slider_response	trial_phase	trial_type
	0	-42.816	0.021	13.196				-0.001								{SPACE}		2.554	-40.262		Welcome	
	0	-40.242	0.02	15.77				5.0													LifeHappyPreview	
	0	-35.21	0.032	20.802				4.818												744.0	LifeHappiness	
	0	-29.276	0.016	26.736				4.0													BlockHappyPreview	
	0	-25.264	0.012	30.748				3.2												688.0	BlockStartHappiness	
	0	-6.675	0.02	49.337				-0.001								5.0					ScanWait	
	1	0.028	0.028	56.04				10.0													GetReady	
1.0	1	10.058	0.03	66.07	-2.0	-2.0	9.75	3.0	955.0	1.2	Certain	-4.64	-0.1	0.0	No	4.0	4.535673839184599	0.973	11.031		GetAnswer	Mixed
1.0	1	11.044	0.013	67.056	-2.0	-2.0	9.75	4.0	955.0	1.2	Certain	-4.64	-0.1	0.0	No		4.535673839184599				ShowChoice	Mixed
1.0	1	15.073	0.029	71.085	-2.0	-2.0	9.75	1.0	955.0	1.2	Certain	-4.64	-0.1	0.0	No		4.535673839184599				ShowResult	Mixed
1.0	1	16.093	0.02	72.105	-2.0	-2.0	9.75	2.431	955.0	1.2	Certain	-4.64	-0.1	0.0	No		4.535673839184599				ISITrial	Mixed
2.0	1	18.55	0.026	74.562	12.39	6.2	11.2988	3.0	955.0	2.8	Outcome2	13.5	12.39	0.0	No	2.0	-1.10872027180068	0.834	19.384		GetAnswer	Loss
2.0	1	19.403	0.019	75.415	12.39	6.2	11.2988	4.0	955.0	2.8	Outcome2	13.5	12.39	0.0	No		-1.10872027180068				ShowChoice	Loss
2.0	1	23.431	0.028	79.443	12.39	6.2	11.2988	1.0	955.0	2.8	Outcome2	13.5	12.39	0.0	No		-1.10872027180068				ShowResult	Loss
2.0	1	24.451	0.02	80.463	12.39	6.2	11.2988	4.568	955.0	2.8	Outcome2	13.5	12.39	0.0	No		-1.10872027180068				ISITrial	Loss
3.0	1	29.048	0.029	85.06	7.5	1.18	12.2363	3.0	955.0	2.8	Outcome2	2.36	7.5	2868.0	Yes	2.0	5.14043035107588	0.812	29.86		GetAnswer	Gain
3.0	1	29.884	0.024	85.896	7.5	1.18	12.2363	4.0	955.0	2.8	Outcome2	2.36	7.5	2868.0	Yes		5.14043035107588				ShowChoice	Gain
3.0	1	33.913	0.029	89.925	7.5	1.18	12.2363	1.0	955.0	2.8	Outcome2	2.36	7.5	2868.0	Yes		5.14043035107588				ShowResult	Gain
3.0	1	34.932	0.019	90.944	7.5	1.18	12.2363	3.243	955.0	2.8	Outcome2	2.36	7.5	2868.0	Yes		5.14043035107588				ISITrial	Gain
3.0	1	41.084	0.024	97.096	7.5	1.18	12.2363	2.029	955.0	2.8	Outcome2	2.36	7.5	2868.0	Yes		5.14043035107588			752.0	TrialHappiness	Gain
3.0	1	45.113	4.029	101.125	7.5	1.18	12.2363	3.472	955.0	2.8	Outcome2	2.36	7.5	2868.0	Yes		5.14043035107588				ISIRate	Gain
4.0	1	48.607	0.022	104.619	4.6	2.3	12.8113	3.0	955.0	2.8	Outcome1	4.6	5.5	0.0	No	2.0	-0.8993959984899961	0.755	49.362		GetAnswer	Gain
4.0	1	49.392	0.03	105.404	4.6	2.3	12.8113	4.0	955.0	2.8	Outcome1	4.6	5.5	0.0	No		-0.8993959984899961				ShowChoice	Gain
4.0	1	53.404	0.012	109.416	4.6	2.3	12.8113	1.0	955.0	2.8	Outcome1	4.6	5.5	0.0	No		-0.8993959984899961				ShowResult	Gain
4.0	1	54.424	0.02	110.436	4.6	2.3	12.8113	2.011	955.0	2.8	Outcome1	4.6	5.5	0.0	No		-0.8993959984899961				ISITrial	Gain
5.0	1	56.463	0.028	112.475	-1.42	-1.0	12.6338	3.0	955.0	0.82	Outcome1	-1.42	-0.5	2582.5	Yes	2.0	-0.918554171385429	1.234	57.697		GetAnswer	Mixed
5.0	1	57.717	0.02	113.729	-1.42	-1.0	12.6338	4.0	955.0	0.82	Outcome1	-1.42	-0.5	2582.5	Yes		-0.918554171385429				ShowChoice	Mixed
5.0	1	61.746	0.029	117.758	-1.42	-1.0	12.6338	1.0	955.0	0.82	Outcome1	-1.42	-0.5	2582.5	Yes		-0.918554171385429				ShowResult	Mixed
5.0	1	62.766	0.02	118.778	-1.42	-1.0	12.6338	5.129	955.0	0.82	Outcome1	-1.42	-0.5	2582.5	Yes		-0.918554171385429				ISITrial	Mixed
5.0	1	70.522	0.026	126.534	-1.42	-1.0	12.6338	1.796	955.0	0.82	Outcome1	-1.42	-0.5	2582.5	Yes		-0.918554171385429			624.0	TrialHappiness	Mixed
5.0	1	74.551	4.029	130.563	-1.42	-1.0	12.6338	2.33	955.0	0.82	Outcome1	-1.42	-0.5	2582.5	Yes		-0.918554171385429				ISIRate	Mixed
6.0	1	76.908	0.027	132.92	1.0	1.0	12.7588	3.0	955.0	2.0	Certain	-2.09	4.9	0.0	No	4.0	6.98980747451869	0.914	77.822		GetAnswer	Gain
6.0	1	77.844	0.022	133.856	1.0	1.0	12.7588	4.0	955.0	2.0	Certain	-2.09	4.9	0.0	No		6.98980747451869				ShowChoice	Gain
6.0	1	81.856	0.012	137.868	1.0	1.0	12.7588	1.0	955.0	2.0	Certain	-2.09	4.9	0.0	No		6.98980747451869				ShowResult	Gain
6.0	1	82.876	0.02	138.888	1.0	1.0	12.7588	6.232	955.0	2.0	Certain	-2.09	4.9	0.0	No		6.98980747451869				ISITrial	Gain
7.0	1	89.128	0.02	145.14	0.0	0.0	12.7588	3.0	955.0	0.52	Certain	-4.26	3.1	0.0	No	4.0	7.364665911664781	1.213	90.341		GetAnswer	Mixed
7.0	1	90.365	0.024	146.377	0.0	0.0	12.7588	4.0	955.0	0.52	Certain	-4.26	3.1	0.0	No		7.364665911664781				ShowChoice	Mixed
7.0	1	94.393	0.028	150.405	0.0	0.0	12.7588	1.0	955.0	0.52	Certain	-4.26	3.1	0.0	No		7.364665911664781				ShowResult	Mixed
7.0	1	95.413	0.02	151.425	0.0	0.0	12.7588	2.305	955.0	0.52	Certain	-4.26	3.1	0.0	No		7.364665911664781				ISITrial	Mixed
8.0	1	97.737	0.019	153.749	-3.0	-3.0	12.3838	3.0	955.0	0.2	Certain	-7.24	0.5	3112.5	Yes	4.0	7.73952434881087	1.764	99.501		GetAnswer	Mixed
8.0	1	99.525	0.024	155.537	-3.0	-3.0	12.3838	4.0	955.0	0.2	Certain	-7.24	0.5	3112.5	Yes		7.73952434881087				ShowChoice	Mixed
8.0	1	103.537	0.012	159.549	-3.0	-3.0	12.3838	1.0	955.0	0.2	Certain	-7.24	0.5	3112.5	Yes		7.73952434881087				ShowResult	Mixed
8.0	1	104.557	0.02	160.569	-3.0	-3.0	12.3838	3.506	955.0	0.2	Certain	-7.24	0.5	3112.5	Yes		7.73952434881087				ISITrial	Mixed
8.0	1	111.227	0.031	167.239	-3.0	-3.0	12.3838	0.676	955.0	0.2	Certain	-7.24	0.5	3112.5	Yes		7.73952434881087			560.0	TrialHappiness	Mixed
8.0	1	115.256	4.029	171.268	-3.0	-3.0	12.3838	4.45	955.0	0.2	Certain	-7.24	0.5	3112.5	Yes		7.73952434881087				ISIRate	Mixed
9.0	1	119.736	0.03	175.748	-5.0	-5.0	11.7588	3.0	955.0	0.4	Certain	-1.1	-10.3	0.0	No	4.0	9.20158550396376	1.651	121.387		GetAnswer	Mixed
9.0	1	121.407	0.02	177.419	-5.0	-5.0	11.7588	4.0	955.0	0.4	Certain	-1.1	-10.3	0.0	No		9.20158550396376				ShowChoice	Mixed
9.0	1	125.436	0.029	181.448	-5.0	-5.0	11.7588	1.0	955.0	0.4	Certain	-1.1	-10.3	0.0	No		9.20158550396376				ShowResult	Mixed
9.0	1	126.456	0.02	182.468	-5.0	-5.0	11.7588	2.0	955.0	0.4	Certain	-1.1	-10.3	0.0	No		9.20158550396376				ISITrial	Mixed
10.0	1	128.478	0.022	184.49	1.0	1.0	11.8838	3.0	955.0	4.2	Certain	6.1	-3.55	4000.0	Yes	4.0	9.64892412231031	1.232	129.71		GetAnswer	Gain
10.0	1	129.732	0.022	185.744	1.0	1.0	11.8838	4.0	955.0	4.2	Certain	6.1	-3.55	4000.0	Yes		9.64892412231031				ShowChoice	Gain
10.0	1	133.744	0.012	189.756	1.0	1.0	11.8838	1.0	955.0	4.2	Certain	6.1	-3.55	4000.0	Yes		9.64892412231031				ShowResult	Gain
10.0	1	134.764	0.02	190.776	1.0	1.0	11.8838	2.0	955.0	4.2	Certain	6.1	-3.55	4000.0	Yes		9.64892412231031				ISITrial	Gain
10.0	1	140.815	0.028	196.827	1.0	1.0	11.8838	0.727	955.0	4.2	Certain	6.1	-3.55	4000.0	Yes		9.64892412231031			560.0	TrialHappiness	Gain
10.0	1	144.844	4.029	200.856	1.0	1.0	11.8838	8.0	955.0	4.2	Certain	6.1	-3.55	4000.0	Yes		9.64892412231031				ISIRate	Gain
11.0	1	152.868	0.024	208.88	6.81	3.4	12.735	3.0	955.0	1.82	Outcome2	8.7	6.81	0.0	No	2.0	-1.88514533786334	0.908	153.776		GetAnswer	Gain
11.0	1	153.804	0.028	209.816	6.81	3.4	12.735	4.0	955.0	1.82	Outcome2	8.7	6.81	0.0	No		-1.88514533786334				ShowChoice	Gain
11.0	1	157.816	0.012	213.828	6.81	3.4	12.735	1.0	955.0	1.82	Outcome2	8.7	6.81	0.0	No		-1.88514533786334				ShowResult	Gain
11.0	1	158.836	0.02	214.848	6.81	3.4	12.735	3.324	955.0	1.82	Outcome2	8.7	6.81	0.0	No		-1.88514533786334				ISITrial	Gain
12.0	1	162.179	0.019	218.191	4.58	2.29	13.3075	3.0	955.0	1.68	Outcome2	6.5	4.58	2618.75	Yes	2.0	-1.9224235560588898	0.891	163.07		GetAnswer	Gain
12.0	1	163.099	0.029	219.111	4.58	2.29	13.3075	4.0	955.0	1.68	Outcome2	6.5	4.58	2618.75	Yes		-1.9224235560588898				ShowChoice	Gain
12.0	1	167.111	0.012	223.123	4.58	2.29	13.3075	1.0	955.0	1.68	Outcome2	6.5	4.58	2618.75	Yes		-1.9224235560588898				ShowResult	Gain
12.0	1	168.13	0.019	224.142	4.58	2.29	13.3075	6.642	955.0	1.68	Outcome2	6.5	4.58	2618.75	Yes		-1.9224235560588898				ISITrial	Gain
12.0	1	177.441	0.022	233.453	4.58	2.29	13.3075	3.218	955.0	1.68	Outcome2	6.5	4.58	2618.75	Yes	{-2}2{-2}2{-2}2{-2}2{-2}2{-2}2{-2}2{-2}2{-2}	-1.9224235560588898	3.218	180.659	700.0	TrialHappiness	Gain
12.0	1	181.47	4.029	237.482	4.58	2.29	13.3075	2.475	955.0	1.68	Outcome2	6.5	4.58	2618.75	Yes		-1.9224235560588898				ISIRate	Gain
13.0	1	183.978	0.033	239.99	13.1	2.24	14.945	3.0	955.0	2.22	Outcome1	13.1	4.49	0.0	No	2.0	8.61268403171008	0.786	184.764		GetAnswer	Loss
13.0	1	184.78	0.016	240.792	13.1	2.24	14.945	4.0	955.0	2.22	Outcome1	13.1	4.49	0.0	No		8.61268403171008				ShowChoice	Loss
13.0	1	188.792	0.012	244.804	13.1	2.24	14.945	1.0	955.0	2.22	Outcome1	13.1	4.49	0.0	No		8.61268403171008				ShowResult	Loss
13.0	1	189.812	0.02	245.824	13.1	2.24	14.945	3.48	955.0	2.22	Outcome1	13.1	4.49	0.0	No		8.61268403171008				ISITrial	Loss
14.0	1	193.322	0.03	249.334	-3.0	-3.0	14.57	3.0	955.0	1.0	Certain	-7.2	1.7	0.0	No	4.0	8.90147225368063	1.49	194.812		GetAnswer	Mixed
14.0	1	194.827	0.015	250.839	-3.0	-3.0	14.57	4.0	955.0	1.0	Certain	-7.2	1.7	0.0	No		8.90147225368063				ShowChoice	Mixed
14.0	1	198.855	0.028	254.867	-3.0	-3.0	14.57	1.0	955.0	1.0	Certain	-7.2	1.7	0.0	No		8.90147225368063				ShowResult	Mixed
14.0	1	199.875	0.02	255.887	-3.0	-3.0	14.57	5.019	955.0	1.0	Certain	-7.2	1.7	0.0	No		8.90147225368063				ISITrial	Mixed
15.0	1	204.923	0.029	260.935	11.3	1.06	15.9825	3.0	955.0	2.48	Outcome1	11.3	2.11	3348.5	Yes	2.0	9.19026047565119	0.691	205.614		GetAnswer	Loss
15.0	1	205.642	0.028	261.654	11.3	1.06	15.9825	4.0	955.0	2.48	Outcome1	11.3	2.11	3348.5	Yes		9.19026047565119				ShowChoice	Loss
15.0	1	209.654	0.012	265.666	11.3	1.06	15.9825	1.0	955.0	2.48	Outcome1	11.3	2.11	3348.5	Yes		9.19026047565119				ShowResult	Loss
15.0	1	210.674	0.02	266.686	11.3	1.06	15.9825	7.614	955.0	2.48	Outcome1	11.3	2.11	3348.5	Yes		9.19026047565119				ISITrial	Loss
15.0	1	221.69	0.029	277.702	11.3	1.06	15.9825	3.701	955.0	2.48	Outcome1	11.3	2.11	3348.5	Yes		9.19026047565119			684.0	TrialHappiness	Loss
15.0	1	225.702	4.012	281.714	11.3	1.06	15.9825	5.394	955.0	2.48	Outcome1	11.3	2.11	3348.5	Yes		9.19026047565119				ISIRate	Loss
16.0	1	231.118	0.022	287.13	9.3	-0.22	17.145	3.0	955.0	2.48	Outcome2	-0.45	9.3	0.0	No	2.0	9.750849377123439	1.26	232.378		GetAnswer	Gain
16.0	1	232.406	0.028	288.418	9.3	-0.22	17.145	4.0	955.0	2.48	Outcome2	-0.45	9.3	0.0	No		9.750849377123439				ShowChoice	Gain
16.0	1	236.418	0.012	292.43	9.3	-0.22	17.145	1.0	955.0	2.48	Outcome2	-0.45	9.3	0.0	No		9.750849377123439				ShowResult	Gain
16.0	1	237.437	0.019	293.449	9.3	-0.22	17.145	3.008	955.0	2.48	Outcome2	-0.45	9.3	0.0	No		9.750849377123439				ISITrial	Gain
17.0	1	240.463	0.018	296.475	1.75	2.0	17.3638	3.0	955.0	0.66	Outcome2	3.3	1.75	3041.5	Yes	2.0	-1.5542657606644	0.999	241.462		GetAnswer	Mixed
17.0	1	241.483	0.021	297.495	1.75	2.0	17.3638	4.0	955.0	0.66	Outcome2	3.3	1.75	3041.5	Yes		-1.5542657606644				ShowChoice	Mixed
17.0	1	245.495	0.012	301.507	1.75	2.0	17.3638	1.0	955.0	0.66	Outcome2	3.3	1.75	3041.5	Yes		-1.5542657606644				ShowResult	Mixed
17.0	1	246.514	0.019	302.526	1.75	2.0	17.3638	3.566	955.0	0.66	Outcome2	3.3	1.75	3041.5	Yes		-1.5542657606644				ISITrial	Mixed
17.0	1	253.151	0.017	309.163	1.75	2.0	17.3638	2.331	955.0	0.66	Outcome2	3.3	1.75	3041.5	Yes		-1.5542657606644			716.0	TrialHappiness	Mixed
17.0	1	257.163	4.012	313.175	1.75	2.0	17.3638	4.166	955.0	0.66	Outcome2	3.3	1.75	3041.5	Yes		-1.5542657606644				ISIRate	Mixed
18.0	1	261.359	0.03	317.371	7.05	3.52	18.245	3.0	955.0	1.68	Outcome1	7.05	8.5	0.0	No	2.0	-1.44998112495281	0.896	262.255		GetAnswer	Gain
18.0	1	262.278	0.023	318.29	7.05	3.52	18.245	4.0	955.0	1.68	Outcome1	7.05	8.5	0.0	No		-1.44998112495281				ShowChoice	Gain
18.0	1	266.29	0.012	322.302	7.05	3.52	18.245	1.0	955.0	1.68	Outcome1	7.05	8.5	0.0	No		-1.44998112495281				ShowResult	Gain
18.0	1	267.31	0.02	323.322	7.05	3.52	18.245	6.787	955.0	1.68	Outcome1	7.05	8.5	0.0	No		-1.44998112495281				ISITrial	Gain
19.0	1	274.113	0.016	330.125	-2.0	-2.0	17.995	3.0	955.0	0.4	Certain	2.9	-7.19	0.0	No	4.0	10.0917327293318	1.279	275.392		GetAnswer	Mixed
19.0	1	275.417	0.025	331.429	-2.0	-2.0	17.995	4.0	955.0	0.4	Certain	2.9	-7.19	0.0	No		10.0917327293318				ShowChoice	Mixed
19.0	1	279.429	0.012	335.441	-2.0	-2.0	17.995	1.0	955.0	0.4	Certain	2.9	-7.19	0.0	No		10.0917327293318				ShowResult	Mixed
19.0	1	280.449	0.02	336.461	-2.0	-2.0	17.995	2.0	955.0	0.4	Certain	2.9	-7.19	0.0	No		10.0917327293318				ISITrial	Mixed
20.0	1	282.472	0.023	338.484	-0.2	0.0	17.97	3.0	955.0	0.66	Outcome2	1.3	-0.2	2921.25	Yes	2.0	-1.4950924877312197	1.444	283.916		GetAnswer	Mixed
20.0	1	283.943	0.027	339.955	-0.2	0.0	17.97	4.0	955.0	0.66	Outcome2	1.3	-0.2	2921.25	Yes		-1.4950924877312197				ShowChoice	Mixed
20.0	1	287.955	0.012	343.967	-0.2	0.0	17.97	1.0	955.0	0.66	Outcome2	1.3	-0.2	2921.25	Yes		-1.4950924877312197				ShowResult	Mixed
20.0	1	288.974	0.019	344.986	-0.2	0.0	17.97	8.0	955.0	0.66	Outcome2	1.3	-0.2	2921.25	Yes		-1.4950924877312197				ISITrial	Mixed
20.0	1	299.941	0.022	355.953	-0.2	0.0	17.97	1.294	955.0	0.66	Outcome2	1.3	-0.2	2921.25	Yes		-1.4950924877312197			584.0	TrialHappiness	Mixed
20.0	1	303.953	4.012	359.965	-0.2	0.0	17.97	3.685	955.0	0.66	Outcome2	1.3	-0.2	2921.25	Yes		-1.4950924877312197				ISIRate	Mixed
21.0	1	307.664	0.026	363.676	9.1	2.0	19.1075	3.0	955.0	2.22	Outcome1	9.1	-3.78	0.0	No	2.0	12.875424688561699	0.99	308.654		GetAnswer	Gain
21.0	1	308.667	0.013	364.679	9.1	2.0	19.1075	4.0	955.0	2.22	Outcome1	9.1	-3.78	0.0	No		12.875424688561699				ShowChoice	Gain
21.0	1	312.679	0.012	368.691	9.1	2.0	19.1075	1.0	955.0	2.22	Outcome1	9.1	-3.78	0.0	No		12.875424688561699				ShowResult	Gain
21.0	1	313.698	0.019	369.71	9.1	2.0	19.1075	3.555	955.0	2.22	Outcome1	9.1	-3.78	0.0	No		12.875424688561699				ISITrial	Gain
22.0	1	317.276	0.023	373.288	8.3	1.0	20.145	3.0	955.0	5.0	Outcome2	-5.0	8.3	3219.5	Yes	2.0	13.295583238958098	1.393	318.669		GetAnswer	Gain
22.0	1	318.697	0.028	374.709	8.3	1.0	20.145	4.0	955.0	5.0	Outcome2	-5.0	8.3	3219.5	Yes		13.295583238958098				ShowChoice	Gain
22.0	1	322.709	0.012	378.721	8.3	1.0	20.145	1.0	955.0	5.0	Outcome2	-5.0	8.3	3219.5	Yes		13.295583238958098				ShowResult	Gain
22.0	1	323.728	0.019	379.74	8.3	1.0	20.145	6.793	955.0	5.0	Outcome2	-5.0	8.3	3219.5	Yes		13.295583238958098				ISITrial	Gain
22.0	1	333.792	0.023	389.804	8.3	1.0	20.145	1.491	955.0	5.0	Outcome2	-5.0	8.3	3219.5	Yes		13.295583238958098			620.0	TrialHappiness	Gain
22.0	1	337.804	4.012	393.816	8.3	1.0	20.145	4.878	955.0	5.0	Outcome2	-5.0	8.3	3219.5	Yes		13.295583238958098				ISIRate	Gain
23.0	1	342.702	0.02	398.714	-5.0	-5.0	19.52	3.0	955.0	0.82	Certain	-11.6	1.5	0.0	No	4.0	13.1041902604757	0.988	343.69		GetAnswer	Mixed
23.0	1	343.705	0.015	399.717	-5.0	-5.0	19.52	4.0	955.0	0.82	Certain	-11.6	1.5	0.0	No		13.1041902604757				ShowChoice	Mixed
23.0	1	347.717	0.012	403.729	-5.0	-5.0	19.52	1.0	955.0	0.82	Certain	-11.6	1.5	0.0	No		13.1041902604757				ShowResult	Mixed
23.0	1	348.736	0.019	404.748	-5.0	-5.0	19.52	8.0	955.0	0.82	Certain	-11.6	1.5	0.0	No		13.1041902604757				ISITrial	Mixed
24.0	1	356.76	0.024	412.772	0.0	0.0	19.52	3.0	955.0	1.82	Certain	6.7	-6.78	3255.0	Yes	4.0	13.4835787089468	1.026	357.786		GetAnswer	Gain
24.0	1	357.797	0.011	413.809	0.0	0.0	19.52	4.0	955.0	1.82	Certain	6.7	-6.78	3255.0	Yes		13.4835787089468				ShowChoice	Gain
24.0	1	361.809	0.012	417.821	0.0	0.0	19.52	1.0	955.0	1.82	Certain	6.7	-6.78	3255.0	Yes		13.4835787089468				ShowResult	Gain
24.0	1	362.828	0.019	418.84	0.0	0.0	19.52	2.0	955.0	1.82	Certain	6.7	-6.78	3255.0	Yes		13.4835787089468				ISITrial	Gain
24.0	1	368.128	0.022	424.14	0.0	0.0	19.52	1.144	955.0	1.82	Certain	6.7	-6.78	3255.0	Yes		13.4835787089468			552.0	TrialHappiness	Gain
24.0	1	372.14	4.012	428.152	0.0	0.0	19.52	5.02	955.0	1.82	Certain	6.7	-6.78	3255.0	Yes		13.4835787089468				ISIRate	Gain
25.0	1	377.188	0.028	433.2	2.0	2.0	19.77	3.0	955.0	3.16	Certain	-5.32	9.7	0.0	No	4.0	15.0181200453001	1.147	378.335		GetAnswer	Gain
25.0	1	378.358	0.023	434.37	2.0	2.0	19.77	4.0	955.0	3.16	Certain	-5.32	9.7	0.0	No		15.0181200453001				ShowChoice	Gain
25.0	1	382.37	0.012	438.382	2.0	2.0	19.77	1.0	955.0	3.16	Certain	-5.32	9.7	0.0	No		15.0181200453001				ShowResult	Gain
25.0	1	383.39	0.02	439.402	2.0	2.0	19.77	3.749	955.0	3.16	Certain	-5.32	9.7	0.0	No		15.0181200453001				ISITrial	Gain
26.0	1	387.168	0.029	443.18	10.5	-2.48	21.0825	3.0	955.0	1.68	Outcome1	10.5	-4.97	0.0	No	2.0	15.4745186862967	1.326	388.494		GetAnswer	Loss
26.0	1	388.522	0.028	444.534	10.5	-2.48	21.0825	4.0	955.0	1.68	Outcome1	10.5	-4.97	0.0	No		15.4745186862967				ShowChoice	Loss
26.0	1	392.534	0.012	448.546	10.5	-2.48	21.0825	1.0	955.0	1.68	Outcome1	10.5	-4.97	0.0	No		15.4745186862967				ShowResult	Loss
26.0	1	393.553	0.019	449.565	10.5	-2.48	21.0825	7.834	955.0	1.68	Outcome1	10.5	-4.97	0.0	No		15.4745186862967				ISITrial	Loss
27.0	1	401.41	0.023	457.422	7.3	0.0	21.995	3.0	955.0	2.48	Outcome2	-8.63	7.3	2549.75	Yes	2.0	15.930917327293301	1.275	402.685		GetAnswer	Gain
27.0	1	402.697	0.012	458.709	7.3	0.0	21.995	4.0	955.0	2.48	Outcome2	-8.63	7.3	2549.75	Yes		15.930917327293301				ShowChoice	Gain
27.0	1	406.709	0.012	462.721	7.3	0.0	21.995	1.0	955.0	2.48	Outcome2	-8.63	7.3	2549.75	Yes		15.930917327293301				ShowResult	Gain
27.0	1	407.729	0.02	463.741	7.3	0.0	21.995	4.225	955.0	2.48	Outcome2	-8.63	7.3	2549.75	Yes		15.930917327293301				ISITrial	Gain
27.0	1	414.55	0.025	470.562	7.3	0.0	21.995	2.797	955.0	2.48	Outcome2	-8.63	7.3	2549.75	Yes		15.930917327293301			624.0	TrialHappiness	Gain
27.0	1	418.561	4.011	474.573	7.3	0.0	21.995	2.199	955.0	2.48	Outcome2	-8.63	7.3	2549.75	Yes		15.930917327293301				ISIRate	Gain
	1	420.785	0.025	476.797				-0.001								4.0		29.591	450.376		Rest	
	1	450.39	0.014	506.402				4.0													BlockHappyPreview	
	1	454.402	0.012	510.414				3.752												592.0	BlockStartHappiness	
	1	508.296	0.013	564.308				-0.001								5.0		0.988	509.284		ScanWait	
	2	0.015	0.015	565.311				10.0													GetReady	
28.0	2	10.028	0.013	575.324	1.0	1.0	22.12	3.0	70.0	2.48	Certain	-3.58	5.3	0.0	No	4.0	-8.877551020408161	1.092	11.12		GetAnswer	Gain
28.0	2	11.132	0.012	576.428	1.0	1.0	22.12	4.0	70.0	2.48	Certain	-3.58	5.3	0.0	No		-8.877551020408161				ShowChoice	Gain
28.0	2	15.144	0.012	580.44	1.0	1.0	22.12	1.0	70.0	2.48	Certain	-3.58	5.3	0.0	No		-8.877551020408161				ShowResult	Gain
28.0	2	16.163	0.019	581.459	1.0	1.0	22.12	3.575	70.0	2.48	Certain	-3.58	5.3	0.0	No		-8.877551020408161				ISITrial	Gain
29.0	2	19.757	0.019	585.053	2.0	2.0	22.37	3.0	70.0	4.2	Certain	0.85	3.02	3529.0	Yes	4.0	2.17006802721088	0.084	19.841		GetAnswer	Loss
29.0	2	19.858	0.016	585.154	2.0	2.0	22.37	4.0	70.0	4.2	Certain	0.85	3.02	3529.0	Yes		2.17006802721088				ShowChoice	Loss
29.0	2	23.87	0.012	589.166	2.0	2.0	22.37	1.0	70.0	4.2	Certain	0.85	3.02	3529.0	Yes		2.17006802721088				ShowResult	Loss
29.0	2	24.889	0.019	590.185	2.0	2.0	22.37	3.955	70.0	4.2	Certain	0.85	3.02	3529.0	Yes		2.17006802721088				ISITrial	Loss
29.0	2	32.412	0.015	597.708	2.0	2.0	22.37	0.993	70.0	4.2	Certain	0.85	3.02	3529.0	Yes		2.17006802721088			600.0	TrialHappiness	Loss
29.0	2	36.424	4.012	601.72	2.0	2.0	22.37	6.116	70.0	4.2	Certain	0.85	3.02	3529.0	Yes		2.17006802721088				ISIRate	Loss
30.0	2	42.559	0.019	607.855	-5.0	-5.0	21.745	3.0	70.0	2.0	Certain	0.3	-9.9	0.0	No	4.0	-10.197278911564599	1.276	43.835		GetAnswer	Mixed
30.0	2	43.846	0.011	609.142	-5.0	-5.0	21.745	4.0	70.0	2.0	Certain	0.3	-9.9	0.0	No		-10.197278911564599				ShowChoice	Mixed
30.0	2	47.858	0.012	613.154	-5.0	-5.0	21.745	1.0	70.0	2.0	Certain	0.3	-9.9	0.0	No		-10.197278911564599				ShowResult	Mixed
30.0	2	48.878	0.02	614.174	-5.0	-5.0	21.745	4.453	70.0	2.0	Certain	0.3	-9.9	0.0	No		-10.197278911564599				ISITrial	Mixed
31.0	2	53.358	0.027	618.654	2.0	2.0	21.995	3.0	70.0	3.16	Certain	7.7	-3.1	2503.25	Yes	4.0	-10.7981859410431	0.618	53.976		GetAnswer	Gain
31.0	2	53.993	0.017	619.289	2.0	2.0	21.995	4.0	70.0	3.16	Certain	7.7	-3.1	2503.25	Yes		-10.7981859410431				ShowChoice	Gain
31.0	2	58.005	0.012	623.301	2.0	2.0	21.995	1.0	70.0	3.16	Certain	7.7	-3.1	2503.25	Yes		-10.7981859410431				ShowResult	Gain
31.0	2	59.025	0.02	624.321	2.0	2.0	21.995	4.786	70.0	3.16	Certain	7.7	-3.1	2503.25	Yes		-10.7981859410431				ISITrial	Gain
31.0	2	66.347	0.022	631.643	2.0	2.0	21.995	0.642	70.0	3.16	Certain	7.7	-3.1	2503.25	Yes		-10.7981859410431			544.0	TrialHappiness	Gain
31.0	2	70.359	4.012	635.655	2.0	2.0	21.995	2.013	70.0	3.16	Certain	7.7	-3.1	2503.25	Yes		-10.7981859410431				ISIRate	Gain
32.0	2	72.398	0.026	637.694	0.18	-1.0	22.0175	3.0	70.0	0.3	Outcome2	-1.94	0.18	0.0	No	2.0	2.1245275888133	1.243	73.641		GetAnswer	Mixed
32.0	2	73.668	0.027	638.964	0.18	-1.0	22.0175	4.0	70.0	0.3	Outcome2	-1.94	0.18	0.0	No		2.1245275888133				ShowChoice	Mixed
32.0	2	77.68	0.012	642.976	0.18	-1.0	22.0175	1.0	70.0	0.3	Outcome2	-1.94	0.18	0.0	No		2.1245275888133				ShowResult	Mixed
32.0	2	78.7	0.02	643.996	0.18	-1.0	22.0175	2.0	70.0	0.3	Outcome2	-1.94	0.18	0.0	No		2.1245275888133				ISITrial	Mixed
33.0	2	80.723	0.023	646.019	2.32	1.16	22.3075	3.0	70.0	2.48	Outcome2	13.3	2.32	0.0	No	2.0	-10.984126984127	0.974	81.697		GetAnswer	Loss
33.0	2	81.709	0.012	647.005	2.32	1.16	22.3075	4.0	70.0	2.48	Outcome2	13.3	2.32	0.0	No		-10.984126984127				ShowChoice	Loss
33.0	2	85.721	0.012	651.017	2.32	1.16	22.3075	1.0	70.0	2.48	Outcome2	13.3	2.32	0.0	No		-10.984126984127				ShowResult	Loss
33.0	2	86.741	0.02	652.037	2.32	1.16	22.3075	5.099	70.0	2.48	Outcome2	13.3	2.32	0.0	No		-10.984126984127				ISITrial	Loss
34.0	2	91.856	0.016	657.152	0.0	0.0	22.3075	3.0	70.0	3.6	Certain	-0.73	1.48	3231.5	Yes	4.0	2.21409674981104	1.268	93.124		GetAnswer	Gain
34.0	2	93.143	0.019	658.439	0.0	0.0	22.3075	4.0	70.0	3.6	Certain	-0.73	1.48	3231.5	Yes		2.21409674981104				ShowChoice	Gain
34.0	2	97.155	0.012	662.451	0.0	0.0	22.3075	1.0	70.0	3.6	Certain	-0.73	1.48	3231.5	Yes		2.21409674981104				ShowResult	Gain
34.0	2	98.175	0.02	663.471	0.0	0.0	22.3075	4.784	70.0	3.6	Certain	-0.73	1.48	3231.5	Yes		2.21409674981104				ISITrial	Gain
34.0	2	106.232	0.027	671.528	0.0	0.0	22.3075	0.827	70.0	3.6	Certain	-0.73	1.48	3231.5	Yes		2.21409674981104			552.0	TrialHappiness	Gain
34.0	2	110.244	4.012	675.54	0.0	0.0	22.3075	4.926	70.0	3.6	Certain	-0.73	1.48	3231.5	Yes		2.21409674981104				ISIRate	Gain
35.0	2	115.192	0.022	680.488	0.0	0.0	22.3075	3.0	70.0	2.22	Certain	1.27	-1.02	0.0	No	4.0	2.2913832199546498	1.049	116.241		GetAnswer	Gain
35.0	2	116.262	0.021	681.558	0.0	0.0	22.3075	4.0	70.0	2.22	Certain	1.27	-1.02	0.0	No		2.2913832199546498				ShowChoice	Gain
35.0	2	120.274	0.012	685.57	0.0	0.0	22.3075	1.0	70.0	2.22	Certain	1.27	-1.02	0.0	No		2.2913832199546498				ShowResult	Gain
35.0	2	121.294	0.02	686.59	0.0	0.0	22.3075	2.098	70.0	2.22	Certain	1.27	-1.02	0.0	No		2.2913832199546498				ISITrial	Gain
36.0	2	123.417	0.025	688.713	-1.24	-0.62	22.1525	3.0	70.0	2.8	Outcome1	-1.24	11.5	3335.75	Yes	2.0	-12.7414965986395	1.01	124.427		GetAnswer	Loss
36.0	2	124.453	0.026	689.749	-1.24	-0.62	22.1525	4.0	70.0	2.8	Outcome1	-1.24	11.5	3335.75	Yes		-12.7414965986395				ShowChoice	Loss
36.0	2	128.465	0.012	693.761	-1.24	-0.62	22.1525	1.0	70.0	2.8	Outcome1	-1.24	11.5	3335.75	Yes		-12.7414965986395				ShowResult	Loss
36.0	2	129.485	0.02	694.781	-1.24	-0.62	22.1525	5.156	70.0	2.8	Outcome1	-1.24	11.5	3335.75	Yes		-12.7414965986395				ISITrial	Loss
36.0	2	138.027	0.024	703.323	-1.24	-0.62	22.1525	2.197	70.0	2.8	Outcome1	-1.24	11.5	3335.75	Yes		-12.7414965986395			544.0	TrialHappiness	Loss
36.0	2	142.039	4.012	707.335	-1.24	-0.62	22.1525	5.343	70.0	2.8	Outcome1	-1.24	11.5	3335.75	Yes		-12.7414965986395				ISIRate	Loss
37.0	2	147.405	0.023	712.701	1.58	0.0	22.35	3.0	70.0	5.0	Outcome1	1.58	-0.77	0.0	No	2.0	2.34996220710506	1.101	148.506		GetAnswer	Gain
37.0	2	148.525	0.019	713.821	1.58	0.0	22.35	4.0	70.0	5.0	Outcome1	1.58	-0.77	0.0	No		2.34996220710506				ShowChoice	Gain
37.0	2	152.537	0.012	717.833	1.58	0.0	22.35	1.0	70.0	5.0	Outcome1	1.58	-0.77	0.0	No		2.34996220710506				ShowResult	Gain
37.0	2	153.557	0.02	718.853	1.58	0.0	22.35	3.598	70.0	5.0	Outcome1	1.58	-0.77	0.0	No		2.34996220710506				ISITrial	Gain
38.0	2	157.185	0.03	722.481	-6.0	-6.0	21.6	3.0	70.0	1.5	Certain	0.1	-13.59	0.0	No	4.0	-13.6893424036281	1.583	158.768		GetAnswer	Mixed
38.0	2	158.789	0.021	724.085	-6.0	-6.0	21.6	4.0	70.0	1.5	Certain	0.1	-13.59	0.0	No		-13.6893424036281				ShowChoice	Mixed
38.0	2	162.801	0.012	728.097	-6.0	-6.0	21.6	1.0	70.0	1.5	Certain	0.1	-13.59	0.0	No		-13.6893424036281				ShowResult	Mixed
38.0	2	163.821	0.02	729.117	-6.0	-6.0	21.6	4.787	70.0	1.5	Certain	0.1	-13.59	0.0	No		-13.6893424036281				ISITrial	Mixed
39.0	2	168.635	0.027	733.931	0.0	0.0	21.6	3.0	70.0	0.3	Certain	-1.76	0.68	2864.25	Yes	4.0	2.4395313681028	1.368	170.003		GetAnswer	Mixed
39.0	2	170.023	0.02	735.319	0.0	0.0	21.6	4.0	70.0	0.3	Certain	-1.76	0.68	2864.25	Yes		2.4395313681028				ShowChoice	Mixed
39.0	2	174.035	0.012	739.331	0.0	0.0	21.6	1.0	70.0	0.3	Certain	-1.76	0.68	2864.25	Yes		2.4395313681028				ShowResult	Mixed
39.0	2	175.055	0.02	740.351	0.0	0.0	21.6	2.348	70.0	0.3	Certain	-1.76	0.68	2864.25	Yes		2.4395313681028				ISITrial	Mixed
39.0	2	180.32	0.028	745.616	0.0	0.0	21.6	1.211	70.0	0.3	Certain	-1.76	0.68	2864.25	Yes		2.4395313681028			440.0	TrialHappiness	Mixed
39.0	2	184.332	4.012	749.628	0.0	0.0	21.6	3.457	70.0	0.3	Certain	-1.76	0.68	2864.25	Yes		2.4395313681028				ISIRate	Mixed
40.0	2	187.809	0.02	753.105	-1.0	-1.0	21.475	3.0	70.0	3.16	Certain	5.7	-7.3	0.0	No	4.0	-12.995464852607698	0.112	187.921		GetAnswer	Gain
40.0	2	187.943	0.022	753.239	-1.0	-1.0	21.475	4.0	70.0	3.16	Certain	5.7	-7.3	0.0	No		-12.995464852607698				ShowChoice	Gain
40.0	2	191.955	0.012	757.251	-1.0	-1.0	21.475	1.0	70.0	3.16	Certain	5.7	-7.3	0.0	No		-12.995464852607698				ShowResult	Gain
40.0	2	192.975	0.02	758.271	-1.0	-1.0	21.475	3.158	70.0	3.16	Certain	5.7	-7.3	0.0	No		-12.995464852607698				ISITrial	Gain
41.0	2	196.151	0.018	761.447	-0.86	-0.86	21.3675	3.0	70.0	3.16	Certain	11.7	-1.72	4000.0	Yes	4.0	-13.414965986394598	0.956	197.107		GetAnswer	Loss
41.0	2	197.12	0.013	762.416	-0.86	-0.86	21.3675	4.0	70.0	3.16	Certain	11.7	-1.72	4000.0	Yes		-13.414965986394598				ShowChoice	Loss
41.0	2	201.132	0.012	766.428	-0.86	-0.86	21.3675	1.0	70.0	3.16	Certain	11.7	-1.72	4000.0	Yes		-13.414965986394598				ShowResult	Loss
41.0	2	202.152	0.02	767.448	-0.86	-0.86	21.3675	4.506	70.0	3.16	Certain	11.7	-1.72	4000.0	Yes		-13.414965986394598				ISITrial	Loss
41.0	2	210.711	0.029	776.007	-0.86	-0.86	21.3675	3.934	70.0	3.16	Certain	11.7	-1.72	4000.0	Yes		-13.414965986394598			308.0	TrialHappiness	Loss
41.0	2	214.723	4.012	780.019	-0.86	-0.86	21.3675	8.0	70.0	3.16	Certain	11.7	-1.72	4000.0	Yes		-13.414965986394598				ISIRate	Loss
42.0	2	222.747	0.024	788.043	2.52	1.0	21.6825	3.0	70.0	4.2	Outcome2	0.92	2.52	0.0	No	2.0	1.59542705971277	0.966	223.713		GetAnswer	Gain
42.0	2	223.733	0.02	789.029	2.52	1.0	21.6825	4.0	70.0	4.2	Outcome2	0.92	2.52	0.0	No		1.59542705971277				ShowChoice	Gain
42.0	2	227.745	0.012	793.041	2.52	1.0	21.6825	1.0	70.0	4.2	Outcome2	0.92	2.52	0.0	No		1.59542705971277				ShowResult	Gain
42.0	2	228.765	0.02	794.061	2.52	1.0	21.6825	6.248	70.0	4.2	Outcome2	0.92	2.52	0.0	No		1.59542705971277				ISITrial	Gain
43.0	2	235.034	0.021	800.33	-7.0	-7.0	20.8075	3.0	70.0	0.52	Certain	-0.9	-12.76	2775.75	Yes	4.0	-11.859410430839	0.795	235.829		GetAnswer	Mixed
43.0	2	235.853	0.024	801.149	-7.0	-7.0	20.8075	4.0	70.0	0.52	Certain	-0.9	-12.76	2775.75	Yes		-11.859410430839				ShowChoice	Mixed
43.0	2	239.865	0.012	805.161	-7.0	-7.0	20.8075	1.0	70.0	0.52	Certain	-0.9	-12.76	2775.75	Yes		-11.859410430839				ShowResult	Mixed
43.0	2	240.885	0.02	806.181	-7.0	-7.0	20.8075	4.596	70.0	0.52	Certain	-0.9	-12.76	2775.75	Yes		-11.859410430839				ISITrial	Mixed
43.0	2	248.29	0.016	813.586	-7.0	-7.0	20.8075	3.919	70.0	0.52	Certain	-0.9	-12.76	2775.75	Yes		-11.859410430839			320.0	TrialHappiness	Mixed
43.0	2	252.302	4.012	817.598	-7.0	-7.0	20.8075	3.103	70.0	0.52	Certain	-0.9	-12.76	2775.75	Yes		-11.859410430839				ISIRate	Mixed
44.0	2	255.428	0.023	820.724	0.28	0.0	20.8425	3.0	70.0	0.52	Outcome2	-1.41	0.28	0.0	No	2.0	1.68915343915344	1.301	256.729		GetAnswer	Mixed
44.0	2	256.749	0.02	822.045	0.28	0.0	20.8425	4.0	70.0	0.52	Outcome2	-1.41	0.28	0.0	No		1.68915343915344				ShowChoice	Mixed
44.0	2	260.777	0.028	826.073	0.28	0.0	20.8425	1.0	70.0	0.52	Outcome2	-1.41	0.28	0.0	No		1.68915343915344				ShowResult	Mixed
44.0	2	261.797	0.02	827.093	0.28	0.0	20.8425	2.42	70.0	0.52	Outcome2	-1.41	0.28	0.0	No		1.68915343915344				ISITrial	Mixed
45.0	2	264.238	0.021	829.534	-0.86	-0.86	20.735	3.0	70.0	2.0	Certain	-1.72	10.9	0.0	No	4.0	-12.6167800453515	1.219	265.457		GetAnswer	Loss
45.0	2	265.475	0.018	830.771	-0.86	-0.86	20.735	4.0	70.0	2.0	Certain	-1.72	10.9	0.0	No		-12.6167800453515				ShowChoice	Loss
45.0	2	269.487	0.012	834.783	-0.86	-0.86	20.735	1.0	70.0	2.0	Certain	-1.72	10.9	0.0	No		-12.6167800453515				ShowResult	Loss
45.0	2	270.506	0.019	835.802	-0.86	-0.86	20.735	3.144	70.0	2.0	Certain	-1.72	10.9	0.0	No		-12.6167800453515				ISITrial	Loss
46.0	2	273.666	0.016	838.962	-8.2	-2.0	19.71	3.0	70.0	1.82	Outcome1	-8.2	4.7	3841.25	Yes	2.0	-12.9002267573696	0.851	274.517		GetAnswer	Gain
46.0	2	274.535	0.018	839.831	-8.2	-2.0	19.71	4.0	70.0	1.82	Outcome1	-8.2	4.7	3841.25	Yes		-12.9002267573696				ShowChoice	Gain
46.0	2	278.547	0.012	843.843	-8.2	-2.0	19.71	1.0	70.0	1.82	Outcome1	-8.2	4.7	3841.25	Yes		-12.9002267573696				ShowResult	Gain
46.0	2	279.567	0.02	844.863	-8.2	-2.0	19.71	2.246	70.0	1.82	Outcome1	-8.2	4.7	3841.25	Yes		-12.9002267573696				ISITrial	Gain
46.0	2	285.702	0.021	850.998	-8.2	-2.0	19.71	1.98	70.0	1.82	Outcome1	-8.2	4.7	3841.25	Yes		-12.9002267573696			120.0	TrialHappiness	Gain
46.0	2	289.714	4.012	855.01	-8.2	-2.0	19.71	7.365	70.0	1.82	Outcome1	-8.2	4.7	3841.25	Yes		-12.9002267573696				ISIRate	Gain
47.0	2	297.102	0.023	862.398	0.0	0.0	19.71	3.0	70.0	1.2	Certain	-0.47	0.48	0.0	No	4.0	0.9474678760393042	1.005	298.107		GetAnswer	Mixed
47.0	2	298.122	0.015	863.418	0.0	0.0	19.71	4.0	70.0	1.2	Certain	-0.47	0.48	0.0	No		0.9474678760393042				ShowChoice	Mixed
47.0	2	302.134	0.012	867.43	0.0	0.0	19.71	1.0	70.0	1.2	Certain	-0.47	0.48	0.0	No		0.9474678760393042				ShowResult	Mixed
47.0	2	303.154	0.02	868.45	0.0	0.0	19.71	2.0	70.0	1.2	Certain	-0.47	0.48	0.0	No		0.9474678760393042				ISITrial	Mixed
48.0	2	305.177	0.023	870.473	0.0	0.0	19.71	3.0	70.0	1.5	Certain	-0.43	0.52	2831.75	Yes	4.0	0.952191987906273	0.93	306.107		GetAnswer	Mixed
48.0	2	306.129	0.022	871.425	0.0	0.0	19.71	4.0	70.0	1.5	Certain	-0.43	0.52	2831.75	Yes		0.952191987906273				ShowChoice	Mixed
48.0	2	310.141	0.012	875.437	0.0	0.0	19.71	1.0	70.0	1.5	Certain	-0.43	0.52	2831.75	Yes		0.952191987906273				ShowResult	Mixed
48.0	2	311.161	0.02	876.457	0.0	0.0	19.71	3.692	70.0	1.5	Certain	-0.43	0.52	2831.75	Yes		0.952191987906273				ISITrial	Mixed
48.0	2	317.731	0.027	883.027	0.0	0.0	19.71	2.029	70.0	1.5	Certain	-0.43	0.52	2831.75	Yes		0.952191987906273			112.0	TrialHappiness	Mixed
48.0	2	321.759	4.028	887.055	0.0	0.0	19.71	3.327	70.0	1.5	Certain	-0.43	0.52	2831.75	Yes		0.952191987906273				ISIRate	Mixed
49.0	2	325.119	0.033	890.415	0.0	0.0	19.71	3.0	70.0	1.0	Certain	-1.0	-0.08	0.0	No	4.0	0.924414210128496	1.055	326.174		GetAnswer	Mixed
49.0	2	326.189	0.015	891.485	0.0	0.0	19.71	4.0	70.0	1.0	Certain	-1.0	-0.08	0.0	No		0.924414210128496				ShowChoice	Mixed
49.0	2	330.218	0.029	895.514	0.0	0.0	19.71	1.0	70.0	1.0	Certain	-1.0	-0.08	0.0	No		0.924414210128496				ShowResult	Mixed
49.0	2	331.238	0.02	896.534	0.0	0.0	19.71	8.0	70.0	1.0	Certain	-1.0	-0.08	0.0	No		0.924414210128496				ISITrial	Mixed
50.0	2	339.262	0.024	904.558	3.09	1.54	20.0963	3.0	70.0	2.0	Outcome1	3.09	12.9	3547.25	Yes	2.0	-9.80725623582766	1.111	340.373		GetAnswer	Loss
50.0	2	340.398	0.025	905.694	3.09	1.54	20.0963	4.0	70.0	2.0	Outcome1	3.09	12.9	3547.25	Yes		-9.80725623582766				ShowChoice	Loss
50.0	2	344.41	0.012	909.706	3.09	1.54	20.0963	1.0	70.0	2.0	Outcome1	3.09	12.9	3547.25	Yes		-9.80725623582766				ShowResult	Loss
50.0	2	345.43	0.02	910.726	3.09	1.54	20.0963	7.537	70.0	2.0	Outcome1	3.09	12.9	3547.25	Yes		-9.80725623582766				ISITrial	Loss
50.0	2	356.563	0.03	921.859	3.09	1.54	20.0963	3.869	70.0	2.0	Outcome1	3.09	12.9	3547.25	Yes		-9.80725623582766			160.0	TrialHappiness	Loss
50.0	2	360.575	4.012	925.871	3.09	1.54	20.0963	6.189	70.0	2.0	Outcome1	3.09	12.9	3547.25	Yes		-9.80725623582766				ISIRate	Loss
51.0	2	366.794	0.03	932.09	1.23	0.62	20.2501	3.0	70.0	3.6	Outcome1	1.23	11.9	0.0	No	2.0	-10.671201814059	1.808	368.602		GetAnswer	Loss
51.0	2	368.616	0.014	933.912	1.23	0.62	20.2501	4.0	70.0	3.6	Outcome1	1.23	11.9	0.0	No		-10.671201814059				ShowChoice	Loss
51.0	2	372.628	0.012	937.924	1.23	0.62	20.2501	1.0	70.0	3.6	Outcome1	1.23	11.9	0.0	No		-10.671201814059				ShowResult	Loss
51.0	2	373.648	0.02	938.944	1.23	0.62	20.2501	5.508	70.0	3.6	Outcome1	1.23	11.9	0.0	No		-10.671201814059				ISITrial	Loss
52.0	2	379.181	0.025	944.477	-1.0	-1.0	20.1251	3.0	70.0	0.2	Certain	-1.52	-0.38	0.0	No	4.0	1.13586545729403	1.047	380.228		GetAnswer	Mixed
52.0	2	380.251	0.023	945.547	-1.0	-1.0	20.1251	4.0	70.0	0.2	Certain	-1.52	-0.38	0.0	No		1.13586545729403				ShowChoice	Mixed
52.0	2	384.263	0.012	949.559	-1.0	-1.0	20.1251	1.0	70.0	0.2	Certain	-1.52	-0.38	0.0	No		1.13586545729403				ShowResult	Mixed
52.0	2	385.282	0.019	950.578	-1.0	-1.0	20.1251	5.913	70.0	0.2	Certain	-1.52	-0.38	0.0	No		1.13586545729403				ISITrial	Mixed
53.0	2	391.217	0.022	956.513	-1.0	-1.0	20.0001	3.0	70.0	1.2	Certain	-6.98	3.9	2996.75	Yes	4.0	-10.875283446712	1.282	392.499		GetAnswer	Mixed
53.0	2	392.521	0.022	957.817	-1.0	-1.0	20.0001	4.0	70.0	1.2	Certain	-6.98	3.9	2996.75	Yes		-10.875283446712				ShowChoice	Mixed
53.0	2	396.533	0.012	961.829	-1.0	-1.0	20.0001	1.0	70.0	1.2	Certain	-6.98	3.9	2996.75	Yes		-10.875283446712				ShowResult	Mixed
53.0	2	397.552	0.019	962.848	-1.0	-1.0	20.0001	3.66	70.0	1.2	Certain	-6.98	3.9	2996.75	Yes		-10.875283446712				ISITrial	Mixed
53.0	2	404.256	0.029	969.552	-1.0	-1.0	20.0001	1.946	70.0	1.2	Certain	-6.98	3.9	2996.75	Yes		-10.875283446712			152.0	TrialHappiness	Mixed
53.0	2	408.268	4.012	973.564	-1.0	-1.0	20.0001	3.987	70.0	1.2	Certain	-6.98	3.9	2996.75	Yes		-10.875283446712				ISIRate	Mixed
54.0	2	412.28	0.025	977.576	2.22	1.0	20.2776	3.0	70.0	2.0	Outcome2	1.1	2.22	0.0	No	2.0	1.1203703703703702	0.964	413.244		GetAnswer	Gain
54.0	2	413.266	0.022	978.562	2.22	1.0	20.2776	4.0	70.0	2.0	Outcome2	1.1	2.22	0.0	No		1.1203703703703702				ShowChoice	Gain
54.0	2	417.278	0.012	982.574	2.22	1.0	20.2776	1.0	70.0	2.0	Outcome2	1.1	2.22	0.0	No		1.1203703703703702				ShowResult	Gain
54.0	2	418.298	0.02	983.594	2.22	1.0	20.2776	8.0	70.0	2.0	Outcome2	1.1	2.22	0.0	No		1.1203703703703702				ISITrial	Gain
	2	426.322	0.024	991.618				-0.001								4.0		58.949	485.271		Rest	
	2	485.298	0.027	1050.594				4.0													BlockHappyPreview	
	2	489.31	0.012	1054.606				2.163												336.0	BlockStartHappiness	
	2	498.17	0.016	1063.466				-0.001								5.0		1.21	499.38		ScanWait	
	3	0.01	0.01	1064.686				10.0													GetReady	
55.0	3	10.04	0.03	1074.716	9.9	-0.31	21.5151	3.0	955.0	3.6	Outcome1	9.9	-0.62	2533.25	Yes	2.0	10.515288788222	1.382	11.422		GetAnswer	Gain
55.0	3	11.444	0.022	1076.12	9.9	-0.31	21.5151	4.0	955.0	3.6	Outcome1	9.9	-0.62	2533.25	Yes		10.515288788222				ShowChoice	Gain
55.0	3	15.456	0.012	1080.132	9.9	-0.31	21.5151	1.0	955.0	3.6	Outcome1	9.9	-0.62	2533.25	Yes		10.515288788222				ShowResult	Gain
55.0	3	16.476	0.02	1081.152	9.9	-0.31	21.5151	7.709	955.0	3.6	Outcome1	9.9	-0.62	2533.25	Yes		10.515288788222				ISITrial	Gain
55.0	3	26.756	0.024	1091.432	9.9	-0.31	21.5151	3.904	955.0	3.6	Outcome1	9.9	-0.62	2533.25	Yes	{-2}2{-2}2{-2}4{-4}	10.515288788222	3.904	30.66	656.0	TrialHappiness	Gain
55.0	3	30.768	4.012	1095.444	9.9	-0.31	21.5151	2.133	955.0	3.6	Outcome1	9.9	-0.62	2533.25	Yes		10.515288788222				ISIRate	Gain
56.0	3	32.925	0.024	1097.601	5.83	2.92	22.2439	3.0	955.0	2.22	Outcome2	7.1	5.83	0.0	No	2.0	-1.2718006795017	0.865	33.79		GetAnswer	Gain
56.0	3	33.811	0.021	1098.487	5.83	2.92	22.2439	4.0	955.0	2.22	Outcome2	7.1	5.83	0.0	No		-1.2718006795017				ShowChoice	Gain
56.0	3	37.823	0.012	1102.499	5.83	2.92	22.2439	1.0	955.0	2.22	Outcome2	7.1	5.83	0.0	No		-1.2718006795017				ShowResult	Gain
56.0	3	38.843	0.02	1103.519	5.83	2.92	22.2439	4.697	955.0	2.22	Outcome2	7.1	5.83	0.0	No		-1.2718006795017				ISITrial	Gain
57.0	3	43.557	0.017	1108.233	9.0	4.5	23.3689	3.0	955.0	5.0	Outcome2	10.3	9.0	0.0	No	2.0	-1.30001887504719	0.955	44.512		GetAnswer	Gain
57.0	3	44.526	0.014	1109.202	9.0	4.5	23.3689	4.0	955.0	5.0	Outcome2	10.3	9.0	0.0	No		-1.30001887504719				ShowChoice	Gain
57.0	3	48.538	0.012	1113.214	9.0	4.5	23.3689	1.0	955.0	5.0	Outcome2	10.3	9.0	0.0	No		-1.30001887504719				ShowResult	Gain
57.0	3	49.558	0.02	1114.234	9.0	4.5	23.3689	4.291	955.0	5.0	Outcome2	10.3	9.0	0.0	No		-1.30001887504719				ISITrial	Gain
58.0	3	53.871	0.022	1118.547	11.1	2.32	24.7564	3.0	955.0	2.22	Outcome1	11.1	4.64	3045.75	Yes	2.0	6.45753114382786	0.765	54.636		GetAnswer	Loss
58.0	3	54.656	0.02	1119.332	11.1	2.32	24.7564	4.0	955.0	2.22	Outcome1	11.1	4.64	3045.75	Yes		6.45753114382786				ShowChoice	Loss
58.0	3	58.668	0.012	1123.344	11.1	2.32	24.7564	1.0	955.0	2.22	Outcome1	11.1	4.64	3045.75	Yes		6.45753114382786				ShowResult	Loss
58.0	3	59.688	0.02	1124.364	11.1	2.32	24.7564	2.037	955.0	2.22	Outcome1	11.1	4.64	3045.75	Yes		6.45753114382786				ISITrial	Loss
58.0	3	64.82	0.03	1129.496	11.1	2.32	24.7564	2.481	955.0	2.22	Outcome1	11.1	4.64	3045.75	Yes		6.45753114382786			800.0	TrialHappiness	Loss
58.0	3	68.832	4.012	1133.508	11.1	2.32	24.7564	4.183	955.0	2.22	Outcome1	11.1	4.64	3045.75	Yes		6.45753114382786				ISIRate	Loss
59.0	3	73.045	0.03	1137.721	13.7	4.68	26.4689	3.0	955.0	3.16	Outcome1	13.7	9.35	0.0	No	2.0	4.34994337485844	0.868	73.913		GetAnswer	Loss
59.0	3	73.931	0.018	1138.607	13.7	4.68	26.4689	4.0	955.0	3.16	Outcome1	13.7	9.35	0.0	No		4.34994337485844				ShowChoice	Loss
59.0	3	77.943	0.012	1142.619	13.7	4.68	26.4689	1.0	955.0	3.16	Outcome1	13.7	9.35	0.0	No		4.34994337485844				ShowResult	Loss
59.0	3	78.962	0.019	1143.638	13.7	4.68	26.4689	5.064	955.0	3.16	Outcome1	13.7	9.35	0.0	No		4.34994337485844				ISITrial	Loss
60.0	3	84.044	0.018	1148.72	-1.0	-1.0	26.3439	3.0	955.0	0.3	Certain	-2.09	-1.3	3562.5	Yes	4.0	-0.7867119667799171	1.371	85.415		GetAnswer	Mixed
60.0	3	85.432	0.017	1150.108	-1.0	-1.0	26.3439	4.0	955.0	0.3	Certain	-2.09	-1.3	3562.5	Yes		-0.7867119667799171				ShowChoice	Mixed
60.0	3	89.46	0.028	1154.136	-1.0	-1.0	26.3439	1.0	955.0	0.3	Certain	-2.09	-1.3	3562.5	Yes		-0.7867119667799171				ShowResult	Mixed
60.0	3	90.48	0.02	1155.156	-1.0	-1.0	26.3439	8.0	955.0	0.3	Certain	-2.09	-1.3	3562.5	Yes		-0.7867119667799171				ISITrial	Mixed
60.0	3	102.098	0.032	1166.774	-1.0	-1.0	26.3439	2.422	955.0	0.3	Certain	-2.09	-1.3	3562.5	Yes		-0.7867119667799171			700.0	TrialHappiness	Mixed
60.0	3	106.127	4.029	1170.803	-1.0	-1.0	26.3439	6.25	955.0	0.3	Certain	-2.09	-1.3	3562.5	Yes		-0.7867119667799171				ISIRate	Mixed
61.0	3	112.396	0.019	1177.072	0.0	0.0	26.3439	3.0	955.0	0.4	Certain	0.9	-0.31	0.0	No	4.0	-1.20715364288411	1.455	113.851		GetAnswer	Mixed
61.0	3	113.867	0.016	1178.543	0.0	0.0	26.3439	4.0	955.0	0.4	Certain	0.9	-0.31	0.0	No		-1.20715364288411				ShowChoice	Mixed
61.0	3	117.879	0.012	1182.555	0.0	0.0	26.3439	1.0	955.0	0.4	Certain	0.9	-0.31	0.0	No		-1.20715364288411				ShowResult	Mixed
61.0	3	118.898	0.019	1183.574	0.0	0.0	26.3439	4.586	955.0	0.4	Certain	0.9	-0.31	0.0	No		-1.20715364288411				ISITrial	Mixed
62.0	3	123.512	0.028	1188.188	4.3	1.0	26.8814	3.0	955.0	2.0	Outcome1	4.3	-2.39	3748.75	Yes	2.0	6.6885617214043	1.014	124.526		GetAnswer	Mixed
62.0	3	124.548	0.022	1189.224	4.3	1.0	26.8814	4.0	955.0	2.0	Outcome1	4.3	-2.39	3748.75	Yes		6.6885617214043				ShowChoice	Mixed
62.0	3	128.56	0.012	1193.236	4.3	1.0	26.8814	1.0	955.0	2.0	Outcome1	4.3	-2.39	3748.75	Yes		6.6885617214043				ShowResult	Mixed
62.0	3	129.58	0.02	1194.256	4.3	1.0	26.8814	5.212	955.0	2.0	Outcome1	4.3	-2.39	3748.75	Yes		6.6885617214043				ISITrial	Mixed
62.0	3	138.59	0.029	1203.266	4.3	1.0	26.8814	3.986	955.0	2.0	Outcome1	4.3	-2.39	3748.75	Yes		6.6885617214043			792.0	TrialHappiness	Mixed
62.0	3	142.602	4.012	1207.278	4.3	1.0	26.8814	6.995	955.0	2.0	Outcome1	4.3	-2.39	3748.75	Yes		6.6885617214043				ISIRate	Mixed
63.0	3	149.623	0.026	1214.299	12.5	3.54	28.4439	3.0	955.0	1.68	Outcome1	12.5	7.09	0.0	No	2.0	5.41449603624009	0.764	150.387		GetAnswer	Loss
63.0	3	150.409	0.022	1215.085	12.5	3.54	28.4439	4.0	955.0	1.68	Outcome1	12.5	7.09	0.0	No		5.41449603624009				ShowChoice	Loss
63.0	3	154.421	0.012	1219.097	12.5	3.54	28.4439	1.0	955.0	1.68	Outcome1	12.5	7.09	0.0	No		5.41449603624009				ShowResult	Loss
63.0	3	155.441	0.02	1220.117	12.5	3.54	28.4439	5.595	955.0	1.68	Outcome1	12.5	7.09	0.0	No		5.41449603624009				ISITrial	Loss
64.0	3	161.057	0.021	1225.733	10.7	2.55	29.7814	3.0	955.0	1.82	Outcome2	5.1	10.7	0.0	No	2.0	5.5990939977349905	0.685	161.742		GetAnswer	Loss
64.0	3	161.76	0.018	1226.436	10.7	2.55	29.7814	4.0	955.0	1.82	Outcome2	5.1	10.7	0.0	No		5.5990939977349905				ShowChoice	Loss
64.0	3	165.772	0.012	1230.448	10.7	2.55	29.7814	1.0	955.0	1.82	Outcome2	5.1	10.7	0.0	No		5.5990939977349905				ShowResult	Loss
64.0	3	166.791	0.019	1231.467	10.7	2.55	29.7814	5.47	955.0	1.82	Outcome2	5.1	10.7	0.0	No		5.5990939977349905				ISITrial	Loss
65.0	3	172.291	0.03	1236.967	9.5	1.86	30.9689	3.0	955.0	2.8	Outcome1	9.5	3.72	2996.75	Yes	2.0	5.783691959229901	0.796	173.087		GetAnswer	Gain
65.0	3	173.11	0.023	1237.786	9.5	1.86	30.9689	4.0	955.0	2.8	Outcome1	9.5	3.72	2996.75	Yes		5.783691959229901				ShowChoice	Gain
65.0	3	177.122	0.012	1241.798	9.5	1.86	30.9689	1.0	955.0	2.8	Outcome1	9.5	3.72	2996.75	Yes		5.783691959229901				ShowResult	Gain
65.0	3	178.142	0.02	1242.818	9.5	1.86	30.9689	3.344	955.0	2.8	Outcome1	9.5	3.72	2996.75	Yes		5.783691959229901				ISITrial	Gain
65.0	3	184.528	0.029	1249.204	9.5	1.86	30.9689	3.701	955.0	2.8	Outcome1	9.5	3.72	2996.75	Yes		5.783691959229901			848.0	TrialHappiness	Gain
65.0	3	188.54	4.012	1253.216	9.5	1.86	30.9689	3.987	955.0	2.8	Outcome1	9.5	3.72	2996.75	Yes		5.783691959229901				ISIRate	Gain
66.0	3	192.552	0.025	1257.228	3.0	1.5	31.3439	3.0	955.0	1.0	Outcome1	3.0	3.7	0.0	No	2.0	-0.700830502076255	0.846	193.398		GetAnswer	Mixed
66.0	3	193.421	0.023	1258.097	3.0	1.5	31.3439	4.0	955.0	1.0	Outcome1	3.0	3.7	0.0	No		-0.700830502076255				ShowChoice	Mixed
66.0	3	197.433	0.012	1262.109	3.0	1.5	31.3439	1.0	955.0	1.0	Outcome1	3.0	3.7	0.0	No		-0.700830502076255				ShowResult	Mixed
66.0	3	198.453	0.02	1263.129	3.0	1.5	31.3439	3.959	955.0	1.0	Outcome1	3.0	3.7	0.0	No		-0.700830502076255				ISITrial	Mixed
67.0	3	202.431	0.019	1267.107	12.3	3.58	32.8814	3.0	955.0	5.0	Outcome1	12.3	7.16	2918.5	Yes	2.0	5.138165345413361	0.689	203.12		GetAnswer	Loss
67.0	3	203.133	0.013	1267.809	12.3	3.58	32.8814	4.0	955.0	5.0	Outcome1	12.3	7.16	2918.5	Yes		5.138165345413361				ShowChoice	Loss
67.0	3	207.145	0.012	1271.821	12.3	3.58	32.8814	1.0	955.0	5.0	Outcome1	12.3	7.16	2918.5	Yes		5.138165345413361				ShowResult	Loss
67.0	3	208.165	0.02	1272.841	12.3	3.58	32.8814	4.199	955.0	5.0	Outcome1	12.3	7.16	2918.5	Yes		5.138165345413361				ISITrial	Loss
67.0	3	215.32	0.025	1279.996	12.3	3.58	32.8814	1.326	955.0	5.0	Outcome1	12.3	7.16	2918.5	Yes		5.138165345413361			840.0	TrialHappiness	Loss
67.0	3	219.348	4.028	1284.024	12.3	3.58	32.8814	3.674	955.0	5.0	Outcome1	12.3	7.16	2918.5	Yes		5.138165345413361				ISIRate	Loss
68.0	3	223.043	0.021	1287.719	8.1	1.35	33.8939	3.0	955.0	4.2	Outcome2	2.7	8.1	0.0	No	2.0	5.3952434881087195	0.704	223.747		GetAnswer	Gain
68.0	3	223.761	0.014	1288.437	8.1	1.35	33.8939	4.0	955.0	4.2	Outcome2	2.7	8.1	0.0	No		5.3952434881087195				ShowChoice	Gain
68.0	3	227.773	0.012	1292.449	8.1	1.35	33.8939	1.0	955.0	4.2	Outcome2	2.7	8.1	0.0	No		5.3952434881087195				ShowResult	Gain
68.0	3	228.793	0.02	1293.469	8.1	1.35	33.8939	2.185	955.0	4.2	Outcome2	2.7	8.1	0.0	No		5.3952434881087195				ISITrial	Gain
69.0	3	231.0	0.022	1295.676	6.9	0.68	34.7564	3.0	955.0	2.0	Outcome1	6.9	1.37	0.0	No	2.0	5.52548131370328	0.803	231.803		GetAnswer	Gain
69.0	3	231.819	0.016	1296.495	6.9	0.68	34.7564	4.0	955.0	2.0	Outcome1	6.9	1.37	0.0	No		5.52548131370328				ShowChoice	Gain
69.0	3	235.831	0.012	1300.507	6.9	0.68	34.7564	1.0	955.0	2.0	Outcome1	6.9	1.37	0.0	No		5.52548131370328				ShowResult	Gain
69.0	3	236.851	0.02	1301.527	6.9	0.68	34.7564	2.0	955.0	2.0	Outcome1	6.9	1.37	0.0	No		5.52548131370328				ISITrial	Gain
70.0	3	238.873	0.022	1303.549	4.5	1.0	35.3189	3.0	955.0	1.68	Outcome1	4.5	-1.16	3651.25	Yes	2.0	5.65571913929785	1.123	239.996		GetAnswer	Gain
70.0	3	240.01	0.014	1304.686	4.5	1.0	35.3189	4.0	955.0	1.68	Outcome1	4.5	-1.16	3651.25	Yes		5.65571913929785				ShowChoice	Gain
70.0	3	244.022	0.012	1308.698	4.5	1.0	35.3189	1.0	955.0	1.68	Outcome1	4.5	-1.16	3651.25	Yes		5.65571913929785				ShowResult	Gain
70.0	3	245.042	0.02	1309.718	4.5	1.0	35.3189	2.623	955.0	1.68	Outcome1	4.5	-1.16	3651.25	Yes		5.65571913929785				ISITrial	Gain
70.0	3	251.361	0.027	1316.037	4.5	1.0	35.3189	3.651	955.0	1.68	Outcome1	4.5	-1.16	3651.25	Yes		5.65571913929785			920.0	TrialHappiness	Gain
70.0	3	255.373	4.012	1320.049	4.5	1.0	35.3189	6.605	955.0	1.68	Outcome1	4.5	-1.16	3651.25	Yes		5.65571913929785				ISIRate	Gain
71.0	3	262.009	0.031	1326.685	2.3	0.0	35.6064	3.0	955.0	2.0	Outcome1	2.3	-2.13	0.0	No	2.0	4.4269535673839195	1.328	263.337		GetAnswer	Mixed
71.0	3	263.363	0.026	1328.039	2.3	0.0	35.6064	4.0	955.0	2.0	Outcome1	2.3	-2.13	0.0	No		4.4269535673839195				ShowChoice	Mixed
71.0	3	267.375	0.012	1332.051	2.3	0.0	35.6064	1.0	955.0	2.0	Outcome1	2.3	-2.13	0.0	No		4.4269535673839195				ShowResult	Mixed
71.0	3	268.395	0.02	1333.071	2.3	0.0	35.6064	5.499	955.0	2.0	Outcome1	2.3	-2.13	0.0	No		4.4269535673839195				ISITrial	Mixed
72.0	3	273.911	0.017	1338.587	13.44	6.72	37.2864	3.0	955.0	3.6	Outcome2	13.9	13.44	3080.5	Yes	2.0	-0.46470366175915395	0.716	274.627		GetAnswer	Loss
72.0	3	274.647	0.02	1339.323	13.44	6.72	37.2864	4.0	955.0	3.6	Outcome2	13.9	13.44	3080.5	Yes		-0.46470366175915395				ShowChoice	Loss
72.0	3	278.659	0.012	1343.335	13.44	6.72	37.2864	1.0	955.0	3.6	Outcome2	13.9	13.44	3080.5	Yes		-0.46470366175915395				ShowResult	Loss
72.0	3	279.678	0.019	1344.354	13.44	6.72	37.2864	5.672	955.0	3.6	Outcome2	13.9	13.44	3080.5	Yes		-0.46470366175915395				ISITrial	Loss
72.0	3	288.471	0.029	1353.147	13.44	6.72	37.2864	2.481	955.0	3.6	Outcome2	13.9	13.44	3080.5	Yes		-0.46470366175915395			928.0	TrialHappiness	Loss
72.0	3	292.483	4.012	1357.159	13.44	6.72	37.2864	4.322	955.0	3.6	Outcome2	13.9	13.44	3080.5	Yes		-0.46470366175915395				ISIRate	Loss
73.0	3	296.83	0.025	1361.506	12.7	4.16	38.8739	3.0	955.0	1.82	Outcome1	12.7	8.33	0.0	No	2.0	4.37032842582107	0.757	297.587		GetAnswer	Loss
73.0	3	297.599	0.012	1362.275	12.7	4.16	38.8739	4.0	955.0	1.82	Outcome1	12.7	8.33	0.0	No		4.37032842582107				ShowChoice	Loss
73.0	3	301.611	0.012	1366.287	12.7	4.16	38.8739	1.0	955.0	1.82	Outcome1	12.7	8.33	0.0	No		4.37032842582107				ShowResult	Loss
73.0	3	302.63	0.019	1367.306	12.7	4.16	38.8739	4.616	955.0	1.82	Outcome1	12.7	8.33	0.0	No		4.37032842582107				ISITrial	Loss
74.0	3	307.278	0.032	1371.954	4.1	2.0	39.3864	3.0	955.0	1.5	Outcome1	4.1	-0.3	3056.25	Yes	2.0	4.4009060022650095	0.74	308.018		GetAnswer	Mixed
74.0	3	308.03	0.011	1372.706	4.1	2.0	39.3864	4.0	955.0	1.5	Outcome1	4.1	-0.3	3056.25	Yes		4.4009060022650095				ShowChoice	Mixed
74.0	3	312.042	0.012	1376.718	4.1	2.0	39.3864	1.0	955.0	1.5	Outcome1	4.1	-0.3	3056.25	Yes		4.4009060022650095				ShowResult	Mixed
74.0	3	313.061	0.019	1377.737	4.1	2.0	39.3864	3.909	955.0	1.5	Outcome1	4.1	-0.3	3056.25	Yes		4.4009060022650095				ISITrial	Mixed
74.0	3	320.066	0.02	1384.742	4.1	2.0	39.3864	3.84	955.0	1.5	Outcome1	4.1	-0.3	3056.25	Yes		4.4009060022650095			932.0	TrialHappiness	Mixed
74.0	3	324.094	4.028	1388.77	4.1	2.0	39.3864	4.225	955.0	1.5	Outcome1	4.1	-0.3	3056.25	Yes		4.4009060022650095				ISIRate	Mixed
75.0	3	328.34	0.021	1393.016	7.9	1.77	40.3739	3.0	955.0	3.6	Outcome1	7.9	3.54	0.0	No	2.0	4.36353340883352	0.676	329.016		GetAnswer	Gain
75.0	3	329.043	0.027	1393.719	7.9	1.77	40.3739	4.0	955.0	3.6	Outcome1	7.9	3.54	0.0	No		4.36353340883352				ShowChoice	Gain
75.0	3	333.055	0.012	1397.731	7.9	1.77	40.3739	1.0	955.0	3.6	Outcome1	7.9	3.54	0.0	No		4.36353340883352				ShowResult	Gain
75.0	3	334.074	0.019	1398.75	7.9	1.77	40.3739	4.979	955.0	3.6	Outcome1	7.9	3.54	0.0	No		4.36353340883352				ISITrial	Gain
76.0	3	339.072	0.019	1403.748	-3.0	-3.0	39.9989	3.0	955.0	0.66	Certain	-5.09	-0.7	0.0	No	4.0	4.38958097395243	1.748	340.82		GetAnswer	Mixed
76.0	3	340.844	0.024	1405.52	-3.0	-3.0	39.9989	4.0	955.0	0.66	Certain	-5.09	-0.7	0.0	No		4.38958097395243				ShowChoice	Mixed
76.0	3	344.856	0.012	1409.532	-3.0	-3.0	39.9989	1.0	955.0	0.66	Certain	-5.09	-0.7	0.0	No		4.38958097395243				ShowResult	Mixed
76.0	3	345.876	0.02	1410.552	-3.0	-3.0	39.9989	3.931	955.0	0.66	Certain	-5.09	-0.7	0.0	No		4.38958097395243				ISITrial	Mixed
77.0	3	349.838	0.031	1414.514	3.5	1.0	40.4364	3.0	955.0	0.82	Outcome2	-0.92	3.5	4000.0	Yes	2.0	4.415628539071349	1.271	351.109		GetAnswer	Mixed
77.0	3	351.125	0.016	1415.801	3.5	1.0	40.4364	4.0	955.0	0.82	Outcome2	-0.92	3.5	4000.0	Yes		4.415628539071349				ShowChoice	Mixed
77.0	3	355.137	0.012	1419.813	3.5	1.0	40.4364	1.0	955.0	0.82	Outcome2	-0.92	3.5	4000.0	Yes		4.415628539071349				ShowResult	Mixed
77.0	3	356.157	0.02	1420.833	3.5	1.0	40.4364	7.022	955.0	0.82	Outcome2	-0.92	3.5	4000.0	Yes		4.415628539071349				ISITrial	Mixed
77.0	3	367.223	0.028	1431.899	3.5	1.0	40.4364	1.561	955.0	0.82	Outcome2	-0.92	3.5	4000.0	Yes	{-2}2{-2}	4.415628539071349	1.561	368.784	952.0	TrialHappiness	Mixed
77.0	3	371.235	4.012	1435.911	3.5	1.0	40.4364	8.0	955.0	0.82	Outcome2	-0.92	3.5	4000.0	Yes		4.415628539071349				ISIRate	Mixed
78.0	3	379.259	0.024	1443.935	2.5	0.0	40.7489	3.0	955.0	0.2	Outcome2	-1.6	2.5	0.0	No	2.0	4.10192525481314	1.168	380.427		GetAnswer	Mixed
78.0	3	380.446	0.019	1445.122	2.5	0.0	40.7489	4.0	955.0	0.2	Outcome2	-1.6	2.5	0.0	No		4.10192525481314				ShowChoice	Mixed
78.0	3	384.458	0.012	1449.134	2.5	0.0	40.7489	1.0	955.0	0.2	Outcome2	-1.6	2.5	0.0	No		4.10192525481314				ShowResult	Mixed
78.0	3	385.478	0.02	1450.154	2.5	0.0	40.7489	2.078	955.0	0.2	Outcome2	-1.6	2.5	0.0	No		4.10192525481314				ISITrial	Mixed
79.0	3	387.584	0.028	1452.26	3.5	1.0	41.1864	3.0	955.0	0.82	Outcome1	3.5	-0.61	2729.5	Yes	2.0	4.10532276330691	1.056	388.64		GetAnswer	Mixed
79.0	3	388.654	0.014	1453.33	3.5	1.0	41.1864	4.0	955.0	0.82	Outcome1	3.5	-0.61	2729.5	Yes		4.10532276330691				ShowChoice	Mixed
79.0	3	392.666	0.012	1457.342	3.5	1.0	41.1864	1.0	955.0	0.82	Outcome1	3.5	-0.61	2729.5	Yes		4.10532276330691				ShowResult	Mixed
79.0	3	393.686	0.02	1458.362	3.5	1.0	41.1864	3.829	955.0	0.82	Outcome1	3.5	-0.61	2729.5	Yes		4.10532276330691				ISITrial	Mixed
79.0	3	400.289	0.029	1464.965	3.5	1.0	41.1864	3.265	955.0	0.82	Outcome1	3.5	-0.61	2729.5	Yes	2{-2}2{-2}4{-4}2{-2}	4.10532276330691	3.265	403.554	952.0	TrialHappiness	Mixed
79.0	3	404.301	4.012	1468.977	3.5	1.0	41.1864	2.918	955.0	0.82	Outcome1	3.5	-0.61	2729.5	Yes		4.10532276330691				ISIRate	Mixed
80.0	3	407.243	0.024	1471.919	3.95	1.98	41.6802	3.0	955.0	2.0	Outcome1	3.95	4.3	0.0	No	2.0	-0.35032087580219	0.746	407.989		GetAnswer	Mixed
80.0	3	408.012	0.023	1472.688	3.95	1.98	41.6802	4.0	955.0	2.0	Outcome1	3.95	4.3	0.0	No		-0.35032087580219				ShowChoice	Mixed
80.0	3	412.024	0.012	1476.7	3.95	1.98	41.6802	1.0	955.0	2.0	Outcome1	3.95	4.3	0.0	No		-0.35032087580219				ShowResult	Mixed
80.0	3	413.043	0.019	1477.719	3.95	1.98	41.6802	3.336	955.0	2.0	Outcome1	3.95	4.3	0.0	No		-0.35032087580219				ISITrial	Mixed
81.0	3	416.403	0.024	1481.079	3.55	1.78	42.123999999999995	3.0	955.0	1.2	Outcome1	3.55	3.9	3923.75	Yes	2.0	-0.3506040015100039	0.859	417.262		GetAnswer	Mixed
81.0	3	417.273	0.011	1481.949	3.55	1.78	42.123999999999995	4.0	955.0	1.2	Outcome1	3.55	3.9	3923.75	Yes		-0.3506040015100039				ShowChoice	Mixed
81.0	3	421.301	0.028	1485.977	3.55	1.78	42.123999999999995	1.0	955.0	1.2	Outcome1	3.55	3.9	3923.75	Yes		-0.3506040015100039				ShowResult	Mixed
81.0	3	422.321	0.02	1486.997	3.55	1.78	42.123999999999995	3.919	955.0	1.2	Outcome1	3.55	3.9	3923.75	Yes		-0.3506040015100039				ISITrial	Mixed
81.0	3	430.211	0.021	1494.887	3.55	1.78	42.123999999999995	2.58	955.0	1.2	Outcome1	3.55	3.9	3923.75	Yes		-0.3506040015100039			952.0	TrialHappiness	Mixed
81.0	3	434.223	4.012	1498.899	3.55	1.78	42.123999999999995	7.695	955.0	1.2	Outcome1	3.55	3.9	3923.75	Yes		-0.3506040015100039				ISIRate	Mixed
	3	441.946	0.028	1506.622				3.0													CurrentEarnings	
	3	444.972	0.026	1509.648				-0.001								{SPACE}		3.582	448.554		Goodbye	
