trial_number	block	onset	onset_delay	onset_unadjusted	amount_change	certain_amount	current_amount	duration	mood_target	multiplier	outcome	outcome1_amount	outcome2_amount	question_duration	rating	response	rpe	rt	rt_time	slider_response	trial_phase	trial_type
	0	-43.299	0.019	21.381				-0.001								{SPACE}		3.566	-39.733		Welcome	
	0	-39.702	0.031	24.978				5.0													LifeHappyPreview	
	0	-34.67	0.032	30.01				2.464												896.0	LifeHappiness	
	0	-15.83	0.015	48.85				4.0													BlockHappyPreview	
	0	-11.818	0.012	52.862				1.71								2{-2}2{-2}		1.71	-10.108	712.0	BlockStartHappiness	
	0	-5.616	0.022	59.064				-0.001								5.0					ScanWait	
	1	0.017	0.017	64.697				10.0													GetReady	
1.0	1	10.047	0.03	74.727	9.9	2.88	11.2375	3.0	955.0	3.6	Outcome1	9.9	5.77	0.0	No	2.0	4.127972819932049	1.51	11.557		GetAnswer	Gain
1.0	1	11.585	0.028	76.265	9.9	2.88	11.2375	4.0	955.0	3.6	Outcome1	9.9	5.77	0.0	No		4.127972819932049				ShowChoice	Gain
1.0	1	15.614	0.029	80.294	9.9	2.88	11.2375	1.0	955.0	3.6	Outcome1	9.9	5.77	0.0	No		4.127972819932049				ShowResult	Gain
1.0	1	16.633	0.019	81.313	9.9	2.88	11.2375	2.431	955.0	3.6	Outcome1	9.9	5.77	0.0	No		4.127972819932049				ISITrial	Gain
2.0	1	19.091	0.027	83.771	-3.0	-3.0	10.8625	3.0	955.0	0.52	Certain	-5.3	-0.9	0.0	No	4.0	4.4031710079275195	2.312	21.403		GetAnswer	Mixed
2.0	1	21.431	0.028	86.111	-3.0	-3.0	10.8625	4.0	955.0	0.52	Certain	-5.3	-0.9	0.0	No		4.4031710079275195				ShowChoice	Mixed
2.0	1	25.46	0.029	90.14	-3.0	-3.0	10.8625	1.0	955.0	0.52	Certain	-5.3	-0.9	0.0	No		4.4031710079275195				ShowResult	Mixed
2.0	1	26.48	0.02	91.16	-3.0	-3.0	10.8625	4.568	955.0	0.52	Certain	-5.3	-0.9	0.0	No		4.4031710079275195				ISITrial	Mixed
3.0	1	31.077	0.029	95.757	5.27	2.64	11.5213	3.0	955.0	5.0	Outcome1	5.27	6.3	2868.0	Yes	2.0	-1.03199320498301	1.296	32.373		GetAnswer	Gain
3.0	1	32.397	0.024	97.077	5.27	2.64	11.5213	4.0	955.0	5.0	Outcome1	5.27	6.3	2868.0	Yes		-1.03199320498301				ShowChoice	Gain
3.0	1	36.409	0.012	101.089	5.27	2.64	11.5213	1.0	955.0	5.0	Outcome1	5.27	6.3	2868.0	Yes		-1.03199320498301				ShowResult	Gain
3.0	1	37.429	0.02	102.109	5.27	2.64	11.5213	3.243	955.0	5.0	Outcome1	5.27	6.3	2868.0	Yes		-1.03199320498301				ISITrial	Gain
3.0	1	43.581	0.024	108.261	5.27	2.64	11.5213	2.649	955.0	5.0	Outcome1	5.27	6.3	2868.0	Yes		-1.03199320498301			736.0	TrialHappiness	Gain
3.0	1	47.609	4.028	112.289	5.27	2.64	11.5213	3.472	955.0	5.0	Outcome1	5.27	6.3	2868.0	Yes		-1.03199320498301				ISIRate	Gain
4.0	1	51.103	0.022	115.783	5.54	2.77	12.2138	3.0	955.0	1.68	Outcome1	5.54	6.5	0.0	No	2.0	-0.9575311438278601	1.127	52.23		GetAnswer	Gain
4.0	1	52.257	0.027	116.937	5.54	2.77	12.2138	4.0	955.0	1.68	Outcome1	5.54	6.5	0.0	No		-0.9575311438278601				ShowChoice	Gain
4.0	1	56.285	0.028	120.965	5.54	2.77	12.2138	1.0	955.0	1.68	Outcome1	5.54	6.5	0.0	No		-0.9575311438278601				ShowResult	Gain
4.0	1	57.305	0.02	121.985	5.54	2.77	12.2138	2.011	955.0	1.68	Outcome1	5.54	6.5	0.0	No		-0.9575311438278601				ISITrial	Gain
5.0	1	59.344	0.028	124.024	10.12	5.06	13.4788	3.0	955.0	2.22	Outcome2	11.1	10.12	2582.5	Yes	2.0	-0.9781993204983009	1.131	60.475		GetAnswer	Loss
5.0	1	60.498	0.023	125.178	10.12	5.06	13.4788	4.0	955.0	2.22	Outcome2	11.1	10.12	2582.5	Yes		-0.9781993204983009				ShowChoice	Loss
5.0	1	64.527	0.029	129.207	10.12	5.06	13.4788	1.0	955.0	2.22	Outcome2	11.1	10.12	2582.5	Yes		-0.9781993204983009				ShowResult	Loss
5.0	1	65.546	0.019	130.226	10.12	5.06	13.4788	5.129	955.0	2.22	Outcome2	11.1	10.12	2582.5	Yes		-0.9781993204983009				ISITrial	Loss
5.0	1	73.303	0.026	137.983	10.12	5.06	13.4788	1.863	955.0	2.22	Outcome2	11.1	10.12	2582.5	Yes		-0.9781993204983009			752.0	TrialHappiness	Loss
5.0	1	77.315	4.012	141.995	10.12	5.06	13.4788	2.33	955.0	2.22	Outcome2	11.1	10.12	2582.5	Yes		-0.9781993204983009				ISIRate	Loss
6.0	1	79.672	0.027	144.352	1.0	1.0	13.6038	3.0	955.0	1.0	Certain	-1.07	3.7	0.0	No	4.0	4.77010192525481	1.47	81.142		GetAnswer	Mixed
6.0	1	81.16	0.018	145.84	1.0	1.0	13.6038	4.0	955.0	1.0	Certain	-1.07	3.7	0.0	No		4.77010192525481				ShowChoice	Mixed
6.0	1	85.172	0.012	149.852	1.0	1.0	13.6038	1.0	955.0	1.0	Certain	-1.07	3.7	0.0	No		4.77010192525481				ShowResult	Mixed
6.0	1	86.191	0.019	150.871	1.0	1.0	13.6038	6.232	955.0	1.0	Certain	-1.07	3.7	0.0	No		4.77010192525481				ISITrial	Mixed
7.0	1	92.443	0.02	157.123	1.55	2.0	13.7976	3.0	955.0	0.2	Outcome2	2.5	1.55	0.0	No	2.0	-0.953095507738769	1.208	93.651		GetAnswer	Mixed
7.0	1	93.664	0.013	158.344	1.55	2.0	13.7976	4.0	955.0	0.2	Outcome2	2.5	1.55	0.0	No		-0.953095507738769				ShowChoice	Mixed
7.0	1	97.676	0.012	162.356	1.55	2.0	13.7976	1.0	955.0	0.2	Outcome2	2.5	1.55	0.0	No		-0.953095507738769				ShowResult	Mixed
7.0	1	98.695	0.019	163.375	1.55	2.0	13.7976	2.305	955.0	0.2	Outcome2	2.5	1.55	0.0	No		-0.953095507738769				ISITrial	Mixed
8.0	1	101.019	0.019	165.699	-1.3	-4.0	13.6351	3.0	955.0	0.3	Outcome2	-6.53	-1.3	3112.5	Yes	2.0	5.22989807474519	1.773	102.792		GetAnswer	Mixed
8.0	1	102.808	0.016	167.488	-1.3	-4.0	13.6351	4.0	955.0	0.3	Outcome2	-6.53	-1.3	3112.5	Yes		5.22989807474519				ShowChoice	Mixed
8.0	1	106.82	0.012	171.5	-1.3	-4.0	13.6351	1.0	955.0	0.3	Outcome2	-6.53	-1.3	3112.5	Yes		5.22989807474519				ShowResult	Mixed
8.0	1	107.839	0.019	172.519	-1.3	-4.0	13.6351	3.506	955.0	0.3	Outcome2	-6.53	-1.3	3112.5	Yes		5.22989807474519				ISITrial	Mixed
8.0	1	114.509	0.03	179.189	-1.3	-4.0	13.6351	1.093	955.0	0.3	Outcome2	-6.53	-1.3	3112.5	Yes		5.22989807474519			776.0	TrialHappiness	Mixed
8.0	1	118.521	4.012	183.201	-1.3	-4.0	13.6351	4.45	955.0	0.3	Outcome2	-6.53	-1.3	3112.5	Yes		5.22989807474519				ISIRate	Mixed
9.0	1	123.001	0.03	187.681	4.81	2.4	14.2364	3.0	955.0	3.16	Outcome1	4.81	5.7	0.0	No	2.0	-0.8940166100415251	1.152	124.153		GetAnswer	Gain
9.0	1	124.172	0.019	188.852	4.81	2.4	14.2364	4.0	955.0	3.16	Outcome1	4.81	5.7	0.0	No		-0.8940166100415251				ShowChoice	Gain
9.0	1	128.184	0.012	192.864	4.81	2.4	14.2364	1.0	955.0	3.16	Outcome1	4.81	5.7	0.0	No		-0.8940166100415251				ShowResult	Gain
9.0	1	129.203	0.019	193.883	4.81	2.4	14.2364	2.0	955.0	3.16	Outcome1	4.81	5.7	0.0	No		-0.8940166100415251				ISITrial	Gain
10.0	1	131.226	0.023	195.906	8.59	4.3	15.3102	3.0	955.0	2.8	Outcome2	9.5	8.59	4000.0	Yes	2.0	-0.9109097772744431	0.868	132.094		GetAnswer	Gain
10.0	1	132.112	0.018	196.792	8.59	4.3	15.3102	4.0	955.0	2.8	Outcome2	9.5	8.59	4000.0	Yes		-0.9109097772744431				ShowChoice	Gain
10.0	1	136.124	0.012	200.804	8.59	4.3	15.3102	1.0	955.0	2.8	Outcome2	9.5	8.59	4000.0	Yes		-0.9109097772744431				ShowResult	Gain
10.0	1	137.144	0.02	201.824	8.59	4.3	15.3102	2.0	955.0	2.8	Outcome2	9.5	8.59	4000.0	Yes		-0.9109097772744431				ISITrial	Gain
10.0	1	143.195	0.029	207.875	8.59	4.3	15.3102	1.797	955.0	2.8	Outcome2	9.5	8.59	4000.0	Yes		-0.9109097772744431			760.0	TrialHappiness	Gain
10.0	1	147.207	4.012	211.887	8.59	4.3	15.3102	8.0	955.0	2.8	Outcome2	9.5	8.59	4000.0	Yes		-0.9109097772744431				ISIRate	Gain
11.0	1	155.231	0.024	219.911	8.3	1.28	16.3477	3.0	955.0	5.0	Outcome1	8.3	2.57	0.0	No	2.0	5.729331823329559	0.862	156.093		GetAnswer	Gain
11.0	1	156.117	0.024	220.797	8.3	1.28	16.3477	4.0	955.0	5.0	Outcome1	8.3	2.57	0.0	No		5.729331823329559				ShowChoice	Gain
11.0	1	160.129	0.012	224.809	8.3	1.28	16.3477	1.0	955.0	5.0	Outcome1	8.3	2.57	0.0	No		5.729331823329559				ShowResult	Gain
11.0	1	161.149	0.02	225.829	8.3	1.28	16.3477	3.324	955.0	5.0	Outcome1	8.3	2.57	0.0	No		5.729331823329559				ISITrial	Gain
12.0	1	164.492	0.019	229.172	0.89	1.0	16.4589	3.0	955.0	1.2	Outcome1	0.89	1.9	2618.75	Yes	2.0	-1.0111362778406898	1.313	165.805		GetAnswer	Mixed
12.0	1	165.83	0.025	230.51	0.89	1.0	16.4589	4.0	955.0	1.2	Outcome1	0.89	1.9	2618.75	Yes		-1.0111362778406898				ShowChoice	Mixed
12.0	1	169.842	0.012	234.522	0.89	1.0	16.4589	1.0	955.0	1.2	Outcome1	0.89	1.9	2618.75	Yes		-1.0111362778406898				ShowResult	Mixed
12.0	1	170.861	0.019	235.541	0.89	1.0	16.4589	6.642	955.0	1.2	Outcome1	0.89	1.9	2618.75	Yes		-1.0111362778406898				ISITrial	Mixed
12.0	1	180.156	0.023	244.836	0.89	1.0	16.4589	0.958	955.0	1.2	Outcome1	0.89	1.9	2618.75	Yes		-1.0111362778406898			744.0	TrialHappiness	Mixed
12.0	1	184.168	4.012	248.848	0.89	1.0	16.4589	2.475	955.0	1.2	Outcome1	0.89	1.9	2618.75	Yes		-1.0111362778406898				ISIRate	Mixed
13.0	1	186.658	0.015	251.338	-4.0	-4.0	15.9589	3.0	955.0	0.2	Certain	-7.94	-1.5	0.0	No	4.0	6.442808607021519	1.386	188.044		GetAnswer	Mixed
13.0	1	188.063	0.019	252.743	-4.0	-4.0	15.9589	4.0	955.0	0.2	Certain	-7.94	-1.5	0.0	No		6.442808607021519				ShowChoice	Mixed
13.0	1	192.075	0.012	256.755	-4.0	-4.0	15.9589	1.0	955.0	0.2	Certain	-7.94	-1.5	0.0	No		6.442808607021519				ShowResult	Mixed
13.0	1	193.094	0.019	257.774	-4.0	-4.0	15.9589	3.48	955.0	0.2	Certain	-7.94	-1.5	0.0	No		6.442808607021519				ISITrial	Mixed
14.0	1	196.605	0.031	261.285	0.5	-3.0	16.0214	3.0	955.0	0.2	Outcome1	0.5	-6.18	0.0	No	2.0	6.68176670441676	1.475	198.08		GetAnswer	Mixed
14.0	1	198.093	0.013	262.773	0.5	-3.0	16.0214	4.0	955.0	0.2	Outcome1	0.5	-6.18	0.0	No		6.68176670441676				ShowChoice	Mixed
14.0	1	202.105	0.012	266.785	0.5	-3.0	16.0214	1.0	955.0	0.2	Outcome1	0.5	-6.18	0.0	No		6.68176670441676				ShowResult	Mixed
14.0	1	203.124	0.019	267.804	0.5	-3.0	16.0214	5.019	955.0	0.2	Outcome1	0.5	-6.18	0.0	No		6.68176670441676				ISITrial	Mixed
15.0	1	208.173	0.03	272.853	-3.0	-3.0	15.6464	3.0	955.0	1.2	Certain	-7.02	-0.1	3348.5	Yes	4.0	6.9207248018120096	1.222	209.395		GetAnswer	Mixed
15.0	1	209.41	0.015	274.09	-3.0	-3.0	15.6464	4.0	955.0	1.2	Certain	-7.02	-0.1	3348.5	Yes		6.9207248018120096				ShowChoice	Mixed
15.0	1	213.422	0.012	278.102	-3.0	-3.0	15.6464	1.0	955.0	1.2	Certain	-7.02	-0.1	3348.5	Yes		6.9207248018120096				ShowResult	Mixed
15.0	1	214.442	0.02	279.122	-3.0	-3.0	15.6464	7.614	955.0	1.2	Certain	-7.02	-0.1	3348.5	Yes		6.9207248018120096				ISITrial	Mixed
15.0	1	225.458	0.029	290.138	-3.0	-3.0	15.6464	1.577	955.0	1.2	Certain	-7.02	-0.1	3348.5	Yes		6.9207248018120096			712.0	TrialHappiness	Mixed
15.0	1	229.47	4.012	294.15	-3.0	-3.0	15.6464	5.394	955.0	1.2	Certain	-7.02	-0.1	3348.5	Yes		6.9207248018120096				ISIRate	Mixed
16.0	1	234.886	0.022	299.566	1.02	1.0	15.7739	3.0	955.0	2.0	Outcome2	2.3	1.02	0.0	No	2.0	-1.28406946017365	0.914	235.8		GetAnswer	Mixed
16.0	1	235.822	0.022	300.502	1.02	1.0	15.7739	4.0	955.0	2.0	Outcome2	2.3	1.02	0.0	No		-1.28406946017365				ShowChoice	Mixed
16.0	1	239.834	0.012	304.514	1.02	1.0	15.7739	1.0	955.0	2.0	Outcome2	2.3	1.02	0.0	No		-1.28406946017365				ShowResult	Mixed
16.0	1	240.854	0.02	305.534	1.02	1.0	15.7739	3.008	955.0	2.0	Outcome2	2.3	1.02	0.0	No		-1.28406946017365				ISITrial	Mixed
17.0	1	243.88	0.018	308.56	-3.0	-3.0	15.3989	3.0	955.0	2.0	Certain	0.3	-7.68	3041.5	Yes	4.0	7.978482446206121	1.597	245.477		GetAnswer	Mixed
17.0	1	245.501	0.024	310.181	-3.0	-3.0	15.3989	4.0	955.0	2.0	Certain	0.3	-7.68	3041.5	Yes		7.978482446206121				ShowChoice	Mixed
17.0	1	249.513	0.012	314.193	-3.0	-3.0	15.3989	1.0	955.0	2.0	Certain	0.3	-7.68	3041.5	Yes		7.978482446206121				ShowResult	Mixed
17.0	1	250.533	0.02	315.213	-3.0	-3.0	15.3989	3.566	955.0	2.0	Certain	0.3	-7.68	3041.5	Yes		7.978482446206121				ISITrial	Mixed
17.0	1	257.169	0.017	321.849	-3.0	-3.0	15.3989	2.181	955.0	2.0	Certain	0.3	-7.68	3041.5	Yes	2{-2}2{-2}2{-2}2{-2}	7.978482446206121	2.181	259.35	700.0	TrialHappiness	Mixed
17.0	1	261.181	4.012	325.861	-3.0	-3.0	15.3989	4.166	955.0	2.0	Certain	0.3	-7.68	3041.5	Yes		7.978482446206121				ISIRate	Mixed
18.0	1	265.377	0.03	330.057	0.0	0.0	15.3989	3.0	955.0	1.82	Certain	4.7	-3.76	0.0	No	4.0	8.457531143827861	1.332	266.709		GetAnswer	Gain
18.0	1	266.731	0.022	331.411	0.0	0.0	15.3989	4.0	955.0	1.82	Certain	4.7	-3.76	0.0	No		8.457531143827861				ShowChoice	Gain
18.0	1	270.743	0.012	335.423	0.0	0.0	15.3989	1.0	955.0	1.82	Certain	4.7	-3.76	0.0	No		8.457531143827861				ShowResult	Gain
18.0	1	271.763	0.02	336.443	0.0	0.0	15.3989	6.787	955.0	1.82	Certain	4.7	-3.76	0.0	No		8.457531143827861				ISITrial	Gain
19.0	1	278.567	0.017	343.247	11.5	5.75	16.8364	3.0	955.0	2.0	Outcome2	12.9	11.5	0.0	No	2.0	-1.4026991317478301	1.0	279.567		GetAnswer	Loss
19.0	1	279.586	0.019	344.266	11.5	5.75	16.8364	4.0	955.0	2.0	Outcome2	12.9	11.5	0.0	No		-1.4026991317478301				ShowChoice	Loss
19.0	1	283.598	0.012	348.278	11.5	5.75	16.8364	1.0	955.0	2.0	Outcome2	12.9	11.5	0.0	No		-1.4026991317478301				ShowResult	Loss
19.0	1	284.618	0.02	349.298	11.5	5.75	16.8364	2.0	955.0	2.0	Outcome2	12.9	11.5	0.0	No		-1.4026991317478301				ISITrial	Loss
20.0	1	286.641	0.023	351.321	11.87	5.94	18.3202	3.0	955.0	2.48	Outcome2	13.3	11.87	2921.25	Yes	2.0	-1.4267648169120402	0.975	287.616		GetAnswer	Loss
20.0	1	287.644	0.028	352.324	11.87	5.94	18.3202	4.0	955.0	2.48	Outcome2	13.3	11.87	2921.25	Yes		-1.4267648169120402				ShowChoice	Loss
20.0	1	291.656	0.012	356.336	11.87	5.94	18.3202	1.0	955.0	2.48	Outcome2	13.3	11.87	2921.25	Yes		-1.4267648169120402				ShowResult	Loss
20.0	1	292.675	0.019	357.355	11.87	5.94	18.3202	8.0	955.0	2.48	Outcome2	13.3	11.87	2921.25	Yes		-1.4267648169120402				ISITrial	Loss
20.0	1	303.642	0.022	368.322	11.87	5.94	18.3202	1.612	955.0	2.48	Outcome2	13.3	11.87	2921.25	Yes		-1.4267648169120402			768.0	TrialHappiness	Loss
20.0	1	307.654	4.012	372.334	11.87	5.94	18.3202	3.685	955.0	2.48	Outcome2	13.3	11.87	2921.25	Yes		-1.4267648169120402				ISIRate	Loss
21.0	1	311.365	0.026	376.045	2.33	1.16	18.6114	3.0	955.0	0.82	Outcome1	2.33	3.5	0.0	No	2.0	-1.17487731219328	0.885	312.25		GetAnswer	Mixed
21.0	1	312.267	0.017	376.947	2.33	1.16	18.6114	4.0	955.0	0.82	Outcome1	2.33	3.5	0.0	No		-1.17487731219328				ShowChoice	Mixed
21.0	1	316.279	0.012	380.959	2.33	1.16	18.6114	1.0	955.0	0.82	Outcome1	2.33	3.5	0.0	No		-1.17487731219328				ShowResult	Mixed
21.0	1	317.299	0.02	381.979	2.33	1.16	18.6114	3.555	955.0	0.82	Outcome1	2.33	3.5	0.0	No		-1.17487731219328				ISITrial	Mixed
22.0	1	320.876	0.022	385.556	0.0	0.0	18.6114	3.0	955.0	1.2	Certain	-4.48	3.9	3219.5	Yes	4.0	8.38052095130238	0.961	321.837		GetAnswer	Mixed
22.0	1	321.863	0.026	386.543	0.0	0.0	18.6114	4.0	955.0	1.2	Certain	-4.48	3.9	3219.5	Yes		8.38052095130238				ShowChoice	Mixed
22.0	1	325.875	0.012	390.555	0.0	0.0	18.6114	1.0	955.0	1.2	Certain	-4.48	3.9	3219.5	Yes		8.38052095130238				ShowResult	Mixed
22.0	1	326.894	0.019	391.574	0.0	0.0	18.6114	6.793	955.0	1.2	Certain	-4.48	3.9	3219.5	Yes		8.38052095130238				ISITrial	Mixed
22.0	1	336.941	0.023	401.621	0.0	0.0	18.6114	2.113	955.0	1.2	Certain	-4.48	3.9	3219.5	Yes		8.38052095130238			680.0	TrialHappiness	Mixed
22.0	1	340.953	4.012	405.633	0.0	0.0	18.6114	4.878	955.0	1.2	Certain	-4.48	3.9	3219.5	Yes		8.38052095130238				ISIRate	Mixed
23.0	1	345.851	0.02	410.531	1.53	2.0	18.8026	3.0	955.0	0.52	Outcome2	3.1	1.53	0.0	No	2.0	-1.56728954322386	1.025	346.876		GetAnswer	Mixed
23.0	1	346.888	0.012	411.568	1.53	2.0	18.8026	4.0	955.0	0.52	Outcome2	3.1	1.53	0.0	No		-1.56728954322386				ShowChoice	Mixed
23.0	1	350.9	0.012	415.58	1.53	2.0	18.8026	1.0	955.0	0.52	Outcome2	3.1	1.53	0.0	No		-1.56728954322386				ShowResult	Mixed
23.0	1	351.919	0.019	416.599	1.53	2.0	18.8026	8.0	955.0	0.52	Outcome2	3.1	1.53	0.0	No		-1.56728954322386				ISITrial	Mixed
24.0	1	359.943	0.024	424.623	5.51	2.76	19.4914	3.0	955.0	2.22	Outcome2	7.1	5.51	3255.0	Yes	2.0	-1.5932427331068302	1.067	361.01		GetAnswer	Gain
24.0	1	361.03	0.02	425.71	5.51	2.76	19.4914	4.0	955.0	2.22	Outcome2	7.1	5.51	3255.0	Yes		-1.5932427331068302				ShowChoice	Gain
24.0	1	365.042	0.012	429.722	5.51	2.76	19.4914	1.0	955.0	2.22	Outcome2	7.1	5.51	3255.0	Yes		-1.5932427331068302				ShowResult	Gain
24.0	1	366.062	0.02	430.742	5.51	2.76	19.4914	2.0	955.0	2.22	Outcome2	7.1	5.51	3255.0	Yes		-1.5932427331068302				ISITrial	Gain
24.0	1	371.361	0.022	436.041	5.51	2.76	19.4914	1.244	955.0	2.22	Outcome2	7.1	5.51	3255.0	Yes	2{-2}2{-2}	-1.5932427331068302	1.244	372.605	696.0	TrialHappiness	Gain
24.0	1	375.373	4.012	440.053	5.51	2.76	19.4914	5.02	955.0	2.22	Outcome2	7.1	5.51	3255.0	Yes		-1.5932427331068302				ISIRate	Gain
25.0	1	380.421	0.028	445.101	-3.0	-3.0	19.1164	3.0	955.0	1.0	Certain	1.7	-8.74	0.0	No	4.0	10.4382785956965	1.58	382.001		GetAnswer	Mixed
25.0	1	382.026	0.025	446.706	-3.0	-3.0	19.1164	4.0	955.0	1.0	Certain	1.7	-8.74	0.0	No		10.4382785956965				ShowChoice	Mixed
25.0	1	386.038	0.012	450.718	-3.0	-3.0	19.1164	1.0	955.0	1.0	Certain	1.7	-8.74	0.0	No		10.4382785956965				ShowResult	Mixed
25.0	1	387.058	0.02	451.738	-3.0	-3.0	19.1164	3.749	955.0	1.0	Certain	1.7	-8.74	0.0	No		10.4382785956965				ISITrial	Mixed
26.0	1	390.836	0.029	455.516	0.0	0.0	19.1164	3.0	955.0	2.22	Certain	-5.63	5.1	0.0	No	4.0	10.7315968289921	0.942	391.778		GetAnswer	Gain
26.0	1	391.788	0.01	456.468	0.0	0.0	19.1164	4.0	955.0	2.22	Certain	-5.63	5.1	0.0	No		10.7315968289921				ShowChoice	Gain
26.0	1	395.8	0.012	460.48	0.0	0.0	19.1164	1.0	955.0	2.22	Certain	-5.63	5.1	0.0	No		10.7315968289921				ShowResult	Gain
26.0	1	396.82	0.02	461.5	0.0	0.0	19.1164	7.834	955.0	2.22	Certain	-5.63	5.1	0.0	No		10.7315968289921				ISITrial	Gain
27.0	1	404.677	0.023	469.357	13.9	1.44	20.8539	3.0	955.0	3.6	Outcome2	2.88	13.9	2549.75	Yes	2.0	11.0249150622877	0.934	405.611		GetAnswer	Loss
27.0	1	405.63	0.019	470.31	13.9	1.44	20.8539	4.0	955.0	3.6	Outcome2	2.88	13.9	2549.75	Yes		11.0249150622877				ShowChoice	Loss
27.0	1	409.642	0.012	474.322	13.9	1.44	20.8539	1.0	955.0	3.6	Outcome2	2.88	13.9	2549.75	Yes		11.0249150622877				ShowResult	Loss
27.0	1	410.662	0.02	475.342	13.9	1.44	20.8539	4.225	955.0	3.6	Outcome2	2.88	13.9	2549.75	Yes		11.0249150622877				ISITrial	Loss
27.0	1	417.482	0.024	482.162	13.9	1.44	20.8539	2.856	955.0	3.6	Outcome2	2.88	13.9	2549.75	Yes		11.0249150622877			760.0	TrialHappiness	Loss
27.0	1	421.494	4.012	486.174	13.9	1.44	20.8539	2.199	955.0	3.6	Outcome2	2.88	13.9	2549.75	Yes		11.0249150622877				ISIRate	Loss
	1	423.717	0.024	488.397				-0.001								{SPACE}		97.833	521.55		Rest	
	1	521.577	0.027	586.257				4.0													BlockHappyPreview	
	1	525.589	0.012	590.269				1.996												740.0	BlockStartHappiness	
	1	531.974	0.024	596.654				-0.001								5.0		4.146	536.12		ScanWait	
	2	0.017	0.017	600.817				10.0													GetReady	
28.0	2	10.03	0.013	610.83	-2.29	-1.14	20.5677	3.0	70.0	2.22	Outcome2	9.1	-2.29	0.0	No	2.0	-11.3945578231293	1.573	11.603		GetAnswer	Gain
28.0	2	11.618	0.015	612.418	-2.29	-1.14	20.5677	4.0	70.0	2.22	Outcome2	9.1	-2.29	0.0	No		-11.3945578231293				ShowChoice	Gain
28.0	2	15.63	0.012	616.43	-2.29	-1.14	20.5677	1.0	70.0	2.22	Outcome2	9.1	-2.29	0.0	No		-11.3945578231293				ShowResult	Gain
28.0	2	16.65	0.02	617.45	-2.29	-1.14	20.5677	3.575	70.0	2.22	Outcome2	9.1	-2.29	0.0	No		-11.3945578231293				ISITrial	Gain
29.0	2	20.244	0.019	621.044	0.95	0.48	20.6865	3.0	70.0	2.22	Outcome2	13.1	0.95	3529.0	Yes	2.0	-12.154195011337901	0.846	21.09		GetAnswer	Loss
29.0	2	21.113	0.023	621.913	0.95	0.48	20.6865	4.0	70.0	2.22	Outcome2	13.1	0.95	3529.0	Yes		-12.154195011337901				ShowChoice	Loss
29.0	2	25.125	0.012	625.925	0.95	0.48	20.6865	1.0	70.0	2.22	Outcome2	13.1	0.95	3529.0	Yes		-12.154195011337901				ShowResult	Loss
29.0	2	26.145	0.02	626.945	0.95	0.48	20.6865	3.955	70.0	2.22	Outcome2	13.1	0.95	3529.0	Yes		-12.154195011337901				ISITrial	Loss
29.0	2	33.667	0.015	634.467	0.95	0.48	20.6865	1.412	70.0	2.22	Outcome2	13.1	0.95	3529.0	Yes		-12.154195011337901			672.0	TrialHappiness	Loss
29.0	2	37.679	4.012	638.479	0.95	0.48	20.6865	6.116	70.0	2.22	Outcome2	13.1	0.95	3529.0	Yes		-12.154195011337901				ISIRate	Loss
30.0	2	43.814	0.019	644.614	-0.06	-0.03	20.679000000000002	3.0	70.0	3.16	Outcome1	-0.06	11.7	0.0	No	2.0	-11.7573696145125	1.522	45.336		GetAnswer	Loss
30.0	2	45.352	0.016	646.152	-0.06	-0.03	20.679000000000002	4.0	70.0	3.16	Outcome1	-0.06	11.7	0.0	No		-11.7573696145125				ShowChoice	Loss
30.0	2	49.364	0.012	650.164	-0.06	-0.03	20.679000000000002	1.0	70.0	3.16	Outcome1	-0.06	11.7	0.0	No		-11.7573696145125				ShowResult	Loss
30.0	2	50.384	0.02	651.184	-0.06	-0.03	20.679000000000002	4.453	70.0	3.16	Outcome1	-0.06	11.7	0.0	No		-11.7573696145125				ISITrial	Loss
31.0	2	54.864	0.027	655.664	-0.14	-0.07	20.6615	3.0	70.0	5.0	Outcome2	12.3	-0.14	2503.25	Yes	2.0	-12.4399092970522	1.102	55.966		GetAnswer	Loss
31.0	2	55.984	0.018	656.784	-0.14	-0.07	20.6615	4.0	70.0	5.0	Outcome2	12.3	-0.14	2503.25	Yes		-12.4399092970522				ShowChoice	Loss
31.0	2	59.996	0.012	660.796	-0.14	-0.07	20.6615	1.0	70.0	5.0	Outcome2	12.3	-0.14	2503.25	Yes		-12.4399092970522				ShowResult	Loss
31.0	2	61.016	0.02	661.816	-0.14	-0.07	20.6615	4.786	70.0	5.0	Outcome2	12.3	-0.14	2503.25	Yes		-12.4399092970522				ISITrial	Loss
31.0	2	68.354	0.021	669.154	-0.14	-0.07	20.6615	1.981	70.0	5.0	Outcome2	12.3	-0.14	2503.25	Yes		-12.4399092970522			620.0	TrialHappiness	Loss
31.0	2	72.366	4.012	673.166	-0.14	-0.07	20.6615	2.013	70.0	5.0	Outcome2	12.3	-0.14	2503.25	Yes		-12.4399092970522				ISIRate	Loss
32.0	2	74.406	0.027	675.206	-1.0	-1.0	20.5365	3.0	70.0	2.0	Certain	-7.34	4.9	0.0	No	4.0	-12.2380952380952	1.328	75.734		GetAnswer	Gain
32.0	2	75.76	0.026	676.56	-1.0	-1.0	20.5365	4.0	70.0	2.0	Certain	-7.34	4.9	0.0	No		-12.2380952380952				ShowChoice	Gain
32.0	2	79.772	0.012	680.572	-1.0	-1.0	20.5365	1.0	70.0	2.0	Certain	-7.34	4.9	0.0	No		-12.2380952380952				ShowResult	Gain
32.0	2	80.792	0.02	681.592	-1.0	-1.0	20.5365	2.0	70.0	2.0	Certain	-7.34	4.9	0.0	No		-12.2380952380952				ISITrial	Gain
33.0	2	82.814	0.022	683.614	-6.0	-6.0	19.7865	3.0	70.0	1.0	Certain	-0.3	-13.16	0.0	No	4.0	-12.8616780045351	1.426	84.24		GetAnswer	Mixed
33.0	2	84.252	0.012	685.052	-6.0	-6.0	19.7865	4.0	70.0	1.0	Certain	-0.3	-13.16	0.0	No		-12.8616780045351				ShowChoice	Mixed
33.0	2	88.264	0.012	689.064	-6.0	-6.0	19.7865	1.0	70.0	1.0	Certain	-0.3	-13.16	0.0	No		-12.8616780045351				ShowResult	Mixed
33.0	2	89.284	0.02	690.084	-6.0	-6.0	19.7865	5.099	70.0	1.0	Certain	-0.3	-13.16	0.0	No		-12.8616780045351				ISITrial	Mixed
34.0	2	94.399	0.016	695.199	-1.99	-1.0	19.5377	3.0	70.0	2.8	Outcome1	-1.99	11.5	3231.5	Yes	2.0	-13.4852607709751	1.263	95.662		GetAnswer	Loss
34.0	2	95.686	0.024	696.486	-1.99	-1.0	19.5377	4.0	70.0	2.8	Outcome1	-1.99	11.5	3231.5	Yes		-13.4852607709751				ShowChoice	Loss
34.0	2	99.698	0.012	700.498	-1.99	-1.0	19.5377	1.0	70.0	2.8	Outcome1	-1.99	11.5	3231.5	Yes		-13.4852607709751				ShowResult	Loss
34.0	2	100.718	0.02	701.518	-1.99	-1.0	19.5377	4.784	70.0	2.8	Outcome1	-1.99	11.5	3231.5	Yes		-13.4852607709751				ISITrial	Loss
34.0	2	108.775	0.028	709.575	-1.99	-1.0	19.5377	0.994	70.0	2.8	Outcome1	-1.99	11.5	3231.5	Yes		-13.4852607709751			456.0	TrialHappiness	Loss
34.0	2	112.787	4.012	713.587	-1.99	-1.0	19.5377	4.926	70.0	2.8	Outcome1	-1.99	11.5	3231.5	Yes		-13.4852607709751				ISIRate	Loss
35.0	2	117.735	0.022	718.535	0.0	0.0	19.5377	3.0	70.0	2.8	Certain	-5.82	5.5	0.0	No	4.0	-11.3197278911565	1.07	118.805		GetAnswer	Gain
35.0	2	118.822	0.017	719.622	0.0	0.0	19.5377	4.0	70.0	2.8	Certain	-5.82	5.5	0.0	No		-11.3197278911565				ShowChoice	Gain
35.0	2	122.834	0.012	723.634	0.0	0.0	19.5377	1.0	70.0	2.8	Certain	-5.82	5.5	0.0	No		-11.3197278911565				ShowResult	Gain
35.0	2	123.854	0.02	724.654	0.0	0.0	19.5377	2.098	70.0	2.8	Certain	-5.82	5.5	0.0	No		-11.3197278911565				ISITrial	Gain
36.0	2	125.977	0.025	726.777	-0.46	-0.23	19.4802	3.0	70.0	2.48	Outcome2	11.3	-0.46	3335.75	Yes	2.0	-11.7573696145125	1.197	127.174		GetAnswer	Loss
36.0	2	127.197	0.023	727.997	-0.46	-0.23	19.4802	4.0	70.0	2.48	Outcome2	11.3	-0.46	3335.75	Yes		-11.7573696145125				ShowChoice	Loss
36.0	2	131.209	0.012	732.009	-0.46	-0.23	19.4802	1.0	70.0	2.48	Outcome2	11.3	-0.46	3335.75	Yes		-11.7573696145125				ShowResult	Loss
36.0	2	132.229	0.02	733.029	-0.46	-0.23	19.4802	5.156	70.0	2.48	Outcome2	11.3	-0.46	3335.75	Yes		-11.7573696145125				ISITrial	Loss
36.0	2	140.771	0.024	741.571	-0.46	-0.23	19.4802	1.562	70.0	2.48	Outcome2	11.3	-0.46	3335.75	Yes	4{-4}4{-4}	-11.7573696145125	1.562	142.333	476.0	TrialHappiness	Loss
36.0	2	144.783	4.012	745.583	-0.46	-0.23	19.4802	5.343	70.0	2.48	Outcome2	11.3	-0.46	3335.75	Yes		-11.7573696145125				ISIRate	Loss
37.0	2	150.149	0.023	750.949	2.02	1.0	19.7327	3.0	70.0	4.2	Outcome1	2.02	-0.1	0.0	No	2.0	2.11866969009826	1.069	151.218		GetAnswer	Gain
37.0	2	151.236	0.018	752.036	2.02	1.0	19.7327	4.0	70.0	4.2	Outcome1	2.02	-0.1	0.0	No		2.11866969009826				ShowChoice	Gain
37.0	2	155.248	0.012	756.048	2.02	1.0	19.7327	1.0	70.0	4.2	Outcome1	2.02	-0.1	0.0	No		2.11866969009826				ShowResult	Gain
37.0	2	156.267	0.019	757.067	2.02	1.0	19.7327	3.598	70.0	4.2	Outcome1	2.02	-0.1	0.0	No		2.11866969009826				ISITrial	Gain
38.0	2	159.895	0.03	760.695	-3.0	-3.0	19.3577	3.0	70.0	0.4	Certain	-10.1	2.9	0.0	No	4.0	-12.995464852607698	1.26	161.155		GetAnswer	Mixed
38.0	2	161.165	0.01	761.965	-3.0	-3.0	19.3577	4.0	70.0	0.4	Certain	-10.1	2.9	0.0	No		-12.995464852607698				ShowChoice	Mixed
38.0	2	165.177	0.012	765.977	-3.0	-3.0	19.3577	1.0	70.0	0.4	Certain	-10.1	2.9	0.0	No		-12.995464852607698				ShowResult	Mixed
38.0	2	166.197	0.02	766.997	-3.0	-3.0	19.3577	4.787	70.0	0.4	Certain	-10.1	2.9	0.0	No		-12.995464852607698				ISITrial	Mixed
39.0	2	171.011	0.027	771.811	-14.16	-7.0	17.5877	3.0	70.0	0.66	Outcome1	-14.16	-0.7	2864.25	Yes	2.0	-13.455782312925198	1.98	172.991		GetAnswer	Mixed
39.0	2	173.017	0.026	773.817	-14.16	-7.0	17.5877	4.0	70.0	0.66	Outcome1	-14.16	-0.7	2864.25	Yes		-13.455782312925198				ShowChoice	Mixed
39.0	2	177.029	0.012	777.829	-14.16	-7.0	17.5877	1.0	70.0	0.66	Outcome1	-14.16	-0.7	2864.25	Yes		-13.455782312925198				ShowResult	Mixed
39.0	2	178.049	0.02	778.849	-14.16	-7.0	17.5877	2.348	70.0	0.66	Outcome1	-14.16	-0.7	2864.25	Yes		-13.455782312925198				ISITrial	Mixed
39.0	2	183.315	0.028	784.115	-14.16	-7.0	17.5877	2.544	70.0	0.66	Outcome1	-14.16	-0.7	2864.25	Yes		-13.455782312925198			344.0	TrialHappiness	Mixed
39.0	2	187.327	4.012	788.127	-14.16	-7.0	17.5877	3.457	70.0	0.66	Outcome1	-14.16	-0.7	2864.25	Yes		-13.455782312925198				ISIRate	Mixed
40.0	2	190.804	0.02	791.604	2.52	1.0	17.9027	3.0	70.0	4.2	Outcome2	0.82	2.52	0.0	No	2.0	1.6974678760393	1.033	191.837		GetAnswer	Gain
40.0	2	191.857	0.02	792.657	2.52	1.0	17.9027	4.0	70.0	4.2	Outcome2	0.82	2.52	0.0	No		1.6974678760393				ShowChoice	Gain
40.0	2	195.869	0.012	796.669	2.52	1.0	17.9027	1.0	70.0	4.2	Outcome2	0.82	2.52	0.0	No		1.6974678760393				ShowResult	Gain
40.0	2	196.889	0.02	797.689	2.52	1.0	17.9027	3.158	70.0	4.2	Outcome2	0.82	2.52	0.0	No		1.6974678760393				ISITrial	Gain
41.0	2	200.065	0.018	800.865	0.0	0.0	17.9027	3.0	70.0	4.2	Certain	6.1	-5.88	4000.0	Yes	4.0	-11.9818594104308	0.971	201.036		GetAnswer	Gain
41.0	2	201.051	0.015	801.851	0.0	0.0	17.9027	4.0	70.0	4.2	Certain	6.1	-5.88	4000.0	Yes		-11.9818594104308				ShowChoice	Gain
41.0	2	205.063	0.012	805.863	0.0	0.0	17.9027	1.0	70.0	4.2	Certain	6.1	-5.88	4000.0	Yes		-11.9818594104308				ShowResult	Gain
41.0	2	206.083	0.02	806.883	0.0	0.0	17.9027	4.506	70.0	4.2	Certain	6.1	-5.88	4000.0	Yes		-11.9818594104308				ISITrial	Gain
41.0	2	214.642	0.029	815.442	0.0	0.0	17.9027	0.609	70.0	4.2	Certain	6.1	-5.88	4000.0	Yes		-11.9818594104308			544.0	TrialHappiness	Gain
41.0	2	218.654	4.012	819.454	0.0	0.0	17.9027	8.0	70.0	4.2	Certain	6.1	-5.88	4000.0	Yes		-11.9818594104308				ISIRate	Gain
42.0	2	226.678	0.024	827.478	-1.0	-1.0	17.7777	3.0	70.0	2.0	Certain	6.9	-8.79	0.0	No	4.0	-15.693877551020401	1.653	228.331		GetAnswer	Gain
42.0	2	228.349	0.018	829.149	-1.0	-1.0	17.7777	4.0	70.0	2.0	Certain	6.9	-8.79	0.0	No		-15.693877551020401				ShowChoice	Gain
42.0	2	232.361	0.012	833.161	-1.0	-1.0	17.7777	1.0	70.0	2.0	Certain	6.9	-8.79	0.0	No		-15.693877551020401				ShowResult	Gain
42.0	2	233.381	0.02	834.181	-1.0	-1.0	17.7777	6.248	70.0	2.0	Certain	6.9	-8.79	0.0	No		-15.693877551020401				ISITrial	Gain
43.0	2	239.65	0.021	840.45	-6.0	-6.0	17.0277	3.0	70.0	1.5	Certain	-14.13	2.1	2775.75	Yes	4.0	-16.2312925170068	1.79	241.44		GetAnswer	Mixed
43.0	2	241.455	0.015	842.255	-6.0	-6.0	17.0277	4.0	70.0	1.5	Certain	-14.13	2.1	2775.75	Yes		-16.2312925170068				ShowChoice	Mixed
43.0	2	245.467	0.012	846.267	-6.0	-6.0	17.0277	1.0	70.0	1.5	Certain	-14.13	2.1	2775.75	Yes		-16.2312925170068				ShowResult	Mixed
43.0	2	246.487	0.02	847.287	-6.0	-6.0	17.0277	4.596	70.0	1.5	Certain	-14.13	2.1	2775.75	Yes		-16.2312925170068				ISITrial	Mixed
43.0	2	253.892	0.015	854.692	-6.0	-6.0	17.0277	2.236	70.0	1.5	Certain	-14.13	2.1	2775.75	Yes		-16.2312925170068			480.0	TrialHappiness	Mixed
43.0	2	257.904	4.012	858.704	-6.0	-6.0	17.0277	3.103	70.0	1.5	Certain	-14.13	2.1	2775.75	Yes		-16.2312925170068				ISIRate	Mixed
44.0	2	261.03	0.023	861.83	-14.38	-6.0	15.2302	3.0	70.0	0.66	Outcome1	-14.38	1.3	0.0	No	2.0	-15.6802721088435	1.954	262.984		GetAnswer	Mixed
44.0	2	263.003	0.019	863.803	-14.38	-6.0	15.2302	4.0	70.0	0.66	Outcome1	-14.38	1.3	0.0	No		-15.6802721088435				ShowChoice	Mixed
44.0	2	267.015	0.012	867.815	-14.38	-6.0	15.2302	1.0	70.0	0.66	Outcome1	-14.38	1.3	0.0	No		-15.6802721088435				ShowResult	Mixed
44.0	2	268.035	0.02	868.835	-14.38	-6.0	15.2302	2.42	70.0	0.66	Outcome1	-14.38	1.3	0.0	No		-15.6802721088435				ISITrial	Mixed
45.0	2	270.475	0.02	871.275	3.38	2.0	15.6527	3.0	70.0	2.8	Outcome1	3.38	0.95	0.0	No	2.0	2.4300831443688597	1.026	271.501		GetAnswer	Loss
45.0	2	271.528	0.027	872.328	3.38	2.0	15.6527	4.0	70.0	2.8	Outcome1	3.38	0.95	0.0	No		2.4300831443688597				ShowChoice	Loss
45.0	2	275.54	0.012	876.34	3.38	2.0	15.6527	1.0	70.0	2.8	Outcome1	3.38	0.95	0.0	No		2.4300831443688597				ShowResult	Loss
45.0	2	276.56	0.02	877.36	3.38	2.0	15.6527	3.144	70.0	2.8	Outcome1	3.38	0.95	0.0	No		2.4300831443688597				ISITrial	Loss
46.0	2	279.72	0.016	880.52	-12.11	-4.0	14.1389	3.0	70.0	1.68	Outcome1	-12.11	4.5	3841.25	Yes	2.0	-16.609977324263	1.897	281.617		GetAnswer	Gain
46.0	2	281.642	0.025	882.442	-12.11	-4.0	14.1389	4.0	70.0	1.68	Outcome1	-12.11	4.5	3841.25	Yes		-16.609977324263				ShowChoice	Gain
46.0	2	285.654	0.012	886.454	-12.11	-4.0	14.1389	1.0	70.0	1.68	Outcome1	-12.11	4.5	3841.25	Yes		-16.609977324263				ShowResult	Gain
46.0	2	286.674	0.02	887.474	-12.11	-4.0	14.1389	2.246	70.0	1.68	Outcome1	-12.11	4.5	3841.25	Yes		-16.609977324263				ISITrial	Gain
46.0	2	292.809	0.021	893.609	-12.11	-4.0	14.1389	1.276	70.0	1.68	Outcome1	-12.11	4.5	3841.25	Yes		-16.609977324263			264.0	TrialHappiness	Gain
46.0	2	296.821	4.012	897.621	-12.11	-4.0	14.1389	7.365	70.0	1.68	Outcome1	-12.11	4.5	3841.25	Yes		-16.609977324263				ISIRate	Gain
47.0	2	304.21	0.024	905.01	0.3	0.15	14.1764	3.0	70.0	3.16	Outcome2	13.7	0.3	0.0	No	2.0	-13.401360544217699	0.824	305.034		GetAnswer	Loss
47.0	2	305.062	0.027	905.862	0.3	0.15	14.1764	4.0	70.0	3.16	Outcome2	13.7	0.3	0.0	No		-13.401360544217699				ShowChoice	Loss
47.0	2	309.074	0.012	909.874	0.3	0.15	14.1764	1.0	70.0	3.16	Outcome2	13.7	0.3	0.0	No		-13.401360544217699				ShowResult	Loss
47.0	2	310.094	0.02	910.894	0.3	0.15	14.1764	2.0	70.0	3.16	Outcome2	13.7	0.3	0.0	No		-13.401360544217699				ISITrial	Loss
48.0	2	312.117	0.023	912.917	0.0	0.0	14.1764	3.0	70.0	0.4	Certain	0.22	-1.43	2831.75	Yes	4.0	1.64833711262283	1.237	313.354		GetAnswer	Mixed
48.0	2	313.37	0.016	914.17	0.0	0.0	14.1764	4.0	70.0	0.4	Certain	0.22	-1.43	2831.75	Yes		1.64833711262283				ShowChoice	Mixed
48.0	2	317.382	0.012	918.182	0.0	0.0	14.1764	1.0	70.0	0.4	Certain	0.22	-1.43	2831.75	Yes		1.64833711262283				ShowResult	Mixed
48.0	2	318.402	0.02	919.202	0.0	0.0	14.1764	3.692	70.0	0.4	Certain	0.22	-1.43	2831.75	Yes		1.64833711262283				ISITrial	Mixed
48.0	2	324.972	0.027	925.772	0.0	0.0	14.1764	1.061	70.0	0.4	Certain	0.22	-1.43	2831.75	Yes		1.64833711262283			408.0	TrialHappiness	Mixed
48.0	2	328.984	4.012	929.784	0.0	0.0	14.1764	3.327	70.0	0.4	Certain	0.22	-1.43	2831.75	Yes		1.64833711262283				ISIRate	Mixed
49.0	2	332.327	0.016	933.127	2.62	1.0	14.5039	3.0	70.0	1.68	Outcome2	0.37	2.62	0.0	No	2.0	2.25170068027211	1.028	333.355		GetAnswer	Loss
49.0	2	333.38	0.025	934.18	2.62	1.0	14.5039	4.0	70.0	1.68	Outcome2	0.37	2.62	0.0	No		2.25170068027211				ShowChoice	Loss
49.0	2	337.392	0.012	938.192	2.62	1.0	14.5039	1.0	70.0	1.68	Outcome2	0.37	2.62	0.0	No		2.25170068027211				ShowResult	Loss
49.0	2	338.412	0.02	939.212	2.62	1.0	14.5039	8.0	70.0	1.68	Outcome2	0.37	2.62	0.0	No		2.25170068027211				ISITrial	Loss
50.0	2	346.436	0.024	947.236	2.98	2.0	14.8764	3.0	70.0	3.6	Outcome1	2.98	0.7	3547.25	Yes	2.0	2.28363567649282	0.915	347.351		GetAnswer	Loss
50.0	2	347.372	0.021	948.172	2.98	2.0	14.8764	4.0	70.0	3.6	Outcome1	2.98	0.7	3547.25	Yes		2.28363567649282				ShowChoice	Loss
50.0	2	351.384	0.012	952.184	2.98	2.0	14.8764	1.0	70.0	3.6	Outcome1	2.98	0.7	3547.25	Yes		2.28363567649282				ShowResult	Loss
50.0	2	352.404	0.02	953.204	2.98	2.0	14.8764	7.537	70.0	3.6	Outcome1	2.98	0.7	3547.25	Yes		2.28363567649282				ISITrial	Loss
50.0	2	363.537	0.03	964.337	2.98	2.0	14.8764	0.542	70.0	3.6	Outcome1	2.98	0.7	3547.25	Yes		2.28363567649282			568.0	TrialHappiness	Loss
50.0	2	367.549	4.012	968.349	2.98	2.0	14.8764	6.189	70.0	3.6	Outcome1	2.98	0.7	3547.25	Yes		2.28363567649282				ISIRate	Loss
51.0	2	373.768	0.03	974.568	-5.0	-5.0	14.2514	3.0	70.0	2.0	Certain	4.3	-15.48	0.0	No	4.0	-19.7777777777778	1.37	375.138		GetAnswer	Mixed
51.0	2	375.155	0.017	975.955	-5.0	-5.0	14.2514	4.0	70.0	2.0	Certain	4.3	-15.48	0.0	No		-19.7777777777778				ShowChoice	Mixed
51.0	2	379.167	0.012	979.967	-5.0	-5.0	14.2514	1.0	70.0	2.0	Certain	4.3	-15.48	0.0	No		-19.7777777777778				ShowResult	Mixed
51.0	2	380.187	0.02	980.987	-5.0	-5.0	14.2514	5.508	70.0	2.0	Certain	4.3	-15.48	0.0	No		-19.7777777777778				ISITrial	Mixed
52.0	2	385.72	0.025	986.52	-1.0	-1.0	14.1264	3.0	70.0	0.3	Certain	-2.83	0.18	0.0	No	4.0	3.01266061980348	1.581	387.301		GetAnswer	Mixed
52.0	2	387.325	0.024	988.125	-1.0	-1.0	14.1264	4.0	70.0	0.3	Certain	-2.83	0.18	0.0	No		3.01266061980348				ShowChoice	Mixed
52.0	2	391.337	0.012	992.137	-1.0	-1.0	14.1264	1.0	70.0	0.3	Certain	-2.83	0.18	0.0	No		3.01266061980348				ShowResult	Mixed
52.0	2	392.356	0.019	993.156	-1.0	-1.0	14.1264	5.913	70.0	0.3	Certain	-2.83	0.18	0.0	No		3.01266061980348				ISITrial	Mixed
53.0	2	398.291	0.022	999.091	-2.0	-2.0	13.8764	3.0	70.0	1.68	Certain	-12.41	8.5	2996.75	Yes	4.0	-20.907029478458103	1.423	399.714		GetAnswer	Gain
53.0	2	399.728	0.014	1000.528	-2.0	-2.0	13.8764	4.0	70.0	1.68	Certain	-12.41	8.5	2996.75	Yes		-20.907029478458103				ShowChoice	Gain
53.0	2	403.74	0.012	1004.54	-2.0	-2.0	13.8764	1.0	70.0	1.68	Certain	-12.41	8.5	2996.75	Yes		-20.907029478458103				ShowResult	Gain
53.0	2	404.76	0.02	1005.56	-2.0	-2.0	13.8764	3.66	70.0	1.68	Certain	-12.41	8.5	2996.75	Yes		-20.907029478458103				ISITrial	Gain
53.0	2	411.464	0.029	1012.264	-2.0	-2.0	13.8764	1.194	70.0	1.68	Certain	-12.41	8.5	2996.75	Yes		-20.907029478458103			456.0	TrialHappiness	Gain
53.0	2	415.476	4.012	1016.276	-2.0	-2.0	13.8764	3.987	70.0	1.68	Certain	-12.41	8.5	2996.75	Yes		-20.907029478458103				ISIRate	Gain
54.0	2	419.488	0.025	1020.288	2.0	2.0	14.1264	3.0	70.0	1.68	Certain	12.5	-7.07	0.0	No	4.0	-19.5668934240363	1.121	420.609		GetAnswer	Loss
54.0	2	420.624	0.015	1021.424	2.0	2.0	14.1264	4.0	70.0	1.68	Certain	12.5	-7.07	0.0	No		-19.5668934240363				ShowChoice	Loss
54.0	2	424.636	0.012	1025.436	2.0	2.0	14.1264	1.0	70.0	1.68	Certain	12.5	-7.07	0.0	No		-19.5668934240363				ShowResult	Loss
54.0	2	425.656	0.02	1026.456	2.0	2.0	14.1264	8.0	70.0	1.68	Certain	12.5	-7.07	0.0	No		-19.5668934240363				ISITrial	Loss
	2	433.68	0.024	1034.48				-0.001								{SPACE}		44.73	478.41		Rest	
	2	478.43	0.019	1079.23				4.0													BlockHappyPreview	
	2	482.442	0.012	1083.242				1.885												476.0	BlockStartHappiness	
	2	490.583	0.013	1091.383				-0.001								5.0		4.37	494.953		ScanWait	
	3	0.01	0.01	1095.763				10.0													GetReady	
55.0	3	10.023	0.013	1105.776	12.1	1.98	15.6389	3.0	955.0	4.2	Outcome2	3.96	12.1	2533.25	Yes	2.0	8.13703284258211	0.858	10.881		GetAnswer	Loss
55.0	3	10.893	0.012	1106.646	12.1	1.98	15.6389	4.0	955.0	4.2	Outcome2	3.96	12.1	2533.25	Yes		8.13703284258211				ShowChoice	Loss
55.0	3	14.905	0.012	1110.658	12.1	1.98	15.6389	1.0	955.0	4.2	Outcome2	3.96	12.1	2533.25	Yes		8.13703284258211				ShowResult	Loss
55.0	3	15.924	0.019	1111.677	12.1	1.98	15.6389	7.709	955.0	4.2	Outcome2	3.96	12.1	2533.25	Yes		8.13703284258211				ISITrial	Loss
55.0	3	26.205	0.024	1121.958	12.1	1.98	15.6389	2.281	955.0	4.2	Outcome2	3.96	12.1	2533.25	Yes		8.13703284258211			672.0	TrialHappiness	Loss
55.0	3	30.217	4.012	1125.97	12.1	1.98	15.6389	2.133	955.0	4.2	Outcome2	3.96	12.1	2533.25	Yes		8.13703284258211				ISIRate	Loss
56.0	3	32.374	0.024	1128.127	-1.0	-1.0	15.5139	3.0	955.0	0.82	Certain	1.5	-3.85	0.0	No	4.0	5.34994337485844	1.325	33.699		GetAnswer	Mixed
56.0	3	33.711	0.012	1129.464	-1.0	-1.0	15.5139	4.0	955.0	0.82	Certain	1.5	-3.85	0.0	No		5.34994337485844				ShowChoice	Mixed
56.0	3	37.723	0.012	1133.476	-1.0	-1.0	15.5139	1.0	955.0	0.82	Certain	1.5	-3.85	0.0	No		5.34994337485844				ShowResult	Mixed
56.0	3	38.743	0.02	1134.496	-1.0	-1.0	15.5139	4.697	955.0	0.82	Certain	1.5	-3.85	0.0	No		5.34994337485844				ISITrial	Mixed
57.0	3	43.457	0.017	1139.21	4.08	2.04	16.0239	3.0	955.0	2.48	Outcome1	4.08	5.3	0.0	No	2.0	-1.2203661759154398	0.783	44.24		GetAnswer	Gain
57.0	3	44.259	0.019	1140.012	4.08	2.04	16.0239	4.0	955.0	2.48	Outcome1	4.08	5.3	0.0	No		-1.2203661759154398				ShowChoice	Gain
57.0	3	48.271	0.012	1144.024	4.08	2.04	16.0239	1.0	955.0	2.48	Outcome1	4.08	5.3	0.0	No		-1.2203661759154398				ShowResult	Gain
57.0	3	49.291	0.02	1145.044	4.08	2.04	16.0239	4.291	955.0	2.48	Outcome1	4.08	5.3	0.0	No		-1.2203661759154398				ISITrial	Gain
58.0	3	53.604	0.022	1149.357	8.9	1.46	17.1364	3.0	955.0	2.0	Outcome1	8.9	2.91	3045.75	Yes	2.0	5.9909399773499405	0.792	54.396		GetAnswer	Gain
58.0	3	54.423	0.027	1150.176	8.9	1.46	17.1364	4.0	955.0	2.0	Outcome1	8.9	2.91	3045.75	Yes		5.9909399773499405				ShowChoice	Gain
58.0	3	58.435	0.012	1154.188	8.9	1.46	17.1364	1.0	955.0	2.0	Outcome1	8.9	2.91	3045.75	Yes		5.9909399773499405				ShowResult	Gain
58.0	3	59.455	0.02	1155.208	8.9	1.46	17.1364	2.037	955.0	2.0	Outcome1	8.9	2.91	3045.75	Yes		5.9909399773499405				ISITrial	Gain
58.0	3	64.587	0.03	1160.34	8.9	1.46	17.1364	1.195	955.0	2.0	Outcome1	8.9	2.91	3045.75	Yes		5.9909399773499405			736.0	TrialHappiness	Gain
58.0	3	68.599	4.012	1164.352	8.9	1.46	17.1364	4.183	955.0	2.0	Outcome1	8.9	2.91	3045.75	Yes		5.9909399773499405				ISIRate	Gain
59.0	3	72.811	0.029	1168.564	-2.0	-2.0	16.8864	3.0	955.0	1.5	Certain	-5.12	0.1	0.0	No	4.0	5.224235560588901	1.557	74.368		GetAnswer	Mixed
59.0	3	74.383	0.015	1170.136	-2.0	-2.0	16.8864	4.0	955.0	1.5	Certain	-5.12	0.1	0.0	No		5.224235560588901				ShowChoice	Mixed
59.0	3	78.395	0.012	1174.148	-2.0	-2.0	16.8864	1.0	955.0	1.5	Certain	-5.12	0.1	0.0	No		5.224235560588901				ShowResult	Mixed
59.0	3	79.414	0.019	1175.167	-2.0	-2.0	16.8864	5.064	955.0	1.5	Certain	-5.12	0.1	0.0	No		5.224235560588901				ISITrial	Mixed
60.0	3	84.496	0.018	1180.249	1.67	2.0	17.0952	3.0	955.0	0.3	Outcome1	1.67	2.7	3562.5	Yes	2.0	-1.03473008682522	0.787	85.283		GetAnswer	Mixed
60.0	3	85.299	0.016	1181.052	1.67	2.0	17.0952	4.0	955.0	0.3	Outcome1	1.67	2.7	3562.5	Yes		-1.03473008682522				ShowChoice	Mixed
60.0	3	89.311	0.012	1185.064	1.67	2.0	17.0952	1.0	955.0	0.3	Outcome1	1.67	2.7	3562.5	Yes		-1.03473008682522				ShowResult	Mixed
60.0	3	90.33	0.019	1186.083	1.67	2.0	17.0952	8.0	955.0	0.3	Outcome1	1.67	2.7	3562.5	Yes		-1.03473008682522				ISITrial	Mixed
60.0	3	101.932	0.016	1197.685	1.67	2.0	17.0952	1.813	955.0	0.3	Outcome1	1.67	2.7	3562.5	Yes		-1.03473008682522			664.0	TrialHappiness	Mixed
60.0	3	105.944	4.012	1201.697	1.67	2.0	17.0952	6.25	955.0	0.3	Outcome1	1.67	2.7	3562.5	Yes		-1.03473008682522				ISIRate	Mixed
61.0	3	112.212	0.018	1207.965	0.0	0.0	17.0952	3.0	955.0	0.66	Certain	3.3	-3.64	0.0	No	4.0	6.943374858437151	1.073	113.285		GetAnswer	Mixed
61.0	3	113.299	0.014	1209.052	0.0	0.0	17.0952	4.0	955.0	0.66	Certain	3.3	-3.64	0.0	No		6.943374858437151				ShowChoice	Mixed
61.0	3	117.311	0.012	1213.064	0.0	0.0	17.0952	1.0	955.0	0.66	Certain	3.3	-3.64	0.0	No		6.943374858437151				ShowResult	Mixed
61.0	3	118.331	0.02	1214.084	0.0	0.0	17.0952	4.586	955.0	0.66	Certain	3.3	-3.64	0.0	No		6.943374858437151				ISITrial	Mixed
62.0	3	122.944	0.027	1218.697	-0.28	-0.28	17.0602	3.0	955.0	1.82	Certain	6.7	-0.57	3748.75	Yes	4.0	7.27293318233296	1.176	124.12		GetAnswer	Gain
62.0	3	124.131	0.011	1219.884	-0.28	-0.28	17.0602	4.0	955.0	1.82	Certain	6.7	-0.57	3748.75	Yes		7.27293318233296				ShowChoice	Gain
62.0	3	128.143	0.012	1223.896	-0.28	-0.28	17.0602	1.0	955.0	1.82	Certain	6.7	-0.57	3748.75	Yes		7.27293318233296				ShowResult	Gain
62.0	3	129.163	0.02	1224.916	-0.28	-0.28	17.0602	5.212	955.0	1.82	Certain	6.7	-0.57	3748.75	Yes		7.27293318233296				ISITrial	Gain
62.0	3	138.173	0.029	1233.926	-0.28	-0.28	17.0602	1.111	955.0	1.82	Certain	6.7	-0.57	3748.75	Yes	2{-2}4{-4}	7.27293318233296	1.111	139.284	584.0	TrialHappiness	Gain
62.0	3	142.185	4.012	1237.938	-0.28	-0.28	17.0602	6.995	955.0	1.82	Certain	6.7	-0.57	3748.75	Yes		7.27293318233296				ISIRate	Gain
63.0	3	149.206	0.026	1244.959	7.5	-0.73	17.9977	3.0	955.0	2.8	Outcome2	-1.46	7.5	0.0	No	2.0	8.96149490373726	1.289	150.495		GetAnswer	Gain
63.0	3	150.51	0.015	1246.263	7.5	-0.73	17.9977	4.0	955.0	2.8	Outcome2	-1.46	7.5	0.0	No		8.96149490373726				ShowChoice	Gain
63.0	3	154.522	0.012	1250.275	7.5	-0.73	17.9977	1.0	955.0	2.8	Outcome2	-1.46	7.5	0.0	No		8.96149490373726				ShowResult	Gain
63.0	3	155.542	0.02	1251.295	7.5	-0.73	17.9977	5.595	955.0	2.8	Outcome2	-1.46	7.5	0.0	No		8.96149490373726				ISITrial	Gain
64.0	3	161.159	0.022	1256.912	9.3	-0.04	19.1602	3.0	955.0	2.48	Outcome1	9.3	-0.08	0.0	No	2.0	9.381653454133641	1.434	162.593		GetAnswer	Gain
64.0	3	162.613	0.02	1258.366	9.3	-0.04	19.1602	4.0	955.0	2.48	Outcome1	9.3	-0.08	0.0	No		9.381653454133641				ShowChoice	Gain
64.0	3	166.625	0.012	1262.378	9.3	-0.04	19.1602	1.0	955.0	2.48	Outcome1	9.3	-0.08	0.0	No		9.381653454133641				ShowResult	Gain
64.0	3	167.645	0.02	1263.398	9.3	-0.04	19.1602	5.47	955.0	2.48	Outcome1	9.3	-0.08	0.0	No		9.381653454133641				ISITrial	Gain
65.0	3	173.145	0.03	1268.898	-1.0	-1.0	19.0352	3.0	955.0	1.5	Certain	-5.7	4.1	2996.75	Yes	4.0	9.80181200453001	1.471	174.616		GetAnswer	Mixed
65.0	3	174.632	0.016	1270.385	-1.0	-1.0	19.0352	4.0	955.0	1.5	Certain	-5.7	4.1	2996.75	Yes		9.80181200453001				ShowChoice	Mixed
65.0	3	178.644	0.012	1274.397	-1.0	-1.0	19.0352	1.0	955.0	1.5	Certain	-5.7	4.1	2996.75	Yes		9.80181200453001				ShowResult	Mixed
65.0	3	179.664	0.02	1275.417	-1.0	-1.0	19.0352	3.344	955.0	1.5	Certain	-5.7	4.1	2996.75	Yes		9.80181200453001				ISITrial	Mixed
65.0	3	186.05	0.029	1281.803	-1.0	-1.0	19.0352	2.599	955.0	1.5	Certain	-5.7	4.1	2996.75	Yes	2{-2}2{-2}2{-2}	9.80181200453001	2.599	188.649	664.0	TrialHappiness	Mixed
65.0	3	190.062	4.012	1285.815	-1.0	-1.0	19.0352	3.987	955.0	1.5	Certain	-5.7	4.1	2996.75	Yes		9.80181200453001				ISIRate	Mixed
66.0	3	194.074	0.025	1289.827	-3.0	-3.0	18.6602	3.0	955.0	0.52	Certain	-7.76	1.1	0.0	No	4.0	8.862967157417891	1.45	195.524		GetAnswer	Mixed
66.0	3	195.545	0.021	1291.298	-3.0	-3.0	18.6602	4.0	955.0	0.52	Certain	-7.76	1.1	0.0	No		8.862967157417891				ShowChoice	Mixed
66.0	3	199.557	0.012	1295.31	-3.0	-3.0	18.6602	1.0	955.0	0.52	Certain	-7.76	1.1	0.0	No		8.862967157417891				ShowResult	Mixed
66.0	3	200.577	0.02	1296.33	-3.0	-3.0	18.6602	3.959	955.0	0.52	Certain	-7.76	1.1	0.0	No		8.862967157417891				ISITrial	Mixed
67.0	3	204.555	0.019	1300.308	7.7	-0.74	19.6227	3.0	955.0	3.16	Outcome2	-1.49	7.7	2918.5	Yes	2.0	9.1925254813137	1.356	205.911		GetAnswer	Gain
67.0	3	205.926	0.015	1301.679	7.7	-0.74	19.6227	4.0	955.0	3.16	Outcome2	-1.49	7.7	2918.5	Yes		9.1925254813137				ShowChoice	Gain
67.0	3	209.938	0.012	1305.691	7.7	-0.74	19.6227	1.0	955.0	3.16	Outcome2	-1.49	7.7	2918.5	Yes		9.1925254813137				ShowResult	Gain
67.0	3	210.958	0.02	1306.711	7.7	-0.74	19.6227	4.199	955.0	3.16	Outcome2	-1.49	7.7	2918.5	Yes		9.1925254813137				ISITrial	Gain
67.0	3	218.112	0.024	1313.865	7.7	-0.74	19.6227	2.131	955.0	3.16	Outcome2	-1.49	7.7	2918.5	Yes		9.1925254813137			664.0	TrialHappiness	Gain
67.0	3	222.124	4.012	1317.877	7.7	-0.74	19.6227	3.674	955.0	3.16	Outcome2	-1.49	7.7	2918.5	Yes		9.1925254813137				ISIRate	Gain
68.0	3	225.819	0.021	1321.572	5.74	2.87	20.3402	3.0	955.0	2.48	Outcome2	7.3	5.74	0.0	No	2.0	-1.56247640619102	0.851	226.67		GetAnswer	Gain
68.0	3	226.688	0.018	1322.441	5.74	2.87	20.3402	4.0	955.0	2.48	Outcome2	7.3	5.74	0.0	No		-1.56247640619102				ShowChoice	Gain
68.0	3	230.7	0.012	1326.453	5.74	2.87	20.3402	1.0	955.0	2.48	Outcome2	7.3	5.74	0.0	No		-1.56247640619102				ShowResult	Gain
68.0	3	231.72	0.02	1327.473	5.74	2.87	20.3402	2.185	955.0	2.48	Outcome2	7.3	5.74	0.0	No		-1.56247640619102				ISITrial	Gain
69.0	3	233.926	0.021	1329.679	1.0	1.0	20.4652	3.0	955.0	3.6	Certain	5.9	-3.95	0.0	No	4.0	9.85164212910532	0.985	234.911		GetAnswer	Gain
69.0	3	234.929	0.018	1330.682	1.0	1.0	20.4652	4.0	955.0	3.6	Certain	5.9	-3.95	0.0	No		9.85164212910532				ShowChoice	Gain
69.0	3	238.941	0.012	1334.694	1.0	1.0	20.4652	1.0	955.0	3.6	Certain	5.9	-3.95	0.0	No		9.85164212910532				ShowResult	Gain
69.0	3	239.961	0.02	1335.714	1.0	1.0	20.4652	2.0	955.0	3.6	Certain	5.9	-3.95	0.0	No		9.85164212910532				ISITrial	Gain
70.0	3	241.984	0.023	1337.737	10.7	0.26	21.8027	3.0	955.0	1.82	Outcome2	0.52	10.7	3651.25	Yes	2.0	10.1812004530011	0.857	242.841		GetAnswer	Loss
70.0	3	242.853	0.012	1338.606	10.7	0.26	21.8027	4.0	955.0	1.82	Outcome2	0.52	10.7	3651.25	Yes		10.1812004530011				ShowChoice	Loss
70.0	3	246.865	0.012	1342.618	10.7	0.26	21.8027	1.0	955.0	1.82	Outcome2	0.52	10.7	3651.25	Yes		10.1812004530011				ShowResult	Loss
70.0	3	247.885	0.02	1343.638	10.7	0.26	21.8027	2.623	955.0	1.82	Outcome2	0.52	10.7	3651.25	Yes		10.1812004530011				ISITrial	Loss
70.0	3	254.204	0.027	1349.957	10.7	0.26	21.8027	2.024	955.0	1.82	Outcome2	0.52	10.7	3651.25	Yes		10.1812004530011			692.0	TrialHappiness	Loss
70.0	3	258.216	4.012	1353.969	10.7	0.26	21.8027	6.605	955.0	1.82	Outcome2	0.52	10.7	3651.25	Yes		10.1812004530011				ISIRate	Loss
71.0	3	264.852	0.031	1360.605	-2.63	-2.0	21.4739	3.0	955.0	0.4	Outcome2	-1.1	-2.63	0.0	No	2.0	-1.53123820309551	1.205	266.057		GetAnswer	Mixed
71.0	3	266.072	0.015	1361.825	-2.63	-2.0	21.4739	4.0	955.0	0.4	Outcome2	-1.1	-2.63	0.0	No		-1.53123820309551				ShowChoice	Mixed
71.0	3	270.084	0.012	1365.837	-2.63	-2.0	21.4739	1.0	955.0	0.4	Outcome2	-1.1	-2.63	0.0	No		-1.53123820309551				ShowResult	Mixed
71.0	3	271.104	0.02	1366.857	-2.63	-2.0	21.4739	5.499	955.0	0.4	Outcome2	-1.1	-2.63	0.0	No		-1.53123820309551				ISITrial	Mixed
72.0	3	276.621	0.018	1372.374	-1.0	-1.0	21.3489	3.0	955.0	0.82	Certain	-0.5	-2.06	3080.5	Yes	4.0	-1.55605889014723	1.446	278.067		GetAnswer	Mixed
72.0	3	278.092	0.025	1373.845	-1.0	-1.0	21.3489	4.0	955.0	0.82	Certain	-0.5	-2.06	3080.5	Yes		-1.55605889014723				ShowChoice	Mixed
72.0	3	282.12	0.028	1377.873	-1.0	-1.0	21.3489	1.0	955.0	0.82	Certain	-0.5	-2.06	3080.5	Yes		-1.55605889014723				ShowResult	Mixed
72.0	3	283.14	0.02	1378.893	-1.0	-1.0	21.3489	5.672	955.0	0.82	Certain	-0.5	-2.06	3080.5	Yes		-1.55605889014723				ISITrial	Mixed
72.0	3	291.95	0.03	1387.703	-1.0	-1.0	21.3489	1.929	955.0	0.82	Certain	-0.5	-2.06	3080.5	Yes		-1.55605889014723			664.0	TrialHappiness	Mixed
72.0	3	295.962	4.012	1391.715	-1.0	-1.0	21.3489	4.322	955.0	0.82	Certain	-0.5	-2.06	3080.5	Yes		-1.55605889014723				ISIRate	Mixed
73.0	3	300.308	0.024	1396.061	10.3	-0.4	22.6364	3.0	955.0	5.0	Outcome1	10.3	-0.81	0.0	No	2.0	11.106455266138198	1.124	301.432		GetAnswer	Gain
73.0	3	301.445	0.013	1397.198	10.3	-0.4	22.6364	4.0	955.0	5.0	Outcome1	10.3	-0.81	0.0	No		11.106455266138198				ShowChoice	Gain
73.0	3	305.457	0.012	1401.21	10.3	-0.4	22.6364	1.0	955.0	5.0	Outcome1	10.3	-0.81	0.0	No		11.106455266138198				ShowResult	Gain
73.0	3	306.477	0.02	1402.23	10.3	-0.4	22.6364	4.616	955.0	5.0	Outcome1	10.3	-0.81	0.0	No		11.106455266138198				ISITrial	Gain
74.0	3	311.124	0.031	1406.877	2.0	2.0	22.8864	3.0	955.0	3.6	Certain	7.9	-3.54	3056.25	Yes	4.0	11.436013590034001	1.213	312.337		GetAnswer	Gain
74.0	3	312.361	0.024	1408.114	2.0	2.0	22.8864	4.0	955.0	3.6	Certain	7.9	-3.54	3056.25	Yes		11.436013590034001				ShowChoice	Gain
74.0	3	316.373	0.012	1412.126	2.0	2.0	22.8864	1.0	955.0	3.6	Certain	7.9	-3.54	3056.25	Yes		11.436013590034001				ShowResult	Gain
74.0	3	317.392	0.019	1413.145	2.0	2.0	22.8864	3.909	955.0	3.6	Certain	7.9	-3.54	3056.25	Yes		11.436013590034001				ISITrial	Gain
74.0	3	324.397	0.02	1420.15	2.0	2.0	22.8864	1.83	955.0	3.6	Certain	7.9	-3.54	3056.25	Yes		11.436013590034001			712.0	TrialHappiness	Gain
74.0	3	328.409	4.012	1424.162	2.0	2.0	22.8864	4.225	955.0	3.6	Certain	7.9	-3.54	3056.25	Yes		11.436013590034001				ISIRate	Gain
75.0	3	332.655	0.021	1428.408	10.9	-0.02	24.2489	3.0	955.0	2.0	Outcome1	10.9	-0.05	0.0	No	2.0	10.9501698754247	1.105	333.76		GetAnswer	Loss
75.0	3	333.775	0.015	1429.528	10.9	-0.02	24.2489	4.0	955.0	2.0	Outcome1	10.9	-0.05	0.0	No		10.9501698754247				ShowChoice	Loss
75.0	3	337.787	0.012	1433.54	10.9	-0.02	24.2489	1.0	955.0	2.0	Outcome1	10.9	-0.05	0.0	No		10.9501698754247				ShowResult	Loss
75.0	3	338.807	0.02	1434.56	10.9	-0.02	24.2489	4.979	955.0	2.0	Outcome1	10.9	-0.05	0.0	No		10.9501698754247				ISITrial	Loss
76.0	3	343.805	0.019	1439.558	12.7	0.74	25.8364	3.0	955.0	1.82	Outcome1	12.7	1.47	0.0	No	2.0	11.2253680634202	0.926	344.731		GetAnswer	Loss
76.0	3	344.758	0.027	1440.511	12.7	0.74	25.8364	4.0	955.0	1.82	Outcome1	12.7	1.47	0.0	No		11.2253680634202				ShowChoice	Loss
76.0	3	348.77	0.012	1444.523	12.7	0.74	25.8364	1.0	955.0	1.82	Outcome1	12.7	1.47	0.0	No		11.2253680634202				ShowResult	Loss
76.0	3	349.789	0.019	1445.542	12.7	0.74	25.8364	3.931	955.0	1.82	Outcome1	12.7	1.47	0.0	No		11.2253680634202				ISITrial	Loss
77.0	3	353.751	0.031	1449.504	9.7	-0.9	27.0489	3.0	955.0	3.16	Outcome2	-1.8	9.7	4000.0	Yes	2.0	11.5005662514156	1.118	354.869		GetAnswer	Gain
77.0	3	354.888	0.019	1450.641	9.7	-0.9	27.0489	4.0	955.0	3.16	Outcome2	-1.8	9.7	4000.0	Yes		11.5005662514156				ShowChoice	Gain
77.0	3	358.9	0.012	1454.653	9.7	-0.9	27.0489	1.0	955.0	3.16	Outcome2	-1.8	9.7	4000.0	Yes		11.5005662514156				ShowResult	Gain
77.0	3	359.92	0.02	1455.673	9.7	-0.9	27.0489	7.022	955.0	3.16	Outcome2	-1.8	9.7	4000.0	Yes		11.5005662514156				ISITrial	Gain
77.0	3	370.986	0.029	1466.739	9.7	-0.9	27.0489	2.766	955.0	3.16	Outcome2	-1.8	9.7	4000.0	Yes		11.5005662514156			752.0	TrialHappiness	Gain
77.0	3	374.998	4.012	1470.751	9.7	-0.9	27.0489	8.0	955.0	3.16	Outcome2	-1.8	9.7	4000.0	Yes		11.5005662514156				ISIRate	Gain
78.0	3	383.022	0.024	1478.775	7.24	3.62	27.9539	3.0	955.0	1.82	Outcome1	7.24	8.7	0.0	No	2.0	-1.4611174027935099	1.248	384.27		GetAnswer	Gain
78.0	3	384.293	0.023	1480.046	7.24	3.62	27.9539	4.0	955.0	1.82	Outcome1	7.24	8.7	0.0	No		-1.4611174027935099				ShowChoice	Gain
78.0	3	388.305	0.012	1484.058	7.24	3.62	27.9539	1.0	955.0	1.82	Outcome1	7.24	8.7	0.0	No		-1.4611174027935099				ShowResult	Gain
78.0	3	389.324	0.019	1485.077	7.24	3.62	27.9539	2.078	955.0	1.82	Outcome1	7.24	8.7	0.0	No		-1.4611174027935099				ISITrial	Gain
79.0	3	391.431	0.029	1487.184	0.0	0.0	27.9539	3.0	955.0	2.48	Certain	-6.03	5.3	2729.5	Yes	4.0	11.326160815402	0.967	392.398		GetAnswer	Gain
79.0	3	392.417	0.019	1488.17	0.0	0.0	27.9539	4.0	955.0	2.48	Certain	-6.03	5.3	2729.5	Yes		11.326160815402				ShowChoice	Gain
79.0	3	396.429	0.012	1492.182	0.0	0.0	27.9539	1.0	955.0	2.48	Certain	-6.03	5.3	2729.5	Yes		11.326160815402				ShowResult	Gain
79.0	3	397.449	0.02	1493.202	0.0	0.0	27.9539	3.829	955.0	2.48	Certain	-6.03	5.3	2729.5	Yes		11.326160815402				ISITrial	Gain
79.0	3	404.052	0.029	1499.805	0.0	0.0	27.9539	2.264	955.0	2.48	Certain	-6.03	5.3	2729.5	Yes		11.326160815402			696.0	TrialHappiness	Gain
79.0	3	408.064	4.012	1503.817	0.0	0.0	27.9539	2.918	955.0	2.48	Certain	-6.03	5.3	2729.5	Yes		11.326160815402				ISIRate	Gain
80.0	3	411.006	0.024	1506.759	-5.0	-5.0	27.3289	3.0	955.0	0.82	Certain	-11.01	1.5	0.0	No	4.0	12.507361268403198	1.865	412.871		GetAnswer	Mixed
80.0	3	412.895	0.024	1508.648	-5.0	-5.0	27.3289	4.0	955.0	0.82	Certain	-11.01	1.5	0.0	No		12.507361268403198				ShowChoice	Mixed
80.0	3	416.907	0.012	1512.66	-5.0	-5.0	27.3289	1.0	955.0	0.82	Certain	-11.01	1.5	0.0	No		12.507361268403198				ShowResult	Mixed
80.0	3	417.926	0.019	1513.679	-5.0	-5.0	27.3289	3.336	955.0	0.82	Certain	-11.01	1.5	0.0	No		12.507361268403198				ISITrial	Mixed
81.0	3	421.286	0.024	1517.039	-3.0	-3.0	26.9539	3.0	955.0	0.66	Certain	-9.5	3.3	3923.75	Yes	4.0	12.800679501698802	1.519	422.805		GetAnswer	Mixed
81.0	3	422.824	0.019	1518.577	-3.0	-3.0	26.9539	4.0	955.0	0.66	Certain	-9.5	3.3	3923.75	Yes		12.800679501698802				ShowChoice	Mixed
81.0	3	426.836	0.012	1522.589	-3.0	-3.0	26.9539	1.0	955.0	0.66	Certain	-9.5	3.3	3923.75	Yes		12.800679501698802				ShowResult	Mixed
81.0	3	427.856	0.02	1523.609	-3.0	-3.0	26.9539	3.919	955.0	0.66	Certain	-9.5	3.3	3923.75	Yes		12.800679501698802				ISITrial	Mixed
81.0	3	435.746	0.021	1531.499	-3.0	-3.0	26.9539	0.575	955.0	0.66	Certain	-9.5	3.3	3923.75	Yes		12.800679501698802			456.0	TrialHappiness	Mixed
81.0	3	439.758	4.012	1535.511	-3.0	-3.0	26.9539	7.695	955.0	0.66	Certain	-9.5	3.3	3923.75	Yes		12.800679501698802				ISIRate	Mixed
	3	447.481	0.028	1543.234				3.0													CurrentEarnings	
	3	450.507	0.026	1546.26				-0.001								{SPACE}		10.587	461.094		Goodbye	
