trial_number	block	onset	onset_delay	onset_unadjusted	amount_change	certain_amount	current_amount	duration	mood_target	multiplier	outcome	outcome1_amount	outcome2_amount	question_duration	rating	response	rpe	rt	rt_time	slider_response	trial_phase	trial_type
	0	-45.264	0.038	10.302				-0.001								{SPACE}		3.28	-41.984		Welcome	
	0	-41.965	0.019	13.601				5.0													LifeHappyPreview	
	0	-36.933	0.032	18.633				2.907												744.0	LifeHappiness	
	0	-14.675	0.029	40.891				4.0													BlockHappyPreview	
	0	-10.659	0.016	44.907				2.328												712.0	BlockStartHappiness	
	0	-3.429	0.028	52.137				-0.001								5.0					ScanWait	
	1	0.02	0.02	55.586				10.0													GetReady	
1.0	1	10.05	0.03	65.616	7.3	1.58	10.9125	3.0	955.0	2.48	Outcome2	3.17	7.3	0.0	No	2.0	4.127972819932049	1.134	11.184		GetAnswer	Gain
1.0	1	11.2	0.016	66.766	7.3	1.58	10.9125	4.0	955.0	2.48	Outcome2	3.17	7.3	0.0	No		4.127972819932049				ShowChoice	Gain
1.0	1	15.215	0.015	70.781	7.3	1.58	10.9125	1.0	955.0	2.48	Outcome2	3.17	7.3	0.0	No		4.127972819932049				ShowResult	Gain
1.0	1	16.231	0.016	71.797	7.3	1.58	10.9125	2.431	955.0	2.48	Outcome2	3.17	7.3	0.0	No		4.127972819932049				ISITrial	Gain
2.0	1	18.68	0.018	74.246	11.3	3.45	12.325	3.0	955.0	2.48	Outcome1	11.3	6.9	0.0	No	2.0	4.4031710079275195	2.058	20.738		GetAnswer	Loss
2.0	1	20.763	0.025	76.329	11.3	3.45	12.325	4.0	955.0	2.48	Outcome1	11.3	6.9	0.0	No		4.4031710079275195				ShowChoice	Loss
2.0	1	24.778	0.015	80.344	11.3	3.45	12.325	1.0	955.0	2.48	Outcome1	11.3	6.9	0.0	No		4.4031710079275195				ShowResult	Loss
2.0	1	25.794	0.016	81.36	11.3	3.45	12.325	4.568	955.0	2.48	Outcome1	11.3	6.9	0.0	No		4.4031710079275195				ISITrial	Loss
3.0	1	30.393	0.031	85.959	6.9	1.11	13.1875	3.0	955.0	2.0	Outcome2	2.22	6.9	2868.0	Yes	2.0	4.678369195922991	2.28	32.673		GetAnswer	Gain
3.0	1	32.692	0.019	88.258	6.9	1.11	13.1875	4.0	955.0	2.0	Outcome2	2.22	6.9	2868.0	Yes		4.678369195922991				ShowChoice	Gain
3.0	1	36.707	0.015	92.273	6.9	1.11	13.1875	1.0	955.0	2.0	Outcome2	2.22	6.9	2868.0	Yes		4.678369195922991				ShowResult	Gain
3.0	1	37.724	0.017	93.29	6.9	1.11	13.1875	3.243	955.0	2.0	Outcome2	2.22	6.9	2868.0	Yes		4.678369195922991				ISITrial	Gain
3.0	1	43.888	0.031	99.454	6.9	1.11	13.1875	2.839	955.0	2.0	Outcome2	2.22	6.9	2868.0	Yes		4.678369195922991			716.0	TrialHappiness	Gain
3.0	1	47.903	4.015	103.469	6.9	1.11	13.1875	3.472	955.0	2.0	Outcome2	2.22	6.9	2868.0	Yes		4.678369195922991				ISIRate	Gain
4.0	1	51.402	0.027	106.968	2.5	0.0	13.5	3.0	955.0	0.2	Outcome2	-2.39	2.5	0.0	No	2.0	4.88561721404304	1.806	53.208		GetAnswer	Mixed
4.0	1	53.235	0.027	108.801	2.5	0.0	13.5	4.0	955.0	0.2	Outcome2	-2.39	2.5	0.0	No		4.88561721404304				ShowChoice	Mixed
4.0	1	57.25	0.015	112.816	2.5	0.0	13.5	1.0	955.0	0.2	Outcome2	-2.39	2.5	0.0	No		4.88561721404304				ShowResult	Mixed
4.0	1	58.266	0.016	113.832	2.5	0.0	13.5	2.011	955.0	0.2	Outcome2	-2.39	2.5	0.0	No		4.88561721404304				ISITrial	Mixed
5.0	1	60.299	0.022	115.865	10.7	2.77	14.8375	3.0	955.0	1.82	Outcome1	10.7	5.54	2582.5	Yes	2.0	5.156285390713481	1.4	61.699		GetAnswer	Loss
5.0	1	61.715	0.016	117.281	10.7	2.77	14.8375	4.0	955.0	1.82	Outcome1	10.7	5.54	2582.5	Yes		5.156285390713481				ShowChoice	Loss
5.0	1	65.73	0.015	121.296	10.7	2.77	14.8375	1.0	955.0	1.82	Outcome1	10.7	5.54	2582.5	Yes		5.156285390713481				ShowResult	Loss
5.0	1	66.747	0.017	122.313	10.7	2.77	14.8375	5.129	955.0	1.82	Outcome1	10.7	5.54	2582.5	Yes		5.156285390713481				ISITrial	Loss
5.0	1	74.494	0.017	130.06	10.7	2.77	14.8375	2.354	955.0	1.82	Outcome1	10.7	5.54	2582.5	Yes	2{-2}2{-2}2{-2}2{-2}2{-2}	5.156285390713481	2.354	76.848	836.0	TrialHappiness	Loss
5.0	1	78.509	4.015	134.075	10.7	2.77	14.8375	2.33	955.0	1.82	Outcome1	10.7	5.54	2582.5	Yes		5.156285390713481				ISIRate	Loss
6.0	1	80.858	0.019	136.424	3.5	1.75	15.275	3.0	955.0	1.5	Outcome1	3.5	4.1	0.0	No	2.0	-0.59682899207248	1.15	82.008		GetAnswer	Mixed
6.0	1	82.025	0.017	137.591	3.5	1.75	15.275	4.0	955.0	1.5	Outcome1	3.5	4.1	0.0	No		-0.59682899207248				ShowChoice	Mixed
6.0	1	86.04	0.015	141.606	3.5	1.75	15.275	1.0	955.0	1.5	Outcome1	3.5	4.1	0.0	No		-0.59682899207248				ShowResult	Mixed
6.0	1	87.056	0.016	142.622	3.5	1.75	15.275	6.232	955.0	1.5	Outcome1	3.5	4.1	0.0	No		-0.59682899207248				ISITrial	Mixed
7.0	1	93.304	0.016	148.87	6.09	3.04	16.0362	3.0	955.0	1.82	Outcome2	6.7	6.09	0.0	No	2.0	-0.6080596451491129	1.157	94.461		GetAnswer	Gain
7.0	1	94.487	0.026	150.053	6.09	3.04	16.0362	4.0	955.0	1.82	Outcome2	6.7	6.09	0.0	No		-0.6080596451491129				ShowChoice	Gain
7.0	1	98.502	0.015	154.068	6.09	3.04	16.0362	1.0	955.0	1.82	Outcome2	6.7	6.09	0.0	No		-0.6080596451491129				ShowResult	Gain
7.0	1	99.519	0.017	155.085	6.09	3.04	16.0362	2.305	955.0	1.82	Outcome2	6.7	6.09	0.0	No		-0.6080596451491129				ISITrial	Gain
8.0	1	101.851	0.027	157.417	12.1	4.22	17.5487	3.0	955.0	4.2	Outcome2	8.44	12.1	3112.5	Yes	2.0	3.65798414496036	1.084	102.935		GetAnswer	Loss
8.0	1	102.951	0.016	158.517	12.1	4.22	17.5487	4.0	955.0	4.2	Outcome2	8.44	12.1	3112.5	Yes		3.65798414496036				ShowChoice	Loss
8.0	1	106.966	0.015	162.532	12.1	4.22	17.5487	1.0	955.0	4.2	Outcome2	8.44	12.1	3112.5	Yes		3.65798414496036				ShowResult	Loss
8.0	1	107.982	0.016	163.548	12.1	4.22	17.5487	3.506	955.0	4.2	Outcome2	8.44	12.1	3112.5	Yes		3.65798414496036				ISITrial	Loss
8.0	1	114.647	0.021	170.213	12.1	4.22	17.5487	3.806	955.0	4.2	Outcome2	8.44	12.1	3112.5	Yes		3.65798414496036			832.0	TrialHappiness	Loss
8.0	1	118.662	4.015	174.228	12.1	4.22	17.5487	4.45	955.0	4.2	Outcome2	8.44	12.1	3112.5	Yes		3.65798414496036				ISIRate	Loss
9.0	1	123.127	0.015	178.693	5.05	2.52	18.1799	3.0	955.0	3.16	Outcome2	5.7	5.05	0.0	No	2.0	-0.64675349188373	0.996	124.123		GetAnswer	Gain
9.0	1	124.143	0.02	179.709	5.05	2.52	18.1799	4.0	955.0	3.16	Outcome2	5.7	5.05	0.0	No		-0.64675349188373				ShowChoice	Gain
9.0	1	128.158	0.015	183.724	5.05	2.52	18.1799	1.0	955.0	3.16	Outcome2	5.7	5.05	0.0	No		-0.64675349188373				ShowResult	Gain
9.0	1	129.175	0.017	184.741	5.05	2.52	18.1799	2.0	955.0	3.16	Outcome2	5.7	5.05	0.0	No		-0.64675349188373				ISITrial	Gain
10.0	1	131.191	0.016	186.757	-2.0	-2.0	17.9299	3.0	955.0	1.0	Certain	-0.3	-4.3	4000.0	Yes	4.0	4.0	2.013	133.204		GetAnswer	Mixed
10.0	1	133.223	0.019	188.789	-2.0	-2.0	17.9299	4.0	955.0	1.0	Certain	-0.3	-4.3	4000.0	Yes		4.0				ShowChoice	Mixed
10.0	1	137.239	0.016	192.805	-2.0	-2.0	17.9299	1.0	955.0	1.0	Certain	-0.3	-4.3	4000.0	Yes		4.0				ShowResult	Mixed
10.0	1	138.255	0.016	193.821	-2.0	-2.0	17.9299	2.0	955.0	1.0	Certain	-0.3	-4.3	4000.0	Yes		4.0				ISITrial	Mixed
10.0	1	144.286	0.015	199.852	-2.0	-2.0	17.9299	2.673	955.0	1.0	Certain	-0.3	-4.3	4000.0	Yes		4.0			696.0	TrialHappiness	Mixed
10.0	1	148.301	4.015	203.867	-2.0	-2.0	17.9299	8.0	955.0	1.0	Certain	-0.3	-4.3	4000.0	Yes		4.0				ISIRate	Mixed
11.0	1	156.332	0.031	211.898	-1.0	-1.0	17.8049	3.0	955.0	0.82	Certain	-4.95	1.5	0.0	No	4.0	6.449603624009059	1.446	157.778		GetAnswer	Mixed
11.0	1	157.798	0.02	213.364	-1.0	-1.0	17.8049	4.0	955.0	0.82	Certain	-4.95	1.5	0.0	No		6.449603624009059				ShowChoice	Mixed
11.0	1	161.813	0.015	217.379	-1.0	-1.0	17.8049	1.0	955.0	0.82	Certain	-4.95	1.5	0.0	No		6.449603624009059				ShowResult	Mixed
11.0	1	162.83	0.017	218.396	-1.0	-1.0	17.8049	3.324	955.0	0.82	Certain	-4.95	1.5	0.0	No		6.449603624009059				ISITrial	Mixed
12.0	1	166.178	0.024	221.744	12.05	6.02	19.3111	3.0	955.0	2.48	Outcome1	12.05	13.3	2618.75	Yes	2.0	-1.24631936579841	1.07	167.248		GetAnswer	Loss
12.0	1	167.261	0.012	222.827	12.05	6.02	19.3111	4.0	955.0	2.48	Outcome1	12.05	13.3	2618.75	Yes		-1.24631936579841				ShowChoice	Loss
12.0	1	171.277	0.016	226.843	12.05	6.02	19.3111	1.0	955.0	2.48	Outcome1	12.05	13.3	2618.75	Yes		-1.24631936579841				ShowResult	Loss
12.0	1	172.293	0.016	227.859	12.05	6.02	19.3111	6.642	955.0	2.48	Outcome1	12.05	13.3	2618.75	Yes		-1.24631936579841				ISITrial	Loss
12.0	1	181.606	0.03	237.172	12.05	6.02	19.3111	1.358	955.0	2.48	Outcome1	12.05	13.3	2618.75	Yes	2{-2}2{-2}	-1.24631936579841	1.358	182.964	712.0	TrialHappiness	Loss
12.0	1	185.622	4.016	241.188	12.05	6.02	19.3111	2.475	955.0	2.48	Outcome1	12.05	13.3	2618.75	Yes		-1.24631936579841				ISIRate	Loss
13.0	1	188.121	0.024	243.687	13.7	3.47	21.0236	3.0	955.0	3.16	Outcome2	6.94	13.7	0.0	No	2.0	6.764439411098531	1.028	189.149		GetAnswer	Loss
13.0	1	189.17	0.021	244.736	13.7	3.47	21.0236	4.0	955.0	3.16	Outcome2	6.94	13.7	0.0	No		6.764439411098531				ShowChoice	Loss
13.0	1	193.186	0.016	248.752	13.7	3.47	21.0236	1.0	955.0	3.16	Outcome2	6.94	13.7	0.0	No		6.764439411098531				ShowResult	Loss
13.0	1	194.202	0.016	249.768	13.7	3.47	21.0236	3.48	955.0	3.16	Outcome2	6.94	13.7	0.0	No		6.764439411098531				ISITrial	Loss
14.0	1	197.701	0.019	253.267	11.87	5.94	22.5074	3.0	955.0	2.22	Outcome1	11.87	13.1	0.0	No	2.0	-1.2287655719139299	0.862	198.563		GetAnswer	Loss
14.0	1	198.584	0.021	254.15	11.87	5.94	22.5074	4.0	955.0	2.22	Outcome1	11.87	13.1	0.0	No		-1.2287655719139299				ShowChoice	Loss
14.0	1	202.599	0.015	258.165	11.87	5.94	22.5074	1.0	955.0	2.22	Outcome1	11.87	13.1	0.0	No		-1.2287655719139299				ShowResult	Loss
14.0	1	203.615	0.016	259.181	11.87	5.94	22.5074	5.019	955.0	2.22	Outcome1	11.87	13.1	0.0	No		-1.2287655719139299				ISITrial	Loss
15.0	1	208.663	0.029	264.229	12.7	2.7	24.0949	3.0	955.0	1.82	Outcome2	5.39	12.7	3348.5	Yes	2.0	7.31483578708947	1.026	209.689		GetAnswer	Loss
15.0	1	209.713	0.024	265.279	12.7	2.7	24.0949	4.0	955.0	1.82	Outcome2	5.39	12.7	3348.5	Yes		7.31483578708947				ShowChoice	Loss
15.0	1	213.728	0.015	269.294	12.7	2.7	24.0949	1.0	955.0	1.82	Outcome2	5.39	12.7	3348.5	Yes		7.31483578708947				ShowResult	Loss
15.0	1	214.745	0.017	270.311	12.7	2.7	24.0949	7.614	955.0	1.82	Outcome2	5.39	12.7	3348.5	Yes		7.31483578708947				ISITrial	Loss
15.0	1	225.741	0.018	281.307	12.7	2.7	24.0949	1.172	955.0	1.82	Outcome2	5.39	12.7	3348.5	Yes		7.31483578708947			824.0	TrialHappiness	Loss
15.0	1	229.756	4.015	285.322	12.7	2.7	24.0949	5.394	955.0	1.82	Outcome2	5.39	12.7	3348.5	Yes		7.31483578708947				ISIRate	Loss
16.0	1	235.171	0.021	290.737	-0.1	-3.0	24.0824	3.0	955.0	1.2	Outcome2	-5.79	-0.1	0.0	No	2.0	5.687429218573049	1.626	236.797		GetAnswer	Mixed
16.0	1	236.82	0.023	292.386	-0.1	-3.0	24.0824	4.0	955.0	1.2	Outcome2	-5.79	-0.1	0.0	No		5.687429218573049				ShowChoice	Mixed
16.0	1	240.835	0.015	296.401	-0.1	-3.0	24.0824	1.0	955.0	1.2	Outcome2	-5.79	-0.1	0.0	No		5.687429218573049				ShowResult	Mixed
16.0	1	241.852	0.017	297.418	-0.1	-3.0	24.0824	3.008	955.0	1.2	Outcome2	-5.79	-0.1	0.0	No		5.687429218573049				ISITrial	Mixed
17.0	1	244.884	0.024	300.45	10.9	2.53	25.4449	3.0	955.0	2.0	Outcome2	5.06	10.9	3041.5	Yes	2.0	5.83578708946772	1.94	246.824		GetAnswer	Loss
17.0	1	246.85	0.026	302.416	10.9	2.53	25.4449	4.0	955.0	2.0	Outcome2	5.06	10.9	3041.5	Yes		5.83578708946772				ShowChoice	Loss
17.0	1	250.865	0.015	306.431	10.9	2.53	25.4449	1.0	955.0	2.0	Outcome2	5.06	10.9	3041.5	Yes		5.83578708946772				ShowResult	Loss
17.0	1	251.881	0.016	307.447	10.9	2.53	25.4449	3.566	955.0	2.0	Outcome2	5.06	10.9	3041.5	Yes		5.83578708946772				ISITrial	Loss
17.0	1	258.529	0.023	314.095	10.9	2.53	25.4449	1.807	955.0	2.0	Outcome2	5.06	10.9	3041.5	Yes		5.83578708946772			888.0	TrialHappiness	Loss
17.0	1	262.544	4.015	318.11	10.9	2.53	25.4449	4.166	955.0	2.0	Outcome2	5.06	10.9	3041.5	Yes		5.83578708946772				ISIRate	Loss
18.0	1	266.726	0.016	322.292	4.71	2.36	26.0337	3.0	955.0	2.48	Outcome1	4.71	5.3	0.0	No	2.0	-0.585126462816157	1.337	268.063		GetAnswer	Gain
18.0	1	268.076	0.013	323.642	4.71	2.36	26.0337	4.0	955.0	2.48	Outcome1	4.71	5.3	0.0	No		-0.585126462816157				ShowChoice	Gain
18.0	1	272.091	0.015	327.657	4.71	2.36	26.0337	1.0	955.0	2.48	Outcome1	4.71	5.3	0.0	No		-0.585126462816157				ShowResult	Gain
18.0	1	273.107	0.016	328.673	4.71	2.36	26.0337	6.787	955.0	2.48	Outcome1	4.71	5.3	0.0	No		-0.585126462816157				ISITrial	Gain
19.0	1	279.922	0.028	335.488	-1.69	-1.0	25.8225	3.0	955.0	0.4	Outcome1	-1.69	-1.1	0.0	No	2.0	-0.591449603624009	1.342	281.264		GetAnswer	Mixed
19.0	1	281.288	0.024	336.854	-1.69	-1.0	25.8225	4.0	955.0	0.4	Outcome1	-1.69	-1.1	0.0	No		-0.591449603624009				ShowChoice	Mixed
19.0	1	285.303	0.015	340.869	-1.69	-1.0	25.8225	1.0	955.0	0.4	Outcome1	-1.69	-1.1	0.0	No		-0.591449603624009				ShowResult	Mixed
19.0	1	286.319	0.016	341.885	-1.69	-1.0	25.8225	2.0	955.0	0.4	Outcome1	-1.69	-1.1	0.0	No		-0.591449603624009				ISITrial	Mixed
20.0	1	288.352	0.033	343.918	7.1	1.02	26.71	3.0	955.0	2.22	Outcome2	2.05	7.1	2921.25	Yes	2.0	5.04869762174405	1.282	289.634		GetAnswer	Gain
20.0	1	289.652	0.018	345.218	7.1	1.02	26.71	4.0	955.0	2.22	Outcome2	2.05	7.1	2921.25	Yes		5.04869762174405				ShowChoice	Gain
20.0	1	293.667	0.015	349.233	7.1	1.02	26.71	1.0	955.0	2.22	Outcome2	2.05	7.1	2921.25	Yes		5.04869762174405				ShowResult	Gain
20.0	1	294.683	0.016	350.249	7.1	1.02	26.71	8.0	955.0	2.22	Outcome2	2.05	7.1	2921.25	Yes		5.04869762174405				ISITrial	Gain
20.0	1	305.646	0.028	361.212	7.1	1.02	26.71	2.19	955.0	2.22	Outcome2	2.05	7.1	2921.25	Yes		5.04869762174405			768.0	TrialHappiness	Gain
20.0	1	309.661	4.015	365.227	7.1	1.02	26.71	3.685	955.0	2.22	Outcome2	2.05	7.1	2921.25	Yes		5.04869762174405				ISIRate	Gain
21.0	1	313.377	0.031	368.943	8.7	0.77	27.7975	3.0	955.0	1.82	Outcome2	1.54	8.7	0.0	No	2.0	7.163080407701019	1.075	314.452		GetAnswer	Gain
21.0	1	314.476	0.024	370.042	8.7	0.77	27.7975	4.0	955.0	1.82	Outcome2	1.54	8.7	0.0	No		7.163080407701019				ShowChoice	Gain
21.0	1	318.491	0.015	374.057	8.7	0.77	27.7975	1.0	955.0	1.82	Outcome2	1.54	8.7	0.0	No		7.163080407701019				ShowResult	Gain
21.0	1	319.508	0.017	375.074	8.7	0.77	27.7975	3.555	955.0	1.82	Outcome2	1.54	8.7	0.0	No		7.163080407701019				ISITrial	Gain
22.0	1	323.09	0.027	378.656	-2.01	-1.0	27.5462	3.0	955.0	0.52	Outcome1	-2.01	-0.9	3219.5	Yes	2.0	-1.10872027180068	2.108	325.198		GetAnswer	Mixed
22.0	1	325.222	0.024	380.788	-2.01	-1.0	27.5462	4.0	955.0	0.52	Outcome1	-2.01	-0.9	3219.5	Yes		-1.10872027180068				ShowChoice	Mixed
22.0	1	329.238	0.016	384.804	-2.01	-1.0	27.5462	1.0	955.0	0.52	Outcome1	-2.01	-0.9	3219.5	Yes		-1.10872027180068				ShowResult	Mixed
22.0	1	330.254	0.016	385.82	-2.01	-1.0	27.5462	6.793	955.0	0.52	Outcome1	-2.01	-0.9	3219.5	Yes		-1.10872027180068				ISITrial	Mixed
22.0	1	340.317	0.029	395.883	-2.01	-1.0	27.5462	3.756	955.0	0.52	Outcome1	-2.01	-0.9	3219.5	Yes	2{-2}4{-4}2{-2}	-1.10872027180068	3.756	344.073	656.0	TrialHappiness	Mixed
22.0	1	344.332	4.015	399.898	-2.01	-1.0	27.5462	4.878	955.0	0.52	Outcome1	-2.01	-0.9	3219.5	Yes		-1.10872027180068				ISIRate	Mixed
23.0	1	349.231	0.021	404.797	9.5	0.0	28.7337	3.0	955.0	2.8	Outcome2	0.01	9.5	0.0	No	2.0	9.489241223103061	1.851	351.082		GetAnswer	Gain
23.0	1	351.097	0.015	406.663	9.5	0.0	28.7337	4.0	955.0	2.8	Outcome2	0.01	9.5	0.0	No		9.489241223103061				ShowChoice	Gain
23.0	1	355.112	0.015	410.678	9.5	0.0	28.7337	1.0	955.0	2.8	Outcome2	0.01	9.5	0.0	No		9.489241223103061				ShowResult	Gain
23.0	1	356.128	0.016	411.694	9.5	0.0	28.7337	8.0	955.0	2.8	Outcome2	0.01	9.5	0.0	No		9.489241223103061				ISITrial	Gain
24.0	1	364.159	0.031	419.725	0.0	0.0	28.7337	3.0	955.0	0.2	Certain	0.5	-1.11	3255.0	Yes	4.0	-1.60909777274443	1.783	365.942		GetAnswer	Mixed
24.0	1	365.958	0.016	421.524	0.0	0.0	28.7337	4.0	955.0	0.2	Certain	0.5	-1.11	3255.0	Yes		-1.60909777274443				ShowChoice	Mixed
24.0	1	369.973	0.015	425.539	0.0	0.0	28.7337	1.0	955.0	0.2	Certain	0.5	-1.11	3255.0	Yes		-1.60909777274443				ShowResult	Mixed
24.0	1	370.99	0.017	426.556	0.0	0.0	28.7337	2.0	955.0	0.2	Certain	0.5	-1.11	3255.0	Yes		-1.60909777274443				ISITrial	Mixed
24.0	1	376.288	0.027	431.854	0.0	0.0	28.7337	3.971	955.0	0.2	Certain	0.5	-1.11	3255.0	Yes		-1.60909777274443			576.0	TrialHappiness	Mixed
24.0	1	380.303	4.015	435.869	0.0	0.0	28.7337	5.02	955.0	0.2	Certain	0.5	-1.11	3255.0	Yes		-1.60909777274443				ISIRate	Mixed
25.0	1	385.351	0.028	440.917	8.5	2.0	29.7962	3.0	955.0	1.68	Outcome2	-3.03	8.5	0.0	No	2.0	11.5254813137033	1.761	387.112		GetAnswer	Gain
25.0	1	387.134	0.022	442.7	8.5	2.0	29.7962	4.0	955.0	1.68	Outcome2	-3.03	8.5	0.0	No		11.5254813137033				ShowChoice	Gain
25.0	1	391.149	0.015	446.715	8.5	2.0	29.7962	1.0	955.0	1.68	Outcome2	-3.03	8.5	0.0	No		11.5254813137033				ShowResult	Gain
25.0	1	392.165	0.016	447.731	8.5	2.0	29.7962	3.749	955.0	1.68	Outcome2	-3.03	8.5	0.0	No		11.5254813137033				ISITrial	Gain
26.0	1	395.931	0.017	451.497	12.3	0.18	31.3337	3.0	955.0	5.0	Outcome1	12.3	0.35	0.0	No	2.0	11.9546998867497	0.961	396.892		GetAnswer	Loss
26.0	1	396.914	0.022	452.48	12.3	0.18	31.3337	4.0	955.0	5.0	Outcome1	12.3	0.35	0.0	No		11.9546998867497				ShowChoice	Loss
26.0	1	400.929	0.015	456.495	12.3	0.18	31.3337	1.0	955.0	5.0	Outcome1	12.3	0.35	0.0	No		11.9546998867497				ShowResult	Loss
26.0	1	401.945	0.016	457.511	12.3	0.18	31.3337	7.834	955.0	5.0	Outcome1	12.3	0.35	0.0	No		11.9546998867497				ISITrial	Loss
27.0	1	409.809	0.03	465.375	13.9	0.76	33.0712	3.0	955.0	3.6	Outcome1	13.9	1.52	2549.75	Yes	2.0	12.3839184597961	0.93	410.739		GetAnswer	Loss
27.0	1	410.759	0.02	466.325	13.9	0.76	33.0712	4.0	955.0	3.6	Outcome1	13.9	1.52	2549.75	Yes		12.3839184597961				ShowChoice	Loss
27.0	1	414.774	0.015	470.34	13.9	0.76	33.0712	1.0	955.0	3.6	Outcome1	13.9	1.52	2549.75	Yes		12.3839184597961				ShowResult	Loss
27.0	1	415.79	0.016	471.356	13.9	0.76	33.0712	4.225	955.0	3.6	Outcome1	13.9	1.52	2549.75	Yes		12.3839184597961				ISITrial	Loss
27.0	1	422.605	0.016	478.171	13.9	0.76	33.0712	2.323	955.0	3.6	Outcome1	13.9	1.52	2549.75	Yes		12.3839184597961			896.0	TrialHappiness	Loss
27.0	1	426.62	4.015	482.186	13.9	0.76	33.0712	2.199	955.0	3.6	Outcome1	13.9	1.52	2549.75	Yes		12.3839184597961				ISIRate	Loss
	1	428.836	0.017	484.402				-0.001								{SPACE}		13.729	442.565		Rest	
	1	442.581	0.016	498.147				4.0													BlockHappyPreview	
	1	446.596	0.015	502.162				1.289												800.0	BlockStartHappiness	
	1	473.753	0.021	529.319				-0.001								5.0		4.479	478.232		ScanWait	
	2	0.02	0.02	533.818				10.0													GetReady	
28.0	2	10.033	0.013	543.831	-0.72	-0.36	32.9812	3.0	70.0	3.16	Outcome2	11.7	-0.72	0.0	No	2.0	-12.414965986394598	1.615	11.648		GetAnswer	Loss
28.0	2	11.666	0.018	545.464	-0.72	-0.36	32.9812	4.0	70.0	3.16	Outcome2	11.7	-0.72	0.0	No		-12.414965986394598				ShowChoice	Loss
28.0	2	15.681	0.015	549.479	-0.72	-0.36	32.9812	1.0	70.0	3.16	Outcome2	11.7	-0.72	0.0	No		-12.414965986394598				ShowResult	Loss
28.0	2	16.697	0.016	550.495	-0.72	-0.36	32.9812	3.575	70.0	3.16	Outcome2	11.7	-0.72	0.0	No		-12.414965986394598				ISITrial	Loss
29.0	2	20.296	0.024	554.094	-1.57	-1.57	32.785	3.0	70.0	4.2	Certain	10.1	-3.14	3529.0	Yes	4.0	-13.2426303854875	1.431	21.727		GetAnswer	Gain
29.0	2	21.745	0.018	555.543	-1.57	-1.57	32.785	4.0	70.0	4.2	Certain	10.1	-3.14	3529.0	Yes		-13.2426303854875				ShowChoice	Gain
29.0	2	25.761	0.016	559.559	-1.57	-1.57	32.785	1.0	70.0	4.2	Certain	10.1	-3.14	3529.0	Yes		-13.2426303854875				ShowResult	Gain
29.0	2	26.777	0.016	560.575	-1.57	-1.57	32.785	3.955	70.0	4.2	Certain	10.1	-3.14	3529.0	Yes		-13.2426303854875				ISITrial	Gain
29.0	2	34.291	0.02	568.089	-1.57	-1.57	32.785	0.856	70.0	4.2	Certain	10.1	-3.14	3529.0	Yes		-13.2426303854875			416.0	TrialHappiness	Gain
29.0	2	38.306	4.015	572.104	-1.57	-1.57	32.785	6.116	70.0	4.2	Certain	10.1	-3.14	3529.0	Yes		-13.2426303854875				ISIRate	Gain
30.0	2	44.437	0.015	578.235	0.56	0.28	32.855	3.0	70.0	4.2	Outcome1	0.56	8.1	0.0	No	2.0	-7.5396825396825395	1.331	45.768		GetAnswer	Gain
30.0	2	45.787	0.019	579.585	0.56	0.28	32.855	4.0	70.0	4.2	Outcome1	0.56	8.1	0.0	No		-7.5396825396825395				ShowChoice	Gain
30.0	2	49.802	0.015	583.6	0.56	0.28	32.855	1.0	70.0	4.2	Outcome1	0.56	8.1	0.0	No		-7.5396825396825395				ShowResult	Gain
30.0	2	50.819	0.017	584.617	0.56	0.28	32.855	4.453	70.0	4.2	Outcome1	0.56	8.1	0.0	No		-7.5396825396825395				ISITrial	Gain
31.0	2	55.3	0.028	589.098	-4.83	-1.0	32.2512	3.0	70.0	0.52	Outcome2	3.1	-4.83	2503.25	Yes	2.0	-7.931972789115651	1.419	56.719		GetAnswer	Mixed
31.0	2	56.733	0.014	590.531	-4.83	-1.0	32.2512	4.0	70.0	0.52	Outcome2	3.1	-4.83	2503.25	Yes		-7.931972789115651				ShowChoice	Mixed
31.0	2	60.748	0.015	594.546	-4.83	-1.0	32.2512	1.0	70.0	0.52	Outcome2	3.1	-4.83	2503.25	Yes		-7.931972789115651				ShowResult	Mixed
31.0	2	61.765	0.017	595.563	-4.83	-1.0	32.2512	4.786	70.0	0.52	Outcome2	3.1	-4.83	2503.25	Yes		-7.931972789115651				ISITrial	Mixed
31.0	2	69.095	0.029	602.893	-4.83	-1.0	32.2512	1.491	70.0	0.52	Outcome2	3.1	-4.83	2503.25	Yes		-7.931972789115651			320.0	TrialHappiness	Mixed
31.0	2	73.111	4.016	606.909	-4.83	-1.0	32.2512	2.013	70.0	0.52	Outcome2	3.1	-4.83	2503.25	Yes		-7.931972789115651				ISIRate	Mixed
32.0	2	75.143	0.019	608.941	1.01	0.5	32.3774	3.0	70.0	3.16	Outcome1	1.01	7.7	0.0	No	2.0	-6.691609977324259	1.007	76.15		GetAnswer	Gain
32.0	2	76.176	0.025	609.974	1.01	0.5	32.3774	4.0	70.0	3.16	Outcome1	1.01	7.7	0.0	No		-6.691609977324259				ShowChoice	Gain
32.0	2	80.192	0.016	613.99	1.01	0.5	32.3774	1.0	70.0	3.16	Outcome1	1.01	7.7	0.0	No		-6.691609977324259				ShowResult	Gain
32.0	2	81.208	0.016	615.006	1.01	0.5	32.3774	2.0	70.0	3.16	Outcome1	1.01	7.7	0.0	No		-6.691609977324259				ISITrial	Gain
33.0	2	83.224	0.016	617.022	0.0	0.0	32.3774	3.0	70.0	1.5	Certain	0.02	-1.22	0.0	No	4.0	1.24263038548753	1.367	84.591		GetAnswer	Mixed
33.0	2	84.607	0.016	618.405	0.0	0.0	32.3774	4.0	70.0	1.5	Certain	0.02	-1.22	0.0	No		1.24263038548753				ShowChoice	Mixed
33.0	2	88.622	0.015	622.42	0.0	0.0	32.3774	1.0	70.0	1.5	Certain	0.02	-1.22	0.0	No		1.24263038548753				ShowResult	Mixed
33.0	2	89.638	0.016	623.436	0.0	0.0	32.3774	5.099	70.0	1.5	Certain	0.02	-1.22	0.0	No		1.24263038548753				ISITrial	Mixed
34.0	2	94.753	0.016	628.551	-5.0	-5.0	31.7524	3.0	70.0	0.2	Certain	-8.76	-1.5	3231.5	Yes	4.0	-7.2585034013605405	1.238	95.991		GetAnswer	Mixed
34.0	2	96.003	0.012	629.801	-5.0	-5.0	31.7524	4.0	70.0	0.2	Certain	-8.76	-1.5	3231.5	Yes		-7.2585034013605405				ShowChoice	Mixed
34.0	2	100.018	0.015	633.816	-5.0	-5.0	31.7524	1.0	70.0	0.2	Certain	-8.76	-1.5	3231.5	Yes		-7.2585034013605405				ShowResult	Mixed
34.0	2	101.034	0.016	634.832	-5.0	-5.0	31.7524	4.784	70.0	0.2	Certain	-8.76	-1.5	3231.5	Yes		-7.2585034013605405				ISITrial	Mixed
34.0	2	109.081	0.017	642.879	-5.0	-5.0	31.7524	2.658	70.0	0.2	Certain	-8.76	-1.5	3231.5	Yes		-7.2585034013605405			384.0	TrialHappiness	Mixed
34.0	2	113.097	4.016	646.895	-5.0	-5.0	31.7524	4.926	70.0	0.2	Certain	-8.76	-1.5	3231.5	Yes		-7.2585034013605405				ISIRate	Mixed
35.0	2	118.045	0.022	651.843	3.38	2.0	32.1749	3.0	70.0	2.8	Outcome2	1.83	3.38	0.0	No	2.0	1.5498866213151898	1.329	119.374		GetAnswer	Loss
35.0	2	119.394	0.019	653.192	3.38	2.0	32.1749	4.0	70.0	2.8	Outcome2	1.83	3.38	0.0	No		1.5498866213151898				ShowChoice	Loss
35.0	2	123.41	0.016	657.208	3.38	2.0	32.1749	1.0	70.0	2.8	Outcome2	1.83	3.38	0.0	No		1.5498866213151898				ShowResult	Loss
35.0	2	124.426	0.016	658.224	3.38	2.0	32.1749	2.098	70.0	2.8	Outcome2	1.83	3.38	0.0	No		1.5498866213151898				ISITrial	Loss
36.0	2	126.542	0.018	660.34	0.0	0.0	32.1749	3.0	70.0	1.68	Certain	-4.49	4.5	3335.75	Yes	4.0	-8.98639455782313	1.587	128.129		GetAnswer	Gain
36.0	2	128.141	0.012	661.939	0.0	0.0	32.1749	4.0	70.0	1.68	Certain	-4.49	4.5	3335.75	Yes		-8.98639455782313				ShowChoice	Gain
36.0	2	132.157	0.016	665.955	0.0	0.0	32.1749	1.0	70.0	1.68	Certain	-4.49	4.5	3335.75	Yes		-8.98639455782313				ShowResult	Gain
36.0	2	133.173	0.016	666.971	0.0	0.0	32.1749	5.156	70.0	1.68	Certain	-4.49	4.5	3335.75	Yes		-8.98639455782313				ISITrial	Gain
36.0	2	141.72	0.03	675.518	0.0	0.0	32.1749	2.739	70.0	1.68	Certain	-4.49	4.5	3335.75	Yes		-8.98639455782313			504.0	TrialHappiness	Gain
36.0	2	145.735	4.015	679.533	0.0	0.0	32.1749	5.343	70.0	1.68	Certain	-4.49	4.5	3335.75	Yes		-8.98639455782313				ISIRate	Gain
37.0	2	151.1	0.022	684.898	-7.0	-7.0	31.2999	3.0	70.0	0.3	Certain	-1.3	-12.68	0.0	No	4.0	-11.3832199546485	1.511	152.611		GetAnswer	Mixed
37.0	2	152.633	0.022	686.431	-7.0	-7.0	31.2999	4.0	70.0	0.3	Certain	-1.3	-12.68	0.0	No		-11.3832199546485				ShowChoice	Mixed
37.0	2	156.648	0.015	690.446	-7.0	-7.0	31.2999	1.0	70.0	0.3	Certain	-1.3	-12.68	0.0	No		-11.3832199546485				ShowResult	Mixed
37.0	2	157.664	0.016	691.462	-7.0	-7.0	31.2999	3.598	70.0	0.3	Certain	-1.3	-12.68	0.0	No		-11.3832199546485				ISITrial	Mixed
38.0	2	161.28	0.018	695.078	-7.58	-1.0	30.3524	3.0	70.0	2.0	Outcome1	-7.58	4.3	0.0	No	2.0	-11.875283446712	2.267	163.547		GetAnswer	Mixed
38.0	2	163.562	0.015	697.36	-7.58	-1.0	30.3524	4.0	70.0	2.0	Outcome1	-7.58	4.3	0.0	No		-11.875283446712				ShowChoice	Mixed
38.0	2	167.577	0.015	701.375	-7.58	-1.0	30.3524	1.0	70.0	2.0	Outcome1	-7.58	4.3	0.0	No		-11.875283446712				ShowResult	Mixed
38.0	2	168.594	0.017	702.392	-7.58	-1.0	30.3524	4.787	70.0	2.0	Outcome1	-7.58	4.3	0.0	No		-11.875283446712				ISITrial	Mixed
39.0	2	173.409	0.028	707.207	1.38	0.0	30.5249	3.0	70.0	2.8	Outcome2	-0.8	1.38	2864.25	Yes	2.0	2.17876039304611	1.394	174.803		GetAnswer	Gain
39.0	2	174.825	0.022	708.623	1.38	0.0	30.5249	4.0	70.0	2.8	Outcome2	-0.8	1.38	2864.25	Yes		2.17876039304611				ShowChoice	Gain
39.0	2	178.84	0.015	712.638	1.38	0.0	30.5249	1.0	70.0	2.8	Outcome2	-0.8	1.38	2864.25	Yes		2.17876039304611				ShowResult	Gain
39.0	2	179.856	0.016	713.654	1.38	0.0	30.5249	2.348	70.0	2.8	Outcome2	-0.8	1.38	2864.25	Yes		2.17876039304611				ISITrial	Gain
39.0	2	185.105	0.019	718.903	1.38	0.0	30.5249	2.623	70.0	2.8	Outcome2	-0.8	1.38	2864.25	Yes		2.17876039304611			360.0	TrialHappiness	Gain
39.0	2	189.12	4.015	722.918	1.38	0.0	30.5249	3.457	70.0	2.8	Outcome2	-0.8	1.38	2864.25	Yes		2.17876039304611				ISIRate	Gain
40.0	2	192.602	0.025	726.4	1.58	1.0	30.7224	3.0	70.0	5.0	Outcome2	-0.05	1.58	0.0	No	2.0	1.6347316704459598	1.176	193.778		GetAnswer	Gain
40.0	2	193.801	0.023	727.599	1.58	1.0	30.7224	4.0	70.0	5.0	Outcome2	-0.05	1.58	0.0	No		1.6347316704459598				ShowChoice	Gain
40.0	2	197.817	0.016	731.615	1.58	1.0	30.7224	1.0	70.0	5.0	Outcome2	-0.05	1.58	0.0	No		1.6347316704459598				ShowResult	Gain
40.0	2	198.833	0.016	732.631	1.58	1.0	30.7224	3.158	70.0	5.0	Outcome2	-0.05	1.58	0.0	No		1.6347316704459598				ISITrial	Gain
41.0	2	202.015	0.024	735.813	-2.44	-1.22	30.4174	3.0	70.0	5.0	Outcome1	-2.44	8.3	4000.0	Yes	2.0	-10.739229024943302	1.909	203.924		GetAnswer	Gain
41.0	2	203.948	0.024	737.746	-2.44	-1.22	30.4174	4.0	70.0	5.0	Outcome1	-2.44	8.3	4000.0	Yes		-10.739229024943302				ShowChoice	Gain
41.0	2	207.963	0.015	741.761	-2.44	-1.22	30.4174	1.0	70.0	5.0	Outcome1	-2.44	8.3	4000.0	Yes		-10.739229024943302				ShowResult	Gain
41.0	2	208.979	0.016	742.777	-2.44	-1.22	30.4174	4.506	70.0	5.0	Outcome1	-2.44	8.3	4000.0	Yes		-10.739229024943302				ISITrial	Gain
41.0	2	217.526	0.015	751.324	-2.44	-1.22	30.4174	1.957	70.0	5.0	Outcome1	-2.44	8.3	4000.0	Yes	4{-4}4{-4}4{-4}4{-4}4{-4}	-10.739229024943302	1.957	219.483	336.0	TrialHappiness	Gain
41.0	2	221.542	4.016	755.34	-2.44	-1.22	30.4174	8.0	70.0	5.0	Outcome1	-2.44	8.3	4000.0	Yes		-10.739229024943302				ISIRate	Gain
42.0	2	229.572	0.03	763.37	0.0	0.0	30.4174	3.0	70.0	2.22	Certain	-5.56	5.1	0.0	No	4.0	-10.6598639455782	1.413	230.985		GetAnswer	Gain
42.0	2	231.005	0.02	764.803	0.0	0.0	30.4174	4.0	70.0	2.22	Certain	-5.56	5.1	0.0	No		-10.6598639455782				ShowChoice	Gain
42.0	2	235.02	0.015	768.818	0.0	0.0	30.4174	1.0	70.0	2.22	Certain	-5.56	5.1	0.0	No		-10.6598639455782				ShowResult	Gain
42.0	2	236.037	0.017	769.835	0.0	0.0	30.4174	6.248	70.0	2.22	Certain	-5.56	5.1	0.0	No		-10.6598639455782				ISITrial	Gain
43.0	2	242.301	0.016	776.099	-1.86	-0.93	30.1849	3.0	70.0	2.22	Outcome2	9.1	-1.86	2775.75	Yes	2.0	-10.9614512471655	1.251	243.552		GetAnswer	Gain
43.0	2	243.567	0.015	777.365	-1.86	-0.93	30.1849	4.0	70.0	2.22	Outcome2	9.1	-1.86	2775.75	Yes		-10.9614512471655				ShowChoice	Gain
43.0	2	247.583	0.016	781.381	-1.86	-0.93	30.1849	1.0	70.0	2.22	Outcome2	9.1	-1.86	2775.75	Yes		-10.9614512471655				ShowResult	Gain
43.0	2	248.599	0.016	782.397	-1.86	-0.93	30.1849	4.596	70.0	2.22	Outcome2	9.1	-1.86	2775.75	Yes		-10.9614512471655				ISITrial	Gain
43.0	2	256.013	0.023	789.811	-1.86	-0.93	30.1849	1.889	70.0	2.22	Outcome2	9.1	-1.86	2775.75	Yes		-10.9614512471655			352.0	TrialHappiness	Gain
43.0	2	260.028	4.015	793.826	-1.86	-0.93	30.1849	3.103	70.0	2.22	Outcome2	9.1	-1.86	2775.75	Yes		-10.9614512471655				ISIRate	Gain
44.0	2	263.16	0.029	796.958	-3.0	-3.0	29.8099	3.0	70.0	2.0	Certain	2.3	-9.24	0.0	No	4.0	-11.535147392290199	1.092	264.252		GetAnswer	Mixed
44.0	2	264.277	0.025	798.075	-3.0	-3.0	29.8099	4.0	70.0	2.0	Certain	2.3	-9.24	0.0	No		-11.535147392290199				ShowChoice	Mixed
44.0	2	268.292	0.015	802.09	-3.0	-3.0	29.8099	1.0	70.0	2.0	Certain	2.3	-9.24	0.0	No		-11.535147392290199				ShowResult	Mixed
44.0	2	269.308	0.016	803.106	-3.0	-3.0	29.8099	2.42	70.0	2.0	Certain	2.3	-9.24	0.0	No		-11.535147392290199				ISITrial	Mixed
45.0	2	271.757	0.029	805.555	0.0	0.0	29.8099	3.0	70.0	0.66	Certain	0.82	-0.91	0.0	No	4.0	1.73393801965231	2.019	273.776		GetAnswer	Mixed
45.0	2	273.79	0.014	807.588	0.0	0.0	29.8099	4.0	70.0	0.66	Certain	0.82	-0.91	0.0	No		1.73393801965231				ShowChoice	Mixed
45.0	2	277.805	0.015	811.603	0.0	0.0	29.8099	1.0	70.0	0.66	Certain	0.82	-0.91	0.0	No		1.73393801965231				ShowResult	Mixed
45.0	2	278.822	0.017	812.62	0.0	0.0	29.8099	3.144	70.0	0.66	Certain	0.82	-0.91	0.0	No		1.73393801965231				ISITrial	Mixed
46.0	2	281.987	0.021	815.785	3.22	2.0	30.2124	3.0	70.0	2.0	Outcome2	1.46	3.22	3841.25	Yes	2.0	1.7605820105820102	1.063	283.05		GetAnswer	Loss
46.0	2	283.07	0.02	816.868	3.22	2.0	30.2124	4.0	70.0	2.0	Outcome2	1.46	3.22	3841.25	Yes		1.7605820105820102				ShowChoice	Loss
46.0	2	287.085	0.015	820.883	3.22	2.0	30.2124	1.0	70.0	2.0	Outcome2	1.46	3.22	3841.25	Yes		1.7605820105820102				ShowResult	Loss
46.0	2	288.102	0.017	821.9	3.22	2.0	30.2124	2.246	70.0	2.0	Outcome2	1.46	3.22	3841.25	Yes		1.7605820105820102				ISITrial	Loss
46.0	2	294.233	0.025	828.031	3.22	2.0	30.2124	2.772	70.0	2.0	Outcome2	1.46	3.22	3841.25	Yes		1.7605820105820102			496.0	TrialHappiness	Loss
46.0	2	298.248	4.015	832.046	3.22	2.0	30.2124	7.365	70.0	2.0	Outcome2	1.46	3.22	3841.25	Yes		1.7605820105820102				ISIRate	Loss
47.0	2	305.629	0.016	839.427	-12.04	-4.0	28.7074	3.0	70.0	0.4	Outcome1	-12.04	2.9	0.0	No	2.0	-14.943310657596399	1.692	307.321		GetAnswer	Mixed
47.0	2	307.345	0.024	841.143	-12.04	-4.0	28.7074	4.0	70.0	0.4	Outcome1	-12.04	2.9	0.0	No		-14.943310657596399				ShowChoice	Mixed
47.0	2	311.36	0.015	845.158	-12.04	-4.0	28.7074	1.0	70.0	0.4	Outcome1	-12.04	2.9	0.0	No		-14.943310657596399				ShowResult	Mixed
47.0	2	312.376	0.016	846.174	-12.04	-4.0	28.7074	2.0	70.0	0.4	Outcome1	-12.04	2.9	0.0	No		-14.943310657596399				ISITrial	Mixed
48.0	2	314.392	0.016	848.19	-6.0	-6.0	27.9574	3.0	70.0	0.52	Certain	1.1	-14.33	2831.75	Yes	4.0	-15.4263038548753	1.042	315.434		GetAnswer	Mixed
48.0	2	315.459	0.025	849.257	-6.0	-6.0	27.9574	4.0	70.0	0.52	Certain	1.1	-14.33	2831.75	Yes		-15.4263038548753				ShowChoice	Mixed
48.0	2	319.474	0.015	853.272	-6.0	-6.0	27.9574	1.0	70.0	0.52	Certain	1.1	-14.33	2831.75	Yes		-15.4263038548753				ShowResult	Mixed
48.0	2	320.49	0.016	854.288	-6.0	-6.0	27.9574	3.692	70.0	0.52	Certain	1.1	-14.33	2831.75	Yes		-15.4263038548753				ISITrial	Mixed
48.0	2	327.055	0.017	860.853	-6.0	-6.0	27.9574	2.474	70.0	0.52	Certain	1.1	-14.33	2831.75	Yes		-15.4263038548753			208.0	TrialHappiness	Mixed
48.0	2	331.07	4.015	864.868	-6.0	-6.0	27.9574	3.327	70.0	0.52	Certain	1.1	-14.33	2831.75	Yes		-15.4263038548753				ISIRate	Mixed
49.0	2	334.419	0.022	868.217	1.48	1.0	28.1424	3.0	70.0	3.6	Outcome2	0.2	1.48	0.0	No	2.0	1.28269085411943	1.124	335.543		GetAnswer	Gain
49.0	2	335.568	0.025	869.366	1.48	1.0	28.1424	4.0	70.0	3.6	Outcome2	0.2	1.48	0.0	No		1.28269085411943				ShowChoice	Gain
49.0	2	339.583	0.015	873.381	1.48	1.0	28.1424	1.0	70.0	3.6	Outcome2	0.2	1.48	0.0	No		1.28269085411943				ShowResult	Gain
49.0	2	340.6	0.017	874.398	1.48	1.0	28.1424	8.0	70.0	3.6	Outcome2	0.2	1.48	0.0	No		1.28269085411943				ISITrial	Gain
50.0	2	348.63	0.03	882.428	1.33	0.66	28.3086	3.0	70.0	1.68	Outcome1	1.33	12.5	3547.25	Yes	2.0	-11.1678004535147	1.656	350.286		GetAnswer	Loss
50.0	2	350.313	0.027	884.111	1.33	0.66	28.3086	4.0	70.0	1.68	Outcome1	1.33	12.5	3547.25	Yes		-11.1678004535147				ShowChoice	Loss
50.0	2	354.328	0.015	888.126	1.33	0.66	28.3086	1.0	70.0	1.68	Outcome1	1.33	12.5	3547.25	Yes		-11.1678004535147				ShowResult	Loss
50.0	2	355.345	0.017	889.143	1.33	0.66	28.3086	7.537	70.0	1.68	Outcome1	1.33	12.5	3547.25	Yes		-11.1678004535147				ISITrial	Loss
50.0	2	366.474	0.018	900.272	1.33	0.66	28.3086	2.99	70.0	1.68	Outcome1	1.33	12.5	3547.25	Yes		-11.1678004535147			376.0	TrialHappiness	Loss
50.0	2	370.489	4.015	904.287	1.33	0.66	28.3086	6.189	70.0	1.68	Outcome1	1.33	12.5	3547.25	Yes		-11.1678004535147				ISIRate	Loss
51.0	2	376.704	0.026	910.502	-7.0	-7.0	27.4336	3.0	70.0	0.82	Certain	-14.68	-0.5	0.0	No	4.0	-14.1814058956916	1.206	377.91		GetAnswer	Mixed
51.0	2	377.937	0.027	911.735	-7.0	-7.0	27.4336	4.0	70.0	0.82	Certain	-14.68	-0.5	0.0	No		-14.1814058956916				ShowChoice	Mixed
51.0	2	381.952	0.015	915.75	-7.0	-7.0	27.4336	1.0	70.0	0.82	Certain	-14.68	-0.5	0.0	No		-14.1814058956916				ShowResult	Mixed
51.0	2	382.968	0.016	916.766	-7.0	-7.0	27.4336	5.508	70.0	0.82	Certain	-14.68	-0.5	0.0	No		-14.1814058956916				ISITrial	Mixed
52.0	2	388.5	0.024	922.298	0.0	0.0	27.4336	3.0	70.0	3.6	Certain	7.9	-6.63	0.0	No	4.0	-14.5283446712018	1.309	389.809		GetAnswer	Gain
52.0	2	389.832	0.023	923.63	0.0	0.0	27.4336	4.0	70.0	3.6	Certain	7.9	-6.63	0.0	No		-14.5283446712018				ShowChoice	Gain
52.0	2	393.848	0.016	927.646	0.0	0.0	27.4336	1.0	70.0	3.6	Certain	7.9	-6.63	0.0	No		-14.5283446712018				ShowResult	Gain
52.0	2	394.864	0.016	928.662	0.0	0.0	27.4336	5.913	70.0	3.6	Certain	7.9	-6.63	0.0	No		-14.5283446712018				ISITrial	Gain
53.0	2	400.795	0.018	934.593	2.58	1.0	27.7561	3.0	70.0	5.0	Outcome2	0.53	2.58	2996.75	Yes	2.0	2.04913076341648	1.061	401.856		GetAnswer	Gain
53.0	2	401.878	0.022	935.676	2.58	1.0	27.7561	4.0	70.0	5.0	Outcome2	0.53	2.58	2996.75	Yes		2.04913076341648				ShowChoice	Gain
53.0	2	405.893	0.015	939.691	2.58	1.0	27.7561	1.0	70.0	5.0	Outcome2	0.53	2.58	2996.75	Yes		2.04913076341648				ShowResult	Gain
53.0	2	406.91	0.017	940.708	2.58	1.0	27.7561	3.66	70.0	5.0	Outcome2	0.53	2.58	2996.75	Yes		2.04913076341648				ISITrial	Gain
53.0	2	413.607	0.018	947.405	2.58	1.0	27.7561	1.607	70.0	5.0	Outcome2	0.53	2.58	2996.75	Yes		2.04913076341648			568.0	TrialHappiness	Gain
53.0	2	417.623	4.016	951.421	2.58	1.0	27.7561	3.987	70.0	5.0	Outcome2	0.53	2.58	2996.75	Yes		2.04913076341648				ISIRate	Gain
54.0	2	421.638	0.028	955.436	1.0	1.0	27.8811	3.0	70.0	2.0	Certain	-0.64	2.22	0.0	No	4.0	2.8580876795162498	1.528	423.166		GetAnswer	Gain
54.0	2	423.187	0.021	956.985	1.0	1.0	27.8811	4.0	70.0	2.0	Certain	-0.64	2.22	0.0	No		2.8580876795162498				ShowChoice	Gain
54.0	2	427.203	0.016	961.001	1.0	1.0	27.8811	1.0	70.0	2.0	Certain	-0.64	2.22	0.0	No		2.8580876795162498				ShowResult	Gain
54.0	2	428.219	0.016	962.017	1.0	1.0	27.8811	8.0	70.0	2.0	Certain	-0.64	2.22	0.0	No		2.8580876795162498				ISITrial	Gain
	2	436.249	0.03	970.047				-0.001								{SPACE}		32.248	468.497		Rest	
	2	468.521	0.024	1002.319				4.0													BlockHappyPreview	
	2	472.537	0.016	1006.335				3.723												616.0	BlockStartHappiness	
	2	479.201	0.016	1012.999				-0.001								5.0		4.74	483.941		ScanWait	
	3	0.025	0.025	1017.764				10.0													GetReady	
55.0	3	10.038	0.013	1027.777	9.3	1.77	29.0436	3.0	955.0	2.48	Outcome2	3.54	9.3	2533.25	Yes	2.0	5.75877689694224	0.958	10.996		GetAnswer	Gain
55.0	3	11.021	0.025	1028.76	9.3	1.77	29.0436	4.0	955.0	2.48	Outcome2	3.54	9.3	2533.25	Yes		5.75877689694224				ShowChoice	Gain
55.0	3	15.036	0.015	1032.775	9.3	1.77	29.0436	1.0	955.0	2.48	Outcome2	3.54	9.3	2533.25	Yes		5.75877689694224				ShowResult	Gain
55.0	3	16.053	0.017	1033.792	9.3	1.77	29.0436	7.709	955.0	2.48	Outcome2	3.54	9.3	2533.25	Yes		5.75877689694224				ISITrial	Gain
55.0	3	26.332	0.016	1044.071	9.3	1.77	29.0436	2.823	955.0	2.48	Outcome2	3.54	9.3	2533.25	Yes		5.75877689694224			680.0	TrialHappiness	Gain
55.0	3	30.348	4.016	1048.087	9.3	1.77	29.0436	2.133	955.0	2.48	Outcome2	3.54	9.3	2533.25	Yes		5.75877689694224				ISIRate	Gain
56.0	3	32.497	0.016	1050.236	1.0	1.0	29.1686	3.0	955.0	0.82	Certain	-1.56	3.5	0.0	No	4.0	5.055492638731599	1.848	34.345		GetAnswer	Mixed
56.0	3	34.363	0.018	1052.102	1.0	1.0	29.1686	4.0	955.0	0.82	Certain	-1.56	3.5	0.0	No		5.055492638731599				ShowChoice	Mixed
56.0	3	38.378	0.015	1056.117	1.0	1.0	29.1686	1.0	955.0	0.82	Certain	-1.56	3.5	0.0	No		5.055492638731599				ShowResult	Mixed
56.0	3	39.394	0.016	1057.133	1.0	1.0	29.1686	4.697	955.0	0.82	Certain	-1.56	3.5	0.0	No		5.055492638731599				ISITrial	Mixed
57.0	3	44.109	0.018	1061.848	6.33	3.16	29.9598	3.0	955.0	2.8	Outcome2	7.5	6.33	0.0	No	2.0	-1.1739335598338998	0.877	44.986		GetAnswer	Gain
57.0	3	45.009	0.023	1062.748	6.33	3.16	29.9598	4.0	955.0	2.8	Outcome2	7.5	6.33	0.0	No		-1.1739335598338998				ShowChoice	Gain
57.0	3	49.024	0.015	1066.763	6.33	3.16	29.9598	1.0	955.0	2.8	Outcome2	7.5	6.33	0.0	No		-1.1739335598338998				ShowResult	Gain
57.0	3	50.041	0.017	1067.78	6.33	3.16	29.9598	4.291	955.0	2.8	Outcome2	7.5	6.33	0.0	No		-1.1739335598338998				ISITrial	Gain
58.0	3	54.356	0.024	1072.095	3.9	1.0	30.4473	3.0	955.0	1.2	Outcome1	3.9	-1.78	3045.75	Yes	2.0	5.67836919592299	1.825	56.181		GetAnswer	Mixed
58.0	3	56.205	0.024	1073.944	3.9	1.0	30.4473	4.0	955.0	1.2	Outcome1	3.9	-1.78	3045.75	Yes		5.67836919592299				ShowChoice	Mixed
58.0	3	60.22	0.015	1077.959	3.9	1.0	30.4473	1.0	955.0	1.2	Outcome1	3.9	-1.78	3045.75	Yes		5.67836919592299				ShowResult	Mixed
58.0	3	61.237	0.017	1078.976	3.9	1.0	30.4473	2.037	955.0	1.2	Outcome1	3.9	-1.78	3045.75	Yes		5.67836919592299				ISITrial	Mixed
58.0	3	66.352	0.02	1084.091	3.9	1.0	30.4473	2.273	955.0	1.2	Outcome1	3.9	-1.78	3045.75	Yes		5.67836919592299			772.0	TrialHappiness	Mixed
58.0	3	70.367	4.015	1088.106	3.9	1.0	30.4473	4.183	955.0	1.2	Outcome1	3.9	-1.78	3045.75	Yes		5.67836919592299				ISIRate	Mixed
59.0	3	74.582	0.032	1092.321	5.25	2.62	31.1035	3.0	955.0	4.2	Outcome2	6.1	5.25	0.0	No	2.0	-0.852491506228766	1.105	75.687		GetAnswer	Gain
59.0	3	75.698	0.011	1093.437	5.25	2.62	31.1035	4.0	955.0	4.2	Outcome2	6.1	5.25	0.0	No		-0.852491506228766				ShowChoice	Gain
59.0	3	79.714	0.016	1097.453	5.25	2.62	31.1035	1.0	955.0	4.2	Outcome2	6.1	5.25	0.0	No		-0.852491506228766				ShowResult	Gain
59.0	3	80.73	0.016	1098.469	5.25	2.62	31.1035	5.064	955.0	4.2	Outcome2	6.1	5.25	0.0	No		-0.852491506228766				ISITrial	Gain
60.0	3	85.811	0.017	1103.55	0.03	0.0	31.1073	3.0	955.0	0.4	Outcome1	0.03	0.9	3562.5	Yes	2.0	-0.8697621744054359	1.368	87.179		GetAnswer	Mixed
60.0	3	87.194	0.015	1104.933	0.03	0.0	31.1073	4.0	955.0	0.4	Outcome1	0.03	0.9	3562.5	Yes		-0.8697621744054359				ShowChoice	Mixed
60.0	3	91.209	0.015	1108.948	0.03	0.0	31.1073	1.0	955.0	0.4	Outcome1	0.03	0.9	3562.5	Yes		-0.8697621744054359				ShowResult	Mixed
60.0	3	92.226	0.017	1109.965	0.03	0.0	31.1073	8.0	955.0	0.4	Outcome1	0.03	0.9	3562.5	Yes		-0.8697621744054359				ISITrial	Mixed
60.0	3	103.822	0.02	1121.561	0.03	0.0	31.1073	1.823	955.0	0.4	Outcome1	0.03	0.9	3562.5	Yes		-0.8697621744054359			632.0	TrialHappiness	Mixed
60.0	3	107.837	4.015	1125.576	0.03	0.0	31.1073	6.25	955.0	0.4	Outcome1	0.03	0.9	3562.5	Yes		-0.8697621744054359				ISIRate	Mixed
61.0	3	114.118	0.031	1131.857	10.5	1.64	32.4198	3.0	955.0	1.68	Outcome1	10.5	3.28	0.0	No	2.0	7.219705549263869	1.135	115.253		GetAnswer	Loss
61.0	3	115.268	0.015	1133.007	10.5	1.64	32.4198	4.0	955.0	1.68	Outcome1	10.5	3.28	0.0	No		7.219705549263869				ShowChoice	Loss
61.0	3	119.283	0.015	1137.022	10.5	1.64	32.4198	1.0	955.0	1.68	Outcome1	10.5	3.28	0.0	No		7.219705549263869				ShowResult	Loss
61.0	3	120.299	0.016	1138.038	10.5	1.64	32.4198	4.586	955.0	1.68	Outcome1	10.5	3.28	0.0	No		7.219705549263869				ISITrial	Loss
62.0	3	124.914	0.029	1142.653	-0.19	0.0	32.396	3.0	955.0	0.66	Outcome1	-0.19	1.3	3748.75	Yes	2.0	-1.48565496413741	1.69	126.604		GetAnswer	Mixed
62.0	3	126.63	0.026	1144.369	-0.19	0.0	32.396	4.0	955.0	0.66	Outcome1	-0.19	1.3	3748.75	Yes		-1.48565496413741				ShowChoice	Mixed
62.0	3	130.646	0.016	1148.385	-0.19	0.0	32.396	1.0	955.0	0.66	Outcome1	-0.19	1.3	3748.75	Yes		-1.48565496413741				ShowResult	Mixed
62.0	3	131.662	0.016	1149.401	-0.19	0.0	32.396	5.212	955.0	0.66	Outcome1	-0.19	1.3	3748.75	Yes		-1.48565496413741				ISITrial	Mixed
62.0	3	140.659	0.017	1158.398	-0.19	0.0	32.396	1.522	955.0	0.66	Outcome1	-0.19	1.3	3748.75	Yes		-1.48565496413741			768.0	TrialHappiness	Mixed
62.0	3	144.674	4.015	1162.413	-0.19	0.0	32.396	6.995	955.0	0.66	Outcome1	-0.19	1.3	3748.75	Yes		-1.48565496413741				ISIRate	Mixed
63.0	3	151.688	0.019	1169.427	11.5	2.93	33.8335	3.0	955.0	2.8	Outcome1	11.5	5.86	0.0	No	2.0	5.6409966024915095	0.92	152.608		GetAnswer	Loss
63.0	3	152.621	0.013	1170.36	11.5	2.93	33.8335	4.0	955.0	2.8	Outcome1	11.5	5.86	0.0	No		5.6409966024915095				ShowChoice	Loss
63.0	3	156.636	0.015	1174.375	11.5	2.93	33.8335	1.0	955.0	2.8	Outcome1	11.5	5.86	0.0	No		5.6409966024915095				ShowResult	Loss
63.0	3	157.653	0.017	1175.392	11.5	2.93	33.8335	5.595	955.0	2.8	Outcome1	11.5	5.86	0.0	No		5.6409966024915095				ISITrial	Loss
64.0	3	163.267	0.019	1181.006	1.12	1.0	33.9735	3.0	955.0	1.5	Outcome2	2.1	1.12	0.0	No	2.0	-0.9818799546998871	1.122	164.389		GetAnswer	Mixed
64.0	3	164.4	0.011	1182.139	1.12	1.0	33.9735	4.0	955.0	1.5	Outcome2	2.1	1.12	0.0	No		-0.9818799546998871				ShowChoice	Mixed
64.0	3	168.416	0.016	1186.155	1.12	1.0	33.9735	1.0	955.0	1.5	Outcome2	2.1	1.12	0.0	No		-0.9818799546998871				ShowResult	Mixed
64.0	3	169.432	0.016	1187.171	1.12	1.0	33.9735	5.47	955.0	1.5	Outcome2	2.1	1.12	0.0	No		-0.9818799546998871				ISITrial	Mixed
65.0	3	174.93	0.028	1192.669	11.1	2.52	35.361	3.0	955.0	2.22	Outcome1	11.1	5.04	2996.75	Yes	2.0	6.06455266138165	0.945	175.875		GetAnswer	Loss
65.0	3	175.896	0.021	1193.635	11.1	2.52	35.361	4.0	955.0	2.22	Outcome1	11.1	5.04	2996.75	Yes		6.06455266138165				ShowChoice	Loss
65.0	3	179.912	0.016	1197.651	11.1	2.52	35.361	1.0	955.0	2.22	Outcome1	11.1	5.04	2996.75	Yes		6.06455266138165				ShowResult	Loss
65.0	3	180.928	0.016	1198.667	11.1	2.52	35.361	3.344	955.0	2.22	Outcome1	11.1	5.04	2996.75	Yes		6.06455266138165				ISITrial	Loss
65.0	3	187.309	0.019	1205.048	11.1	2.52	35.361	2.04	955.0	2.22	Outcome1	11.1	5.04	2996.75	Yes		6.06455266138165			880.0	TrialHappiness	Loss
65.0	3	191.324	4.015	1209.063	11.1	2.52	35.361	3.987	955.0	2.22	Outcome1	11.1	5.04	2996.75	Yes		6.06455266138165				ISIRate	Loss
66.0	3	195.339	0.028	1213.078	3.7	1.0	35.8235	3.0	955.0	1.0	Outcome1	3.7	-0.67	0.0	No	2.0	4.37372593431484	1.646	196.985		GetAnswer	Mixed
66.0	3	197.006	0.02	1214.745	3.7	1.0	35.8235	4.0	955.0	1.0	Outcome1	3.7	-0.67	0.0	No		4.37372593431484				ShowChoice	Mixed
66.0	3	201.021	0.015	1218.76	3.7	1.0	35.8235	1.0	955.0	1.0	Outcome1	3.7	-0.67	0.0	No		4.37372593431484				ShowResult	Mixed
66.0	3	202.037	0.016	1219.776	3.7	1.0	35.8235	3.959	955.0	1.0	Outcome1	3.7	-0.67	0.0	No		4.37372593431484				ISITrial	Mixed
67.0	3	206.019	0.023	1223.758	-2.0	-2.0	35.5735	3.0	955.0	2.0	Certain	-4.16	0.3	2918.5	Yes	4.0	4.4586636466591205	1.977	207.996		GetAnswer	Mixed
67.0	3	208.018	0.022	1225.757	-2.0	-2.0	35.5735	4.0	955.0	2.0	Certain	-4.16	0.3	2918.5	Yes		4.4586636466591205				ShowChoice	Mixed
67.0	3	212.034	0.016	1229.773	-2.0	-2.0	35.5735	1.0	955.0	2.0	Certain	-4.16	0.3	2918.5	Yes		4.4586636466591205				ShowResult	Mixed
67.0	3	213.05	0.016	1230.789	-2.0	-2.0	35.5735	4.199	955.0	2.0	Certain	-4.16	0.3	2918.5	Yes		4.4586636466591205				ISITrial	Mixed
67.0	3	220.214	0.031	1237.953	-2.0	-2.0	35.5735	1.413	955.0	2.0	Certain	-4.16	0.3	2918.5	Yes		4.4586636466591205			676.0	TrialHappiness	Mixed
67.0	3	224.229	4.015	1241.968	-2.0	-2.0	35.5735	3.674	955.0	2.0	Certain	-4.16	0.3	2918.5	Yes		4.4586636466591205				ISIRate	Mixed
68.0	3	227.928	0.025	1245.667	0.5	1.0	35.635999999999996	3.0	955.0	1.2	Outcome1	0.5	1.9	0.0	No	2.0	-1.4046810117025301	1.077	229.005		GetAnswer	Mixed
68.0	3	229.028	0.023	1246.767	0.5	1.0	35.635999999999996	4.0	955.0	1.2	Outcome1	0.5	1.9	0.0	No		-1.4046810117025301				ShowChoice	Mixed
68.0	3	233.043	0.015	1250.782	0.5	1.0	35.635999999999996	1.0	955.0	1.2	Outcome1	0.5	1.9	0.0	No		-1.4046810117025301				ShowResult	Mixed
68.0	3	234.059	0.016	1251.798	0.5	1.0	35.635999999999996	2.185	955.0	1.2	Outcome1	0.5	1.9	0.0	No		-1.4046810117025301				ISITrial	Mixed
69.0	3	236.275	0.031	1254.014	8.47	4.24	36.6948	3.0	955.0	3.6	Outcome2	9.9	8.47	0.0	No	2.0	-1.43101170252926	0.92	237.195		GetAnswer	Gain
69.0	3	237.208	0.013	1254.947	8.47	4.24	36.6948	4.0	955.0	3.6	Outcome2	9.9	8.47	0.0	No		-1.43101170252926				ShowChoice	Gain
69.0	3	241.223	0.015	1258.962	8.47	4.24	36.6948	1.0	955.0	3.6	Outcome2	9.9	8.47	0.0	No		-1.43101170252926				ShowResult	Gain
69.0	3	242.24	0.017	1259.979	8.47	4.24	36.6948	2.0	955.0	3.6	Outcome2	9.9	8.47	0.0	No		-1.43101170252926				ISITrial	Gain
70.0	3	244.256	0.016	1261.995	3.24	1.62	37.0998	3.0	955.0	1.82	Outcome1	3.24	4.7	3651.25	Yes	2.0	-1.45734239335598	1.258	245.514		GetAnswer	Gain
70.0	3	245.538	0.024	1263.277	3.24	1.62	37.0998	4.0	955.0	1.82	Outcome1	3.24	4.7	3651.25	Yes		-1.45734239335598				ShowChoice	Gain
70.0	3	249.554	0.016	1267.293	3.24	1.62	37.0998	1.0	955.0	1.82	Outcome1	3.24	4.7	3651.25	Yes		-1.45734239335598				ShowResult	Gain
70.0	3	250.57	0.016	1268.309	3.24	1.62	37.0998	2.623	955.0	1.82	Outcome1	3.24	4.7	3651.25	Yes		-1.45734239335598				ISITrial	Gain
70.0	3	256.884	0.014	1274.623	3.24	1.62	37.0998	2.607	955.0	1.82	Outcome1	3.24	4.7	3651.25	Yes	2{-2}2{-2}4{-4}2{-2}	-1.45734239335598	2.607	259.491	752.0	TrialHappiness	Gain
70.0	3	260.9	4.016	1278.639	3.24	1.62	37.0998	6.605	955.0	1.82	Outcome1	3.24	4.7	3651.25	Yes		-1.45734239335598				ISIRate	Gain
71.0	3	267.531	0.026	1285.27	-4.0	-4.0	36.5998	3.0	955.0	0.66	Certain	-8.37	-0.7	0.0	No	4.0	7.66591166477916	2.0	269.531		GetAnswer	Mixed
71.0	3	269.547	0.016	1287.286	-4.0	-4.0	36.5998	4.0	955.0	0.66	Certain	-8.37	-0.7	0.0	No		7.66591166477916				ShowChoice	Mixed
71.0	3	273.562	0.015	1291.301	-4.0	-4.0	36.5998	1.0	955.0	0.66	Certain	-8.37	-0.7	0.0	No		7.66591166477916				ShowResult	Mixed
71.0	3	274.578	0.016	1292.317	-4.0	-4.0	36.5998	5.499	955.0	0.66	Certain	-8.37	-0.7	0.0	No		7.66591166477916				ISITrial	Mixed
72.0	3	280.093	0.016	1297.832	6.5	2.0	37.4123	3.0	955.0	1.68	Outcome2	-1.4	6.5	3080.5	Yes	2.0	7.89580973952435	1.384	281.477		GetAnswer	Gain
72.0	3	281.492	0.015	1299.231	6.5	2.0	37.4123	4.0	955.0	1.68	Outcome2	-1.4	6.5	3080.5	Yes		7.89580973952435				ShowChoice	Gain
72.0	3	285.508	0.016	1303.247	6.5	2.0	37.4123	1.0	955.0	1.68	Outcome2	-1.4	6.5	3080.5	Yes		7.89580973952435				ShowResult	Gain
72.0	3	286.524	0.016	1304.263	6.5	2.0	37.4123	5.672	955.0	1.68	Outcome2	-1.4	6.5	3080.5	Yes		7.89580973952435				ISITrial	Gain
72.0	3	295.321	0.019	1313.06	6.5	2.0	37.4123	2.407	955.0	1.68	Outcome2	-1.4	6.5	3080.5	Yes		7.89580973952435			792.0	TrialHappiness	Gain
72.0	3	299.336	4.015	1317.075	6.5	2.0	37.4123	4.322	955.0	1.68	Outcome2	-1.4	6.5	3080.5	Yes		7.89580973952435				ISIRate	Gain
73.0	3	303.685	0.027	1321.424	10.85	5.42	38.7685	3.0	955.0	3.6	Outcome1	10.85	11.9	0.0	No	2.0	-1.05124575311438	1.012	304.697		GetAnswer	Loss
73.0	3	304.718	0.021	1322.457	10.85	5.42	38.7685	4.0	955.0	3.6	Outcome1	10.85	11.9	0.0	No		-1.05124575311438				ShowChoice	Loss
73.0	3	308.733	0.015	1326.472	10.85	5.42	38.7685	1.0	955.0	3.6	Outcome1	10.85	11.9	0.0	No		-1.05124575311438				ShowResult	Loss
73.0	3	309.749	0.016	1327.488	10.85	5.42	38.7685	4.616	955.0	3.6	Outcome1	10.85	11.9	0.0	No		-1.05124575311438				ISITrial	Loss
74.0	3	314.381	0.016	1332.12	3.83	1.92	39.2473	3.0	955.0	2.0	Outcome2	4.9	3.83	3056.25	Yes	2.0	-1.06662891657229	1.063	315.444		GetAnswer	Gain
74.0	3	315.464	0.02	1333.203	3.83	1.92	39.2473	4.0	955.0	2.0	Outcome2	4.9	3.83	3056.25	Yes		-1.06662891657229				ShowChoice	Gain
74.0	3	319.479	0.015	1337.218	3.83	1.92	39.2473	1.0	955.0	2.0	Outcome2	4.9	3.83	3056.25	Yes		-1.06662891657229				ShowResult	Gain
74.0	3	320.495	0.016	1338.234	3.83	1.92	39.2473	3.909	955.0	2.0	Outcome2	4.9	3.83	3056.25	Yes		-1.06662891657229				ISITrial	Gain
74.0	3	327.51	0.027	1345.249	3.83	1.92	39.2473	3.791	955.0	2.0	Outcome2	4.9	3.83	3056.25	Yes		-1.06662891657229			752.0	TrialHappiness	Gain
74.0	3	331.541	4.031	1349.28	3.83	1.92	39.2473	4.225	955.0	2.0	Outcome2	4.9	3.83	3056.25	Yes		-1.06662891657229				ISIRate	Gain
75.0	3	335.79	0.024	1353.529	-0.54	0.0	39.1798	3.0	955.0	0.3	Outcome2	0.7	-0.54	0.0	No	2.0	-1.24433748584371	1.201	336.991		GetAnswer	Mixed
75.0	3	337.006	0.015	1354.745	-0.54	0.0	39.1798	4.0	955.0	0.3	Outcome2	0.7	-0.54	0.0	No		-1.24433748584371				ShowChoice	Mixed
75.0	3	341.021	0.015	1358.76	-0.54	0.0	39.1798	1.0	955.0	0.3	Outcome2	0.7	-0.54	0.0	No		-1.24433748584371				ShowResult	Mixed
75.0	3	342.038	0.017	1359.777	-0.54	0.0	39.1798	4.979	955.0	0.3	Outcome2	0.7	-0.54	0.0	No		-1.24433748584371				ISITrial	Mixed
76.0	3	347.036	0.019	1364.775	9.7	0.49	40.3923	3.0	955.0	3.16	Outcome1	9.7	0.98	0.0	No	2.0	8.72480181200453	1.073	348.109		GetAnswer	Gain
76.0	3	348.136	0.027	1365.875	9.7	0.49	40.3923	4.0	955.0	3.16	Outcome1	9.7	0.98	0.0	No		8.72480181200453				ShowChoice	Gain
76.0	3	352.151	0.015	1369.89	9.7	0.49	40.3923	1.0	955.0	3.16	Outcome1	9.7	0.98	0.0	No		8.72480181200453				ShowResult	Gain
76.0	3	353.167	0.016	1370.906	9.7	0.49	40.3923	3.931	955.0	3.16	Outcome1	9.7	0.98	0.0	No		8.72480181200453				ISITrial	Gain
77.0	3	357.116	0.018	1374.855	0.42	1.0	40.4448	3.0	955.0	1.0	Outcome1	0.42	1.7	4000.0	Yes	2.0	-1.2826538316345801	1.693	358.809		GetAnswer	Mixed
77.0	3	358.832	0.023	1376.571	0.42	1.0	40.4448	4.0	955.0	1.0	Outcome1	0.42	1.7	4000.0	Yes		-1.2826538316345801				ShowChoice	Mixed
77.0	3	362.847	0.015	1380.586	0.42	1.0	40.4448	1.0	955.0	1.0	Outcome1	0.42	1.7	4000.0	Yes		-1.2826538316345801				ShowResult	Mixed
77.0	3	363.863	0.016	1381.602	0.42	1.0	40.4448	7.022	955.0	1.0	Outcome1	0.42	1.7	4000.0	Yes		-1.2826538316345801				ISITrial	Mixed
77.0	3	374.926	0.015	1392.665	0.42	1.0	40.4448	1.189	955.0	1.0	Outcome1	0.42	1.7	4000.0	Yes		-1.2826538316345801			776.0	TrialHappiness	Mixed
77.0	3	378.941	4.015	1396.68	0.42	1.0	40.4448	8.0	955.0	1.0	Outcome1	0.42	1.7	4000.0	Yes		-1.2826538316345801				ISIRate	Mixed
78.0	3	386.972	0.031	1404.711	-1.0	-1.0	40.3198	3.0	955.0	0.3	Certain	-6.08	2.7	0.0	No	4.0	8.776896942242349	1.415	388.387		GetAnswer	Mixed
78.0	3	388.405	0.018	1406.144	-1.0	-1.0	40.3198	4.0	955.0	0.3	Certain	-6.08	2.7	0.0	No		8.776896942242349				ShowChoice	Mixed
78.0	3	392.42	0.015	1410.159	-1.0	-1.0	40.3198	1.0	955.0	0.3	Certain	-6.08	2.7	0.0	No		8.776896942242349				ShowResult	Mixed
78.0	3	393.436	0.016	1411.175	-1.0	-1.0	40.3198	2.078	955.0	0.3	Certain	-6.08	2.7	0.0	No		8.776896942242349				ISITrial	Mixed
79.0	3	395.536	0.022	1413.275	-1.0	-1.0	40.1948	3.0	955.0	0.4	Certain	2.9	-6.08	2729.5	Yes	4.0	8.97961494903737	2.049	397.585		GetAnswer	Mixed
79.0	3	397.602	0.017	1415.341	-1.0	-1.0	40.1948	4.0	955.0	0.4	Certain	2.9	-6.08	2729.5	Yes		8.97961494903737				ShowChoice	Mixed
79.0	3	401.617	0.015	1419.356	-1.0	-1.0	40.1948	1.0	955.0	0.4	Certain	2.9	-6.08	2729.5	Yes		8.97961494903737				ShowResult	Mixed
79.0	3	402.633	0.016	1420.372	-1.0	-1.0	40.1948	3.829	955.0	0.4	Certain	2.9	-6.08	2729.5	Yes		8.97961494903737				ISITrial	Mixed
79.0	3	409.231	0.019	1426.97	-1.0	-1.0	40.1948	0.989	955.0	0.4	Certain	2.9	-6.08	2729.5	Yes		8.97961494903737			712.0	TrialHappiness	Mixed
79.0	3	413.246	4.015	1430.985	-1.0	-1.0	40.1948	2.918	955.0	0.4	Certain	2.9	-6.08	2729.5	Yes		8.97961494903737				ISIRate	Mixed
80.0	3	416.195	0.031	1433.934	1.0	1.0	40.3198	3.0	955.0	1.82	Certain	6.7	-3.57	0.0	No	4.0	10.269535673839199	1.628	417.823		GetAnswer	Gain
80.0	3	417.844	0.021	1435.583	1.0	1.0	40.3198	4.0	955.0	1.82	Certain	6.7	-3.57	0.0	No		10.269535673839199				ShowChoice	Gain
80.0	3	421.86	0.016	1439.599	1.0	1.0	40.3198	1.0	955.0	1.82	Certain	6.7	-3.57	0.0	No		10.269535673839199				ShowResult	Gain
80.0	3	422.876	0.016	1440.615	1.0	1.0	40.3198	3.336	955.0	1.82	Certain	6.7	-3.57	0.0	No		10.269535673839199				ISITrial	Gain
81.0	3	426.241	0.029	1443.98	9.9	-0.32	41.5573	3.0	955.0	3.6	Outcome2	-0.64	9.9	3923.75	Yes	2.0	10.544733861834699	1.215	427.456		GetAnswer	Gain
81.0	3	427.474	0.018	1445.213	9.9	-0.32	41.5573	4.0	955.0	3.6	Outcome2	-0.64	9.9	3923.75	Yes		10.544733861834699				ShowChoice	Gain
81.0	3	431.49	0.016	1449.229	9.9	-0.32	41.5573	1.0	955.0	3.6	Outcome2	-0.64	9.9	3923.75	Yes		10.544733861834699				ShowResult	Gain
81.0	3	432.506	0.016	1450.245	9.9	-0.32	41.5573	3.919	955.0	3.6	Outcome2	-0.64	9.9	3923.75	Yes		10.544733861834699				ISITrial	Gain
81.0	3	440.386	0.024	1458.125	9.9	-0.32	41.5573	1.223	955.0	3.6	Outcome2	-0.64	9.9	3923.75	Yes		10.544733861834699			832.0	TrialHappiness	Gain
81.0	3	444.402	4.016	1462.141	9.9	-0.32	41.5573	7.695	955.0	3.6	Outcome2	-0.64	9.9	3923.75	Yes		10.544733861834699				ISIRate	Gain
	3	452.116	0.019	1469.855				3.0													CurrentEarnings	
	3	455.131	0.015	1472.87				-0.001								{SPACE}		10.47	465.601		Goodbye	
