trial_number	block	onset	onset_delay	onset_unadjusted	amount_change	certain_amount	current_amount	duration	mood_target	multiplier	outcome	outcome1_amount	outcome2_amount	question_duration	rating	response	rpe	rt	rt_time	slider_response	trial_phase	trial_type
	0	-39.387	0.055	21.043				-0.001								{SPACE}		3.039	-36.348		Welcome	
	0	-36.327	0.021	24.103				5.0													LifeHappyPreview	
	0	-31.296	0.031	29.134				2.298												952.0	LifeHappiness	
	0	-13.292	0.017	47.138				4.0													BlockHappyPreview	
	0	-9.28	0.012	51.15				3.083								{-2}2{-2}2{-2}2{-2}		3.083	-6.197	952.0	BlockStartHappiness	
	0	-1.456	0.029	58.974				-0.001								5.0					ScanWait	
	1	0.015	0.015	60.445				10.0													GetReady	
1.0	1	10.095	0.08	70.525	11.49	5.74	11.4362	3.0	955.0	2.8	Outcome1	11.49	11.5	0.0	No	2.0	-0.0121744054360136	1.325	11.42		GetAnswer	Loss
1.0	1	11.449	0.029	71.879	11.49	5.74	11.4362	4.0	955.0	2.8	Outcome1	11.49	11.5	0.0	No		-0.0121744054360136				ShowChoice	Loss
1.0	1	15.478	0.029	75.908	11.49	5.74	11.4362	1.0	955.0	2.8	Outcome1	11.49	11.5	0.0	No		-0.0121744054360136				ShowResult	Loss
1.0	1	16.497	0.019	76.927	11.49	5.74	11.4362	2.431	955.0	2.8	Outcome1	11.49	11.5	0.0	No		-0.0121744054360136				ISITrial	Loss
2.0	1	18.955	0.027	79.385	0.0	0.0	11.4362	3.0	955.0	1.0	Certain	-0.35	-0.3	0.0	No	4.0	0.0543601359003398	1.577	20.532		GetAnswer	Mixed
2.0	1	20.56	0.028	80.99	0.0	0.0	11.4362	4.0	955.0	1.0	Certain	-0.35	-0.3	0.0	No		0.0543601359003398				ShowChoice	Mixed
2.0	1	24.588	0.028	85.018	0.0	0.0	11.4362	1.0	955.0	1.0	Certain	-0.35	-0.3	0.0	No		0.0543601359003398				ShowResult	Mixed
2.0	1	25.608	0.02	86.038	0.0	0.0	11.4362	4.568	955.0	1.0	Certain	-0.35	-0.3	0.0	No		0.0543601359003398				ISITrial	Mixed
3.0	1	30.205	0.029	90.635	8.09	4.04	12.4474	3.0	955.0	4.2	Outcome2	8.1	8.09	2868.0	Yes	2.0	-0.0127406568516421	1.247	31.452		GetAnswer	Gain
3.0	1	31.476	0.024	91.906	8.09	4.04	12.4474	4.0	955.0	4.2	Outcome2	8.1	8.09	2868.0	Yes		-0.0127406568516421				ShowChoice	Gain
3.0	1	35.504	0.028	95.934	8.09	4.04	12.4474	1.0	955.0	4.2	Outcome2	8.1	8.09	2868.0	Yes		-0.0127406568516421				ShowResult	Gain
3.0	1	36.524	0.02	96.954	8.09	4.04	12.4474	3.243	955.0	4.2	Outcome2	8.1	8.09	2868.0	Yes		-0.0127406568516421				ISITrial	Gain
3.0	1	42.676	0.024	103.106	8.09	4.04	12.4474	0.636	955.0	4.2	Outcome2	8.1	8.09	2868.0	Yes		-0.0127406568516421			512.0	TrialHappiness	Gain
3.0	1	46.688	4.012	107.118	8.09	4.04	12.4474	3.472	955.0	4.2	Outcome2	8.1	8.09	2868.0	Yes		-0.0127406568516421				ISIRate	Gain
4.0	1	50.182	0.022	110.612	-4.0	-4.0	11.9474	3.0	955.0	1.2	Certain	-7.64	-0.1	0.0	No	4.0	7.5356738391846	2.405	52.587		GetAnswer	Mixed
4.0	1	52.605	0.018	113.035	-4.0	-4.0	11.9474	4.0	955.0	1.2	Certain	-7.64	-0.1	0.0	No		7.5356738391846				ShowChoice	Mixed
4.0	1	56.634	0.029	117.064	-4.0	-4.0	11.9474	1.0	955.0	1.2	Certain	-7.64	-0.1	0.0	No		7.5356738391846				ShowResult	Mixed
4.0	1	57.654	0.02	118.084	-4.0	-4.0	11.9474	2.011	955.0	1.2	Certain	-7.64	-0.1	0.0	No		7.5356738391846				ISITrial	Mixed
5.0	1	59.693	0.028	120.123	13.1	2.53	13.5849	3.0	955.0	2.22	Outcome1	13.1	5.06	2582.5	Yes	2.0	8.03737259343148	1.028	60.721		GetAnswer	Loss
5.0	1	60.746	0.025	121.176	13.1	2.53	13.5849	4.0	955.0	2.22	Outcome1	13.1	5.06	2582.5	Yes		8.03737259343148				ShowChoice	Loss
5.0	1	64.759	0.013	125.189	13.1	2.53	13.5849	1.0	955.0	2.22	Outcome1	13.1	5.06	2582.5	Yes		8.03737259343148				ShowResult	Loss
5.0	1	65.778	0.019	126.208	13.1	2.53	13.5849	5.129	955.0	2.22	Outcome1	13.1	5.06	2582.5	Yes		8.03737259343148				ISITrial	Loss
5.0	1	73.535	0.026	133.965	13.1	2.53	13.5849	1.51	955.0	2.22	Outcome1	13.1	5.06	2582.5	Yes	2{-2}	8.03737259343148	1.51	75.045	952.0	TrialHappiness	Loss
5.0	1	77.564	4.029	137.994	13.1	2.53	13.5849	2.33	955.0	2.22	Outcome1	13.1	5.06	2582.5	Yes		8.03737259343148				ISIRate	Loss
6.0	1	79.921	0.027	140.351	13.7	6.32	15.2974	3.0	955.0	3.16	Outcome2	12.64	13.7	0.0	No	2.0	1.06455266138165	0.72	80.641		GetAnswer	Loss
6.0	1	80.656	0.015	141.086	13.7	6.32	15.2974	4.0	955.0	3.16	Outcome2	12.64	13.7	0.0	No		1.06455266138165				ShowChoice	Loss
6.0	1	84.685	0.029	145.115	13.7	6.32	15.2974	1.0	955.0	3.16	Outcome2	12.64	13.7	0.0	No		1.06455266138165				ShowResult	Loss
6.0	1	85.705	0.02	146.135	13.7	6.32	15.2974	6.232	955.0	3.16	Outcome2	12.64	13.7	0.0	No		1.06455266138165				ISITrial	Loss
7.0	1	91.957	0.02	152.387	0.0	0.0	15.2974	3.0	955.0	0.3	Certain	-0.37	0.7	0.0	No	4.0	1.0679501698754201	1.697	93.654		GetAnswer	Mixed
7.0	1	93.678	0.024	154.108	0.0	0.0	15.2974	4.0	955.0	0.3	Certain	-0.37	0.7	0.0	No		1.0679501698754201				ShowChoice	Mixed
7.0	1	97.69	0.012	158.12	0.0	0.0	15.2974	1.0	955.0	0.3	Certain	-0.37	0.7	0.0	No		1.0679501698754201				ShowResult	Mixed
7.0	1	98.71	0.02	159.14	0.0	0.0	15.2974	2.305	955.0	0.3	Certain	-0.37	0.7	0.0	No		1.0679501698754201				ISITrial	Mixed
8.0	1	101.034	0.019	161.464	6.2	3.1	16.0724	3.0	955.0	5.0	Outcome2	6.3	6.2	3112.5	Yes	2.0	-0.0972064930162325	0.775	101.809		GetAnswer	Gain
8.0	1	101.836	0.027	162.266	6.2	3.1	16.0724	4.0	955.0	5.0	Outcome2	6.3	6.2	3112.5	Yes		-0.0972064930162325				ShowChoice	Gain
8.0	1	105.865	0.029	166.295	6.2	3.1	16.0724	1.0	955.0	5.0	Outcome2	6.3	6.2	3112.5	Yes		-0.0972064930162325				ShowResult	Gain
8.0	1	106.885	0.02	167.315	6.2	3.1	16.0724	3.506	955.0	5.0	Outcome2	6.3	6.2	3112.5	Yes		-0.0972064930162325				ISITrial	Gain
8.0	1	113.555	0.031	173.985	6.2	3.1	16.0724	1.21	955.0	5.0	Outcome2	6.3	6.2	3112.5	Yes		-0.0972064930162325			952.0	TrialHappiness	Gain
8.0	1	117.583	4.028	178.013	6.2	3.1	16.0724	4.45	955.0	5.0	Outcome2	6.3	6.2	3112.5	Yes		-0.0972064930162325				ISIRate	Gain
9.0	1	122.063	0.03	182.493	1.9	1.0	16.3099	3.0	955.0	1.2	Outcome2	0.83	1.9	0.0	No	2.0	1.07474518686297	0.875	122.938		GetAnswer	Mixed
9.0	1	122.966	0.028	183.396	1.9	1.0	16.3099	4.0	955.0	1.2	Outcome2	0.83	1.9	0.0	No		1.07474518686297				ShowChoice	Mixed
9.0	1	126.995	0.029	187.425	1.9	1.0	16.3099	1.0	955.0	1.2	Outcome2	0.83	1.9	0.0	No		1.07474518686297				ShowResult	Mixed
9.0	1	128.015	0.02	188.445	1.9	1.0	16.3099	2.0	955.0	1.2	Outcome2	0.83	1.9	0.0	No		1.07474518686297				ISITrial	Mixed
10.0	1	130.037	0.022	190.467	5.7	2.31	17.0224	3.0	955.0	3.16	Outcome2	4.62	5.7	4000.0	Yes	2.0	1.0781426953567401	0.98	131.017		GetAnswer	Gain
10.0	1	131.04	0.023	191.47	5.7	2.31	17.0224	4.0	955.0	3.16	Outcome2	4.62	5.7	4000.0	Yes		1.0781426953567401				ShowChoice	Gain
10.0	1	135.069	0.029	195.499	5.7	2.31	17.0224	1.0	955.0	3.16	Outcome2	4.62	5.7	4000.0	Yes		1.0781426953567401				ShowResult	Gain
10.0	1	136.089	0.02	196.519	5.7	2.31	17.0224	2.0	955.0	3.16	Outcome2	4.62	5.7	4000.0	Yes		1.0781426953567401				ISITrial	Gain
10.0	1	142.14	0.029	202.57	5.7	2.31	17.0224	1.46	955.0	3.16	Outcome2	4.62	5.7	4000.0	Yes	{-2}2{-2}	1.0781426953567401	1.46	143.6	952.0	TrialHappiness	Gain
10.0	1	146.169	4.029	206.599	5.7	2.31	17.0224	8.0	955.0	3.16	Outcome2	4.62	5.7	4000.0	Yes		1.0781426953567401				ISIRate	Gain
11.0	1	154.193	0.024	214.623	9.3	4.11	18.1849	3.0	955.0	2.48	Outcome2	8.22	9.3	0.0	No	2.0	1.08154020385051	0.739	154.932		GetAnswer	Gain
11.0	1	154.962	0.03	215.392	9.3	4.11	18.1849	4.0	955.0	2.48	Outcome2	8.22	9.3	0.0	No		1.08154020385051				ShowChoice	Gain
11.0	1	158.974	0.012	219.404	9.3	4.11	18.1849	1.0	955.0	2.48	Outcome2	8.22	9.3	0.0	No		1.08154020385051				ShowResult	Gain
11.0	1	159.994	0.02	220.424	9.3	4.11	18.1849	3.324	955.0	2.48	Outcome2	8.22	9.3	0.0	No		1.08154020385051				ISITrial	Gain
12.0	1	163.337	0.019	223.767	2.7	2.0	18.5224	3.0	955.0	0.3	Outcome2	1.62	2.7	2618.75	Yes	2.0	1.08493771234428	0.996	164.333		GetAnswer	Mixed
12.0	1	164.357	0.024	224.787	2.7	2.0	18.5224	4.0	955.0	0.3	Outcome2	1.62	2.7	2618.75	Yes		1.08493771234428				ShowChoice	Mixed
12.0	1	168.385	0.028	228.815	2.7	2.0	18.5224	1.0	955.0	0.3	Outcome2	1.62	2.7	2618.75	Yes		1.08493771234428				ShowResult	Mixed
12.0	1	169.405	0.02	229.835	2.7	2.0	18.5224	6.642	955.0	0.3	Outcome2	1.62	2.7	2618.75	Yes		1.08493771234428				ISITrial	Mixed
12.0	1	178.716	0.022	239.146	2.7	2.0	18.5224	1.761	955.0	0.3	Outcome2	1.62	2.7	2618.75	Yes		1.08493771234428			952.0	TrialHappiness	Mixed
12.0	1	182.745	4.029	243.175	2.7	2.0	18.5224	2.475	955.0	0.3	Outcome2	1.62	2.7	2618.75	Yes		1.08493771234428				ISIRate	Mixed
13.0	1	185.253	0.033	245.683	5.4	2.7	19.1974	3.0	955.0	2.8	Outcome2	5.5	5.4	0.0	No	2.0	-0.0986221215553038	0.971	186.224		GetAnswer	Gain
13.0	1	186.239	0.015	246.669	5.4	2.7	19.1974	4.0	955.0	2.8	Outcome2	5.5	5.4	0.0	No		-0.0986221215553038				ShowChoice	Gain
13.0	1	190.268	0.029	250.698	5.4	2.7	19.1974	1.0	955.0	2.8	Outcome2	5.5	5.4	0.0	No		-0.0986221215553038				ShowResult	Gain
13.0	1	191.287	0.019	251.717	5.4	2.7	19.1974	3.48	955.0	2.8	Outcome2	5.5	5.4	0.0	No		-0.0986221215553038				ISITrial	Gain
14.0	1	194.798	0.031	255.228	12.4	6.2	20.7474	3.0	955.0	1.68	Outcome1	12.4	12.5	0.0	No	2.0	-0.0989052472631181	0.97	195.768		GetAnswer	Loss
14.0	1	195.784	0.016	256.214	12.4	6.2	20.7474	4.0	955.0	1.68	Outcome1	12.4	12.5	0.0	No		-0.0989052472631181				ShowChoice	Loss
14.0	1	199.796	0.012	260.226	12.4	6.2	20.7474	1.0	955.0	1.68	Outcome1	12.4	12.5	0.0	No		-0.0989052472631181				ShowResult	Loss
14.0	1	200.816	0.02	261.246	12.4	6.2	20.7474	5.019	955.0	1.68	Outcome1	12.4	12.5	0.0	No		-0.0989052472631181				ISITrial	Loss
15.0	1	205.864	0.029	266.294	12.9	5.9	22.3599	3.0	955.0	2.0	Outcome2	11.8	12.9	3348.5	Yes	2.0	1.0951302378255898	0.76	206.624		GetAnswer	Loss
15.0	1	206.65	0.026	267.08	12.9	5.9	22.3599	4.0	955.0	2.0	Outcome2	11.8	12.9	3348.5	Yes		1.0951302378255898				ShowChoice	Loss
15.0	1	210.679	0.029	271.109	12.9	5.9	22.3599	1.0	955.0	2.0	Outcome2	11.8	12.9	3348.5	Yes		1.0951302378255898				ShowResult	Loss
15.0	1	211.698	0.019	272.128	12.9	5.9	22.3599	7.614	955.0	2.0	Outcome2	11.8	12.9	3348.5	Yes		1.0951302378255898				ISITrial	Loss
15.0	1	222.715	0.029	283.145	12.9	5.9	22.3599	2.782	955.0	2.0	Outcome2	11.8	12.9	3348.5	Yes		1.0951302378255898			952.0	TrialHappiness	Loss
15.0	1	226.727	4.012	287.157	12.9	5.9	22.3599	5.394	955.0	2.0	Outcome2	11.8	12.9	3348.5	Yes		1.0951302378255898				ISIRate	Loss
16.0	1	232.143	0.022	292.573	3.9	1.4	22.8474	3.0	955.0	1.2	Outcome1	3.9	2.8	0.0	No	2.0	1.09852774631937	0.819	232.962		GetAnswer	Mixed
16.0	1	232.979	0.017	293.409	3.9	1.4	22.8474	4.0	955.0	1.2	Outcome1	3.9	2.8	0.0	No		1.09852774631937				ShowChoice	Mixed
16.0	1	236.991	0.012	297.421	3.9	1.4	22.8474	1.0	955.0	1.2	Outcome1	3.9	2.8	0.0	No		1.09852774631937				ShowResult	Mixed
16.0	1	238.01	0.019	298.44	3.9	1.4	22.8474	3.008	955.0	1.2	Outcome1	3.9	2.8	0.0	No		1.09852774631937				ISITrial	Mixed
17.0	1	241.036	0.018	301.466	-0.8	-1.0	22.7474	3.0	955.0	0.66	Outcome1	-0.8	-0.7	3041.5	Yes	2.0	-0.0997546243865609	2.613	243.649		GetAnswer	Mixed
17.0	1	243.661	0.012	304.091	-0.8	-1.0	22.7474	4.0	955.0	0.66	Outcome1	-0.8	-0.7	3041.5	Yes		-0.0997546243865609				ShowChoice	Mixed
17.0	1	247.673	0.012	308.103	-0.8	-1.0	22.7474	1.0	955.0	0.66	Outcome1	-0.8	-0.7	3041.5	Yes		-0.0997546243865609				ShowResult	Mixed
17.0	1	248.692	0.019	309.122	-0.8	-1.0	22.7474	3.566	955.0	0.66	Outcome1	-0.8	-0.7	3041.5	Yes		-0.0997546243865609				ISITrial	Mixed
17.0	1	255.329	0.017	315.759	-0.8	-1.0	22.7474	1.795	955.0	0.66	Outcome1	-0.8	-0.7	3041.5	Yes	2{-2}	-0.0997546243865609	1.795	257.124	952.0	TrialHappiness	Mixed
17.0	1	259.341	4.012	319.771	-0.8	-1.0	22.7474	4.166	955.0	0.66	Outcome1	-0.8	-0.7	3041.5	Yes		-0.0997546243865609				ISIRate	Mixed
18.0	1	263.537	0.03	323.967	8.2	4.1	23.7724	3.0	955.0	5.0	Outcome1	8.2	8.3	0.0	No	2.0	-0.100037750094375	1.251	264.788		GetAnswer	Gain
18.0	1	264.807	0.019	325.237	8.2	4.1	23.7724	4.0	955.0	5.0	Outcome1	8.2	8.3	0.0	No		-0.100037750094375				ShowChoice	Gain
18.0	1	268.819	0.012	329.249	8.2	4.1	23.7724	1.0	955.0	5.0	Outcome1	8.2	8.3	0.0	No		-0.100037750094375				ShowResult	Gain
18.0	1	269.839	0.02	330.269	8.2	4.1	23.7724	6.787	955.0	5.0	Outcome1	8.2	8.3	0.0	No		-0.100037750094375				ISITrial	Gain
19.0	1	276.643	0.017	337.073	4.2	2.1	24.2974	3.0	955.0	2.0	Outcome1	4.2	4.3	0.0	No	2.0	-0.10032087580218901	1.055	277.698		GetAnswer	Mixed
19.0	1	277.713	0.015	338.143	4.2	2.1	24.2974	4.0	955.0	2.0	Outcome1	4.2	4.3	0.0	No		-0.10032087580218901				ShowChoice	Mixed
19.0	1	281.725	0.012	342.155	4.2	2.1	24.2974	1.0	955.0	2.0	Outcome1	4.2	4.3	0.0	No		-0.10032087580218901				ShowResult	Mixed
19.0	1	282.744	0.019	343.174	4.2	2.1	24.2974	2.0	955.0	2.0	Outcome1	4.2	4.3	0.0	No		-0.10032087580218901				ISITrial	Mixed
20.0	1	284.767	0.023	345.197	12.1	5.5	25.8099	3.0	955.0	4.2	Outcome2	10.99	12.1	2921.25	Yes	2.0	1.11211778029445	0.792	285.559		GetAnswer	Loss
20.0	1	285.586	0.027	346.016	12.1	5.5	25.8099	4.0	955.0	4.2	Outcome2	10.99	12.1	2921.25	Yes		1.11211778029445				ShowChoice	Loss
20.0	1	289.598	0.012	350.028	12.1	5.5	25.8099	1.0	955.0	4.2	Outcome2	10.99	12.1	2921.25	Yes		1.11211778029445				ShowResult	Loss
20.0	1	290.618	0.02	351.048	12.1	5.5	25.8099	8.0	955.0	4.2	Outcome2	10.99	12.1	2921.25	Yes		1.11211778029445				ISITrial	Loss
20.0	1	301.584	0.021	362.014	12.1	5.5	25.8099	1.778	955.0	4.2	Outcome2	10.99	12.1	2921.25	Yes		1.11211778029445			952.0	TrialHappiness	Loss
20.0	1	305.596	4.012	366.026	12.1	5.5	25.8099	3.685	955.0	4.2	Outcome2	10.99	12.1	2921.25	Yes		1.11211778029445				ISIRate	Loss
21.0	1	309.307	0.026	369.737	-1.0	-1.0	25.6849	3.0	955.0	0.52	Certain	-2.02	-0.9	0.0	No	4.0	1.11551528878822	2.003	311.31		GetAnswer	Mixed
21.0	1	311.33	0.02	371.76	-1.0	-1.0	25.6849	4.0	955.0	0.52	Certain	-2.02	-0.9	0.0	No		1.11551528878822				ShowChoice	Mixed
21.0	1	315.342	0.012	375.772	-1.0	-1.0	25.6849	1.0	955.0	0.52	Certain	-2.02	-0.9	0.0	No		1.11551528878822				ShowResult	Mixed
21.0	1	316.362	0.02	376.792	-1.0	-1.0	25.6849	3.555	955.0	0.52	Certain	-2.02	-0.9	0.0	No		1.11551528878822				ISITrial	Mixed
22.0	1	319.939	0.022	380.369	-1.0	-1.0	25.5599	3.0	955.0	0.4	Certain	-1.2	-1.1	3219.5	Yes	4.0	-0.10117025292563198	1.333	321.272		GetAnswer	Mixed
22.0	1	321.293	0.02	381.723	-1.0	-1.0	25.5599	4.0	955.0	0.4	Certain	-1.2	-1.1	3219.5	Yes		-0.10117025292563198				ShowChoice	Mixed
22.0	1	325.305	0.012	385.735	-1.0	-1.0	25.5599	1.0	955.0	0.4	Certain	-1.2	-1.1	3219.5	Yes		-0.10117025292563198				ShowResult	Mixed
22.0	1	326.325	0.02	386.755	-1.0	-1.0	25.5599	6.793	955.0	0.4	Certain	-1.2	-1.1	3219.5	Yes		-0.10117025292563198				ISITrial	Mixed
22.0	1	336.372	0.024	396.802	-1.0	-1.0	25.5599	1.293	955.0	0.4	Certain	-1.2	-1.1	3219.5	Yes	2{-2}	-0.10117025292563198	1.293	337.665	824.0	TrialHappiness	Mixed
22.0	1	340.384	4.012	400.814	-1.0	-1.0	25.5599	4.878	955.0	0.4	Certain	-1.2	-1.1	3219.5	Yes		-0.10117025292563198				ISIRate	Mixed
23.0	1	345.282	0.02	405.712	9.7	3.2	26.7724	3.0	955.0	3.16	Outcome1	9.7	6.4	0.0	No	2.0	3.29671574178935	0.856	346.138		GetAnswer	Gain
23.0	1	346.151	0.013	406.581	9.7	3.2	26.7724	4.0	955.0	3.16	Outcome1	9.7	6.4	0.0	No		3.29671574178935				ShowChoice	Gain
23.0	1	350.163	0.012	410.593	9.7	3.2	26.7724	1.0	955.0	3.16	Outcome1	9.7	6.4	0.0	No		3.29671574178935				ShowResult	Gain
23.0	1	351.183	0.02	411.613	9.7	3.2	26.7724	8.0	955.0	3.16	Outcome1	9.7	6.4	0.0	No		3.29671574178935				ISITrial	Gain
24.0	1	359.207	0.024	419.637	-1.0	-1.0	26.6474	3.0	955.0	0.3	Certain	-1.93	-1.3	3255.0	Yes	4.0	-0.6332578331445831	1.392	360.599		GetAnswer	Mixed
24.0	1	360.611	0.012	421.041	-1.0	-1.0	26.6474	4.0	955.0	0.3	Certain	-1.93	-1.3	3255.0	Yes		-0.6332578331445831				ShowChoice	Mixed
24.0	1	364.623	0.012	425.053	-1.0	-1.0	26.6474	1.0	955.0	0.3	Certain	-1.93	-1.3	3255.0	Yes		-0.6332578331445831				ShowResult	Mixed
24.0	1	365.642	0.019	426.072	-1.0	-1.0	26.6474	2.0	955.0	0.3	Certain	-1.93	-1.3	3255.0	Yes		-0.6332578331445831				ISITrial	Mixed
24.0	1	370.942	0.022	431.372	-1.0	-1.0	26.6474	3.384	955.0	0.3	Certain	-1.93	-1.3	3255.0	Yes	2{-2}2{-2}	-0.6332578331445831	3.384	374.326	824.0	TrialHappiness	Mixed
24.0	1	374.954	4.012	435.384	-1.0	-1.0	26.6474	5.02	955.0	0.3	Certain	-1.93	-1.3	3255.0	Yes		-0.6332578331445831				ISIRate	Mixed
25.0	1	380.002	0.028	440.432	-2.15	-2.0	26.3786	3.0	955.0	0.2	Outcome1	-2.15	-1.5	0.0	No	2.0	-0.645620989052473	2.191	382.193		GetAnswer	Mixed
25.0	1	382.209	0.016	442.639	-2.15	-2.0	26.3786	4.0	955.0	0.2	Outcome1	-2.15	-1.5	0.0	No		-0.645620989052473				ShowChoice	Mixed
25.0	1	386.221	0.012	446.651	-2.15	-2.0	26.3786	1.0	955.0	0.2	Outcome1	-2.15	-1.5	0.0	No		-0.645620989052473				ShowResult	Mixed
25.0	1	387.24	0.019	447.67	-2.15	-2.0	26.3786	3.749	955.0	0.2	Outcome1	-2.15	-1.5	0.0	No		-0.645620989052473				ISITrial	Mixed
26.0	1	391.018	0.029	451.448	6.1	1.18	27.1411	3.0	955.0	4.2	Outcome1	6.1	2.36	0.0	No	2.0	3.74178935447338	1.071	392.089		GetAnswer	Gain
26.0	1	392.105	0.016	452.535	6.1	1.18	27.1411	4.0	955.0	4.2	Outcome1	6.1	2.36	0.0	No		3.74178935447338				ShowChoice	Gain
26.0	1	396.117	0.012	456.547	6.1	1.18	27.1411	1.0	955.0	4.2	Outcome1	6.1	2.36	0.0	No		3.74178935447338				ShowResult	Gain
26.0	1	397.137	0.02	457.567	6.1	1.18	27.1411	7.834	955.0	4.2	Outcome1	6.1	2.36	0.0	No		3.74178935447338				ISITrial	Gain
27.0	1	404.994	0.023	465.424	8.9	2.5	28.2536	3.0	955.0	2.0	Outcome2	5.01	8.9	2549.75	Yes	2.0	3.89014722536806	1.077	406.071		GetAnswer	Gain
27.0	1	406.097	0.026	466.527	8.9	2.5	28.2536	4.0	955.0	2.0	Outcome2	5.01	8.9	2549.75	Yes		3.89014722536806				ShowChoice	Gain
27.0	1	410.109	0.012	470.539	8.9	2.5	28.2536	1.0	955.0	2.0	Outcome2	5.01	8.9	2549.75	Yes		3.89014722536806				ShowResult	Gain
27.0	1	411.129	0.02	471.559	8.9	2.5	28.2536	4.225	955.0	2.0	Outcome2	5.01	8.9	2549.75	Yes		3.89014722536806				ISITrial	Gain
27.0	1	417.949	0.024	478.379	8.9	2.5	28.2536	3.585	955.0	2.0	Outcome2	5.01	8.9	2549.75	Yes		3.89014722536806			912.0	TrialHappiness	Gain
27.0	1	421.961	4.012	482.391	8.9	2.5	28.2536	2.199	955.0	2.0	Outcome2	5.01	8.9	2549.75	Yes		3.89014722536806				ISIRate	Gain
	1	424.184	0.024	484.614				-0.001								{SPACE}		33.746	457.93		Rest	
	1	457.952	0.022	518.382				4.0													BlockHappyPreview	
	1	461.964	0.012	522.394				3.819												952.0	BlockStartHappiness	
	1	467.848	0.014	528.278				-0.001								5.0		1.171	469.019		ScanWait	
	2	0.016	0.016	529.465				10.0													GetReady	
28.0	2	10.03	0.014	539.479	-3.3	-1.65	27.8411	3.0	70.0	3.16	Outcome2	11.7	-3.3	0.0	No	2.0	-15.0	1.277	11.307		GetAnswer	Loss
28.0	2	11.334	0.027	540.783	-3.3	-1.65	27.8411	4.0	70.0	3.16	Outcome2	11.7	-3.3	0.0	No		-15.0				ShowChoice	Loss
28.0	2	15.346	0.012	544.795	-3.3	-1.65	27.8411	1.0	70.0	3.16	Outcome2	11.7	-3.3	0.0	No		-15.0				ShowResult	Loss
28.0	2	16.365	0.019	545.814	-3.3	-1.65	27.8411	3.575	70.0	3.16	Outcome2	11.7	-3.3	0.0	No		-15.0				ISITrial	Loss
29.0	2	19.959	0.019	549.408	-2.1	-1.05	27.5786	3.0	70.0	3.6	Outcome2	13.9	-2.1	3529.0	Yes	2.0	-16.0	0.883	20.842		GetAnswer	Loss
29.0	2	20.862	0.02	550.311	-2.1	-1.05	27.5786	4.0	70.0	3.6	Outcome2	13.9	-2.1	3529.0	Yes		-16.0				ShowChoice	Loss
29.0	2	24.874	0.012	554.323	-2.1	-1.05	27.5786	1.0	70.0	3.6	Outcome2	13.9	-2.1	3529.0	Yes		-16.0				ShowResult	Loss
29.0	2	25.894	0.02	555.343	-2.1	-1.05	27.5786	3.955	70.0	3.6	Outcome2	13.9	-2.1	3529.0	Yes		-16.0				ISITrial	Loss
29.0	2	33.416	0.015	562.865	-2.1	-1.05	27.5786	1.963	70.0	3.6	Outcome2	13.9	-2.1	3529.0	Yes		-16.0			696.0	TrialHappiness	Loss
29.0	2	37.428	4.012	566.877	-2.1	-1.05	27.5786	6.116	70.0	3.6	Outcome2	13.9	-2.1	3529.0	Yes		-16.0				ISIRate	Loss
30.0	2	43.563	0.019	573.012	2.58	1.0	27.9011	3.0	70.0	5.0	Outcome1	2.58	-0.13	0.0	No	2.0	2.7099395313681	2.242	45.805		GetAnswer	Gain
30.0	2	45.82	0.015	575.269	2.58	1.0	27.9011	4.0	70.0	5.0	Outcome1	2.58	-0.13	0.0	No		2.7099395313681				ShowChoice	Gain
30.0	2	49.832	0.012	579.281	2.58	1.0	27.9011	1.0	70.0	5.0	Outcome1	2.58	-0.13	0.0	No		2.7099395313681				ShowResult	Gain
30.0	2	50.852	0.02	580.301	2.58	1.0	27.9011	4.453	70.0	5.0	Outcome1	2.58	-0.13	0.0	No		2.7099395313681				ISITrial	Gain
31.0	2	55.332	0.027	584.781	2.62	1.0	28.2286	3.0	70.0	1.68	Outcome2	-0.15	2.62	2503.25	Yes	2.0	2.76908541194255	2.41	57.742		GetAnswer	Loss
31.0	2	57.756	0.014	587.205	2.62	1.0	28.2286	4.0	70.0	1.68	Outcome2	-0.15	2.62	2503.25	Yes		2.76908541194255				ShowChoice	Loss
31.0	2	61.768	0.012	591.217	2.62	1.0	28.2286	1.0	70.0	1.68	Outcome2	-0.15	2.62	2503.25	Yes		2.76908541194255				ShowResult	Loss
31.0	2	62.788	0.02	592.237	2.62	1.0	28.2286	4.786	70.0	1.68	Outcome2	-0.15	2.62	2503.25	Yes		2.76908541194255				ISITrial	Loss
31.0	2	70.109	0.021	599.558	2.62	1.0	28.2286	2.197	70.0	1.68	Outcome2	-0.15	2.62	2503.25	Yes		2.76908541194255			952.0	TrialHappiness	Loss
31.0	2	74.121	4.012	603.57	2.62	1.0	28.2286	2.013	70.0	1.68	Outcome2	-0.15	2.62	2503.25	Yes		2.76908541194255				ISIRate	Loss
32.0	2	76.161	0.027	605.61	2.0	2.0	28.4786	3.0	70.0	2.22	Certain	-7.32	11.1	0.0	No	4.0	-18.4195011337868	1.553	77.714		GetAnswer	Loss
32.0	2	77.732	0.018	607.181	2.0	2.0	28.4786	4.0	70.0	2.22	Certain	-7.32	11.1	0.0	No		-18.4195011337868				ShowChoice	Loss
32.0	2	81.744	0.012	611.193	2.0	2.0	28.4786	1.0	70.0	2.22	Certain	-7.32	11.1	0.0	No		-18.4195011337868				ShowResult	Loss
32.0	2	82.764	0.02	612.213	2.0	2.0	28.4786	2.0	70.0	2.22	Certain	-7.32	11.1	0.0	No		-18.4195011337868				ISITrial	Loss
33.0	2	84.787	0.023	614.236	2.0	2.0	28.7286	3.0	70.0	5.0	Certain	12.3	-7.12	0.0	No	4.0	-19.4195011337868	1.474	86.261		GetAnswer	Loss
33.0	2	86.275	0.014	615.724	2.0	2.0	28.7286	4.0	70.0	5.0	Certain	12.3	-7.12	0.0	No		-19.4195011337868				ShowChoice	Loss
33.0	2	90.287	0.012	619.736	2.0	2.0	28.7286	1.0	70.0	5.0	Certain	12.3	-7.12	0.0	No		-19.4195011337868				ShowResult	Loss
33.0	2	91.306	0.019	620.755	2.0	2.0	28.7286	5.099	70.0	5.0	Certain	12.3	-7.12	0.0	No		-19.4195011337868				ISITrial	Loss
34.0	2	96.422	0.017	625.871	-1.0	-1.0	28.6036	3.0	70.0	0.52	Certain	-3.26	0.78	3231.5	Yes	4.0	4.034958427815569	1.821	98.243		GetAnswer	Mixed
34.0	2	98.26	0.017	627.709	-1.0	-1.0	28.6036	4.0	70.0	0.52	Certain	-3.26	0.78	3231.5	Yes		4.034958427815569				ShowChoice	Mixed
34.0	2	102.272	0.012	631.721	-1.0	-1.0	28.6036	1.0	70.0	0.52	Certain	-3.26	0.78	3231.5	Yes		4.034958427815569				ShowResult	Mixed
34.0	2	103.292	0.02	632.741	-1.0	-1.0	28.6036	4.784	70.0	0.52	Certain	-3.26	0.78	3231.5	Yes		4.034958427815569				ISITrial	Mixed
34.0	2	111.35	0.028	640.799	-1.0	-1.0	28.6036	2.748	70.0	0.52	Certain	-3.26	0.78	3231.5	Yes		4.034958427815569			764.0	TrialHappiness	Mixed
34.0	2	115.362	4.012	644.811	-1.0	-1.0	28.6036	4.926	70.0	0.52	Certain	-3.26	0.78	3231.5	Yes		4.034958427815569				ISIRate	Mixed
35.0	2	120.31	0.022	649.759	-2.0	-2.0	28.3536	3.0	70.0	2.0	Certain	-11.32	6.9	0.0	No	4.0	-18.2222222222222	1.688	121.998		GetAnswer	Gain
35.0	2	122.015	0.017	651.464	-2.0	-2.0	28.3536	4.0	70.0	2.0	Certain	-11.32	6.9	0.0	No		-18.2222222222222				ShowChoice	Gain
35.0	2	126.027	0.012	655.476	-2.0	-2.0	28.3536	1.0	70.0	2.0	Certain	-11.32	6.9	0.0	No		-18.2222222222222				ShowResult	Gain
35.0	2	127.047	0.02	656.496	-2.0	-2.0	28.3536	2.098	70.0	2.0	Certain	-11.32	6.9	0.0	No		-18.2222222222222				ISITrial	Gain
36.0	2	129.17	0.025	658.619	-7.0	-7.0	27.4786	3.0	70.0	1.5	Certain	2.1	-16.91	3335.75	Yes	4.0	-19.0090702947846	2.708	131.878		GetAnswer	Mixed
36.0	2	131.894	0.016	661.343	-7.0	-7.0	27.4786	4.0	70.0	1.5	Certain	2.1	-16.91	3335.75	Yes		-19.0090702947846				ShowChoice	Mixed
36.0	2	135.906	0.012	665.355	-7.0	-7.0	27.4786	1.0	70.0	1.5	Certain	2.1	-16.91	3335.75	Yes		-19.0090702947846				ShowResult	Mixed
36.0	2	136.926	0.02	666.375	-7.0	-7.0	27.4786	5.156	70.0	1.5	Certain	2.1	-16.91	3335.75	Yes		-19.0090702947846				ISITrial	Mixed
36.0	2	145.468	0.024	674.917	-7.0	-7.0	27.4786	0.66	70.0	1.5	Certain	2.1	-16.91	3335.75	Yes		-19.0090702947846			464.0	TrialHappiness	Mixed
36.0	2	149.48	4.012	678.929	-7.0	-7.0	27.4786	5.343	70.0	1.5	Certain	2.1	-16.91	3335.75	Yes		-19.0090702947846				ISIRate	Mixed
37.0	2	154.846	0.023	684.295	-4.0	-4.0	26.9786	3.0	70.0	0.66	Certain	3.3	-11.39	0.0	No	4.0	-14.693877551020401	1.19	156.036		GetAnswer	Mixed
37.0	2	156.05	0.014	685.499	-4.0	-4.0	26.9786	4.0	70.0	0.66	Certain	3.3	-11.39	0.0	No		-14.693877551020401				ShowChoice	Mixed
37.0	2	160.062	0.012	689.511	-4.0	-4.0	26.9786	1.0	70.0	0.66	Certain	3.3	-11.39	0.0	No		-14.693877551020401				ShowResult	Mixed
37.0	2	161.082	0.02	690.531	-4.0	-4.0	26.9786	3.598	70.0	0.66	Certain	3.3	-11.39	0.0	No		-14.693877551020401				ISITrial	Mixed
38.0	2	164.709	0.029	694.158	-2.44	-1.22	26.6736	3.0	70.0	1.82	Outcome2	12.7	-2.44	0.0	No	2.0	-15.140589569161	1.984	166.693		GetAnswer	Loss
38.0	2	166.715	0.022	696.164	-2.44	-1.22	26.6736	4.0	70.0	1.82	Outcome2	12.7	-2.44	0.0	No		-15.140589569161				ShowChoice	Loss
38.0	2	170.727	0.012	700.176	-2.44	-1.22	26.6736	1.0	70.0	1.82	Outcome2	12.7	-2.44	0.0	No		-15.140589569161				ShowResult	Loss
38.0	2	171.747	0.02	701.196	-2.44	-1.22	26.6736	4.787	70.0	1.82	Outcome2	12.7	-2.44	0.0	No		-15.140589569161				ISITrial	Loss
39.0	2	176.561	0.027	706.01	-3.0	-3.0	26.2986	3.0	70.0	1.5	Certain	4.1	-11.49	2864.25	Yes	4.0	-15.5873015873016	1.875	178.436		GetAnswer	Mixed
39.0	2	178.45	0.014	707.899	-3.0	-3.0	26.2986	4.0	70.0	1.5	Certain	4.1	-11.49	2864.25	Yes		-15.5873015873016				ShowChoice	Mixed
39.0	2	182.462	0.012	711.911	-3.0	-3.0	26.2986	1.0	70.0	1.5	Certain	4.1	-11.49	2864.25	Yes		-15.5873015873016				ShowResult	Mixed
39.0	2	183.482	0.02	712.931	-3.0	-3.0	26.2986	2.348	70.0	1.5	Certain	4.1	-11.49	2864.25	Yes		-15.5873015873016				ISITrial	Mixed
39.0	2	188.748	0.028	718.197	-3.0	-3.0	26.2986	0.943	70.0	1.5	Certain	4.1	-11.49	2864.25	Yes		-15.5873015873016			296.0	TrialHappiness	Mixed
39.0	2	192.76	4.012	722.209	-3.0	-3.0	26.2986	3.457	70.0	1.5	Certain	4.1	-11.49	2864.25	Yes		-15.5873015873016				ISIRate	Mixed
40.0	2	196.237	0.02	725.686	0.0	0.0	26.2986	3.0	70.0	3.6	Certain	5.9	-7.28	0.0	No	4.0	-13.1768707482993	1.555	197.792		GetAnswer	Gain
40.0	2	197.808	0.016	727.257	0.0	0.0	26.2986	4.0	70.0	3.6	Certain	5.9	-7.28	0.0	No		-13.1768707482993				ShowChoice	Gain
40.0	2	201.82	0.012	731.269	0.0	0.0	26.2986	1.0	70.0	3.6	Certain	5.9	-7.28	0.0	No		-13.1768707482993				ShowResult	Gain
40.0	2	202.84	0.02	732.289	0.0	0.0	26.2986	3.158	70.0	3.6	Certain	5.9	-7.28	0.0	No		-13.1768707482993				ISITrial	Gain
41.0	2	206.016	0.018	735.465	2.12	1.0	26.5636	3.0	70.0	1.68	Outcome2	0.4	2.12	4000.0	Yes	2.0	1.71730914588057	1.364	207.38		GetAnswer	Gain
41.0	2	207.404	0.024	736.853	2.12	1.0	26.5636	4.0	70.0	1.68	Outcome2	0.4	2.12	4000.0	Yes		1.71730914588057				ShowChoice	Gain
41.0	2	211.416	0.012	740.865	2.12	1.0	26.5636	1.0	70.0	1.68	Outcome2	0.4	2.12	4000.0	Yes		1.71730914588057				ShowResult	Gain
41.0	2	212.435	0.019	741.884	2.12	1.0	26.5636	4.506	70.0	1.68	Outcome2	0.4	2.12	4000.0	Yes		1.71730914588057				ISITrial	Gain
41.0	2	220.994	0.028	750.443	2.12	1.0	26.5636	3.218	70.0	1.68	Outcome2	0.4	2.12	4000.0	Yes		1.71730914588057			392.0	TrialHappiness	Gain
41.0	2	225.006	4.012	754.455	2.12	1.0	26.5636	8.0	70.0	1.68	Outcome2	0.4	2.12	4000.0	Yes		1.71730914588057				ISIRate	Gain
42.0	2	233.03	0.024	762.479	-15.82	-8.0	24.5861	3.0	70.0	0.82	Outcome2	-0.5	-15.82	0.0	No		-15.3219954648526				GetAnswer	Mixed
42.0	2	236.056	0.026	765.505	-15.82	-8.0	24.5861	4.0	70.0	0.82	Outcome2	-0.5	-15.82	0.0	No		-15.3219954648526				ShowChoice	Mixed
42.0	2	240.068	0.012	769.517	-15.82	-8.0	24.5861	1.0	70.0	0.82	Outcome2	-0.5	-15.82	0.0	No		-15.3219954648526				ShowResult	Mixed
42.0	2	241.088	0.02	770.537	-15.82	-8.0	24.5861	6.248	70.0	0.82	Outcome2	-0.5	-15.82	0.0	No		-15.3219954648526				ISITrial	Mixed
43.0	2	247.357	0.021	776.806	-1.0	-1.0	24.4611	3.0	70.0	0.2	Certain	-2.04	0.12	2775.75	Yes	4.0	2.15910808767952	1.306	248.663		GetAnswer	Mixed
43.0	2	248.677	0.014	778.126	-1.0	-1.0	24.4611	4.0	70.0	0.2	Certain	-2.04	0.12	2775.75	Yes		2.15910808767952				ShowChoice	Mixed
43.0	2	252.689	0.012	782.138	-1.0	-1.0	24.4611	1.0	70.0	0.2	Certain	-2.04	0.12	2775.75	Yes		2.15910808767952				ShowResult	Mixed
43.0	2	253.709	0.02	783.158	-1.0	-1.0	24.4611	4.596	70.0	0.2	Certain	-2.04	0.12	2775.75	Yes		2.15910808767952				ISITrial	Mixed
43.0	2	261.115	0.016	790.564	-1.0	-1.0	24.4611	3.691	70.0	0.2	Certain	-2.04	0.12	2775.75	Yes	42{-2}{-4}2{-2}42{-4}4{-2}2{-4}{-2}	2.15910808767952	3.691	264.806	100.0	TrialHappiness	Mixed
43.0	2	265.127	4.012	794.576	-1.0	-1.0	24.4611	3.103	70.0	0.2	Certain	-2.04	0.12	2775.75	Yes		2.15910808767952				ISIRate	Mixed
44.0	2	268.253	0.023	797.702	-3.0	-3.0	24.0861	3.0	70.0	2.0	Certain	-8.79	2.3	0.0	No	4.0	-11.0861678004535	1.588	269.841		GetAnswer	Mixed
44.0	2	269.857	0.016	799.306	-3.0	-3.0	24.0861	4.0	70.0	2.0	Certain	-8.79	2.3	0.0	No		-11.0861678004535				ShowChoice	Mixed
44.0	2	273.869	0.012	803.318	-3.0	-3.0	24.0861	1.0	70.0	2.0	Certain	-8.79	2.3	0.0	No		-11.0861678004535				ShowResult	Mixed
44.0	2	274.889	0.02	804.338	-3.0	-3.0	24.0861	2.42	70.0	2.0	Certain	-8.79	2.3	0.0	No		-11.0861678004535				ISITrial	Mixed
45.0	2	277.33	0.021	806.779	-0.11	-0.11	24.0723	3.0	70.0	2.0	Certain	-0.22	10.9	0.0	No	4.0	-11.120181405895698	0.956	278.286		GetAnswer	Loss
45.0	2	278.299	0.013	807.748	-0.11	-0.11	24.0723	4.0	70.0	2.0	Certain	-0.22	10.9	0.0	No		-11.120181405895698				ShowChoice	Loss
45.0	2	282.311	0.012	811.76	-0.11	-0.11	24.0723	1.0	70.0	2.0	Certain	-0.22	10.9	0.0	No		-11.120181405895698				ShowResult	Loss
45.0	2	283.331	0.02	812.78	-0.11	-0.11	24.0723	3.144	70.0	2.0	Certain	-0.22	10.9	0.0	No		-11.120181405895698				ISITrial	Loss
46.0	2	286.507	0.032	815.956	0.0	0.0	24.0723	3.0	70.0	2.48	Certain	-5.85	5.3	3841.25	Yes	4.0	-11.154195011337901	1.346	287.853		GetAnswer	Gain
46.0	2	287.878	0.025	817.327	0.0	0.0	24.0723	4.0	70.0	2.48	Certain	-5.85	5.3	3841.25	Yes		-11.154195011337901				ShowChoice	Gain
46.0	2	291.89	0.012	821.339	0.0	0.0	24.0723	1.0	70.0	2.48	Certain	-5.85	5.3	3841.25	Yes		-11.154195011337901				ShowResult	Gain
46.0	2	292.91	0.02	822.359	0.0	0.0	24.0723	2.246	70.0	2.48	Certain	-5.85	5.3	3841.25	Yes		-11.154195011337901				ISITrial	Gain
46.0	2	299.028	0.021	828.477	0.0	0.0	24.0723	3.918	70.0	2.48	Certain	-5.85	5.3	3841.25	Yes		-11.154195011337901			72.0	TrialHappiness	Gain
46.0	2	303.04	4.012	832.489	0.0	0.0	24.0723	7.365	70.0	2.48	Certain	-5.85	5.3	3841.25	Yes		-11.154195011337901				ISIRate	Gain
47.0	2	310.429	0.024	839.878	-5.0	-5.0	23.4473	3.0	70.0	1.5	Certain	-10.61	0.1	0.0	No	4.0	-10.7120181405896	2.139	312.568		GetAnswer	Mixed
47.0	2	312.585	0.017	842.034	-5.0	-5.0	23.4473	4.0	70.0	1.5	Certain	-10.61	0.1	0.0	No		-10.7120181405896				ShowChoice	Mixed
47.0	2	316.597	0.012	846.046	-5.0	-5.0	23.4473	1.0	70.0	1.5	Certain	-10.61	0.1	0.0	No		-10.7120181405896				ShowResult	Mixed
47.0	2	317.617	0.02	847.066	-5.0	-5.0	23.4473	2.0	70.0	1.5	Certain	-10.61	0.1	0.0	No		-10.7120181405896				ISITrial	Mixed
48.0	2	319.64	0.023	849.089	-1.0	-1.0	23.3223	3.0	70.0	1.68	Certain	4.5	-6.21	2831.75	Yes	4.0	-10.7142857142857	1.181	320.821		GetAnswer	Gain
48.0	2	320.843	0.022	850.292	-1.0	-1.0	23.3223	4.0	70.0	1.68	Certain	4.5	-6.21	2831.75	Yes		-10.7142857142857				ShowChoice	Gain
48.0	2	324.855	0.012	854.304	-1.0	-1.0	23.3223	1.0	70.0	1.68	Certain	4.5	-6.21	2831.75	Yes		-10.7142857142857				ShowResult	Gain
48.0	2	325.875	0.02	855.324	-1.0	-1.0	23.3223	3.692	70.0	1.68	Certain	4.5	-6.21	2831.75	Yes		-10.7142857142857				ISITrial	Gain
48.0	2	332.445	0.027	861.894	-1.0	-1.0	23.3223	2.898	70.0	1.68	Certain	4.5	-6.21	2831.75	Yes		-10.7142857142857			72.0	TrialHappiness	Gain
48.0	2	336.457	4.012	865.906	-1.0	-1.0	23.3223	3.327	70.0	1.68	Certain	4.5	-6.21	2831.75	Yes		-10.7142857142857				ISIRate	Gain
49.0	2	339.8	0.016	869.249	-2.0	-2.0	23.0723	3.0	70.0	0.4	Certain	2.9	-7.82	0.0	No	4.0	-10.7165532879819	1.527	341.327		GetAnswer	Mixed
49.0	2	341.338	0.011	870.787	-2.0	-2.0	23.0723	4.0	70.0	0.4	Certain	2.9	-7.82	0.0	No		-10.7165532879819				ShowChoice	Mixed
49.0	2	345.35	0.012	874.799	-2.0	-2.0	23.0723	1.0	70.0	0.4	Certain	2.9	-7.82	0.0	No		-10.7165532879819				ShowResult	Mixed
49.0	2	346.37	0.02	875.819	-2.0	-2.0	23.0723	8.0	70.0	0.4	Certain	2.9	-7.82	0.0	No		-10.7165532879819				ISITrial	Mixed
50.0	2	354.394	0.024	883.843	-5.0	-5.0	22.4473	3.0	70.0	2.0	Certain	0.3	-10.42	3547.25	Yes	4.0	-10.718820861678	1.433	355.827		GetAnswer	Mixed
50.0	2	355.848	0.021	885.297	-5.0	-5.0	22.4473	4.0	70.0	2.0	Certain	0.3	-10.42	3547.25	Yes		-10.718820861678				ShowChoice	Mixed
50.0	2	359.86	0.012	889.309	-5.0	-5.0	22.4473	1.0	70.0	2.0	Certain	0.3	-10.42	3547.25	Yes		-10.718820861678				ShowResult	Mixed
50.0	2	360.88	0.02	890.329	-5.0	-5.0	22.4473	7.537	70.0	2.0	Certain	0.3	-10.42	3547.25	Yes		-10.718820861678				ISITrial	Mixed
50.0	2	372.013	0.03	901.462	-5.0	-5.0	22.4473	0.925	70.0	2.0	Certain	0.3	-10.42	3547.25	Yes		-10.718820861678			72.0	TrialHappiness	Mixed
50.0	2	376.042	4.029	905.491	-5.0	-5.0	22.4473	6.189	70.0	2.0	Certain	0.3	-10.42	3547.25	Yes		-10.718820861678				ISIRate	Mixed
51.0	2	382.26	0.029	911.709	-4.0	-4.0	21.9473	3.0	70.0	0.4	Certain	-9.82	0.9	0.0	No	4.0	-10.7210884353741	1.794	384.054		GetAnswer	Mixed
51.0	2	384.066	0.012	913.515	-4.0	-4.0	21.9473	4.0	70.0	0.4	Certain	-9.82	0.9	0.0	No		-10.7210884353741				ShowChoice	Mixed
51.0	2	388.078	0.012	917.527	-4.0	-4.0	21.9473	1.0	70.0	0.4	Certain	-9.82	0.9	0.0	No		-10.7210884353741				ShowResult	Mixed
51.0	2	389.098	0.02	918.547	-4.0	-4.0	21.9473	5.508	70.0	0.4	Certain	-9.82	0.9	0.0	No		-10.7210884353741				ISITrial	Mixed
52.0	2	394.631	0.025	924.08	-0.62	-0.31	21.8698	3.0	70.0	4.2	Outcome2	10.1	-0.62	0.0	No	2.0	-10.7233560090703	1.455	396.086		GetAnswer	Gain
52.0	2	396.102	0.016	925.551	-0.62	-0.31	21.8698	4.0	70.0	4.2	Outcome2	10.1	-0.62	0.0	No		-10.7233560090703				ShowChoice	Gain
52.0	2	400.114	0.012	929.563	-0.62	-0.31	21.8698	1.0	70.0	4.2	Outcome2	10.1	-0.62	0.0	No		-10.7233560090703				ShowResult	Gain
52.0	2	401.134	0.02	930.583	-0.62	-0.31	21.8698	5.913	70.0	4.2	Outcome2	10.1	-0.62	0.0	No		-10.7233560090703				ISITrial	Gain
53.0	2	407.068	0.021	936.517	-2.83	2.0	21.516	3.0	70.0	3.6	Outcome2	7.9	-2.83	2996.75	Yes	2.0	-10.725623582766401	2.454	409.522		GetAnswer	Gain
53.0	2	409.542	0.02	938.991	-2.83	2.0	21.516	4.0	70.0	3.6	Outcome2	7.9	-2.83	2996.75	Yes		-10.725623582766401				ShowChoice	Gain
53.0	2	413.554	0.012	943.003	-2.83	2.0	21.516	1.0	70.0	3.6	Outcome2	7.9	-2.83	2996.75	Yes		-10.725623582766401				ShowResult	Gain
53.0	2	414.574	0.02	944.023	-2.83	2.0	21.516	3.66	70.0	3.6	Outcome2	7.9	-2.83	2996.75	Yes		-10.725623582766401				ISITrial	Gain
53.0	2	421.277	0.028	950.726	-2.83	2.0	21.516	2.23	70.0	3.6	Outcome2	7.9	-2.83	2996.75	Yes	4{-4}	-10.725623582766401	2.23	423.507	72.0	TrialHappiness	Gain
53.0	2	425.289	4.012	954.738	-2.83	2.0	21.516	3.987	70.0	3.6	Outcome2	7.9	-2.83	2996.75	Yes		-10.725623582766401				ISIRate	Gain
54.0	2	429.301	0.025	958.75	-1.0	-1.0	21.391	3.0	70.0	1.0	Certain	-7.03	3.7	0.0	No	4.0	-10.727891156462599	0.746	430.047		GetAnswer	Mixed
54.0	2	430.07	0.023	959.519	-1.0	-1.0	21.391	4.0	70.0	1.0	Certain	-7.03	3.7	0.0	No		-10.727891156462599				ShowChoice	Mixed
54.0	2	434.082	0.012	963.531	-1.0	-1.0	21.391	1.0	70.0	1.0	Certain	-7.03	3.7	0.0	No		-10.727891156462599				ShowResult	Mixed
54.0	2	435.102	0.02	964.551	-1.0	-1.0	21.391	8.0	70.0	1.0	Certain	-7.03	3.7	0.0	No		-10.727891156462599				ISITrial	Mixed
	2	443.126	0.024	972.575				-0.001								4		11.085	454.211		Rest	
	2	454.226	0.015	983.675				4.0													BlockHappyPreview	
	2	458.238	0.012	987.687				1.043												288.0	BlockStartHappiness	
	2	485.369	0.02	1014.818				-0.001								5.0		0.948	486.317		ScanWait	
	3	0.022	0.022	1015.788				10.0													GetReady	
55.0	3	10.035	0.013	1025.801	-2.0	-2.0	21.141	3.0	955.0	0.82	Certain	3.5	-7.83	2533.25	Yes	4.0	11.3306908267271	2.05	12.085		GetAnswer	Mixed
55.0	3	12.108	0.023	1027.874	-2.0	-2.0	21.141	4.0	955.0	0.82	Certain	3.5	-7.83	2533.25	Yes		11.3306908267271				ShowChoice	Mixed
55.0	3	16.12	0.012	1031.886	-2.0	-2.0	21.141	1.0	955.0	0.82	Certain	3.5	-7.83	2533.25	Yes		11.3306908267271				ShowResult	Mixed
55.0	3	17.14	0.02	1032.906	-2.0	-2.0	21.141	7.709	955.0	0.82	Certain	3.5	-7.83	2533.25	Yes		11.3306908267271				ISITrial	Mixed
55.0	3	27.42	0.024	1043.186	-2.0	-2.0	21.141	3.587	955.0	0.82	Certain	3.5	-7.83	2533.25	Yes		11.3306908267271			296.0	TrialHappiness	Mixed
55.0	3	31.432	4.012	1047.198	-2.0	-2.0	21.141	2.133	955.0	0.82	Certain	3.5	-7.83	2533.25	Yes		11.3306908267271				ISIRate	Mixed
56.0	3	33.589	0.024	1049.355	5.1	-1.0	21.7785	3.0	955.0	2.22	Outcome2	-6.85	5.1	0.0	No	2.0	11.9501698754247	1.653	35.242		GetAnswer	Gain
56.0	3	35.261	0.019	1051.027	5.1	-1.0	21.7785	4.0	955.0	2.22	Outcome2	-6.85	5.1	0.0	No		11.9501698754247				ShowChoice	Gain
56.0	3	39.273	0.012	1055.039	5.1	-1.0	21.7785	1.0	955.0	2.22	Outcome2	-6.85	5.1	0.0	No		11.9501698754247				ShowResult	Gain
56.0	3	40.292	0.019	1056.058	5.1	-1.0	21.7785	4.697	955.0	2.22	Outcome2	-6.85	5.1	0.0	No		11.9501698754247				ISITrial	Gain
57.0	3	45.006	0.017	1060.772	-5.0	-5.0	21.1535	3.0	955.0	0.66	Certain	1.3	-11.4	0.0	No	4.0	12.6964892412231	1.174	46.18		GetAnswer	Mixed
57.0	3	46.193	0.013	1061.959	-5.0	-5.0	21.1535	4.0	955.0	0.66	Certain	1.3	-11.4	0.0	No		12.6964892412231				ShowChoice	Mixed
57.0	3	50.205	0.012	1065.971	-5.0	-5.0	21.1535	1.0	955.0	0.66	Certain	1.3	-11.4	0.0	No		12.6964892412231				ShowResult	Mixed
57.0	3	51.225	0.02	1066.991	-5.0	-5.0	21.1535	4.291	955.0	0.66	Certain	1.3	-11.4	0.0	No		12.6964892412231				ISITrial	Mixed
58.0	3	55.538	0.022	1071.304	7.04	3.52	22.0335	3.0	955.0	3.6	Outcome1	7.04	9.9	3045.75	Yes	2.0	-2.8616459041147597	0.827	56.365		GetAnswer	Gain
58.0	3	56.39	0.025	1072.156	7.04	3.52	22.0335	4.0	955.0	3.6	Outcome1	7.04	9.9	3045.75	Yes		-2.8616459041147597				ShowChoice	Gain
58.0	3	60.402	0.012	1076.168	7.04	3.52	22.0335	1.0	955.0	3.6	Outcome1	7.04	9.9	3045.75	Yes		-2.8616459041147597				ShowResult	Gain
58.0	3	61.422	0.02	1077.188	7.04	3.52	22.0335	2.037	955.0	3.6	Outcome1	7.04	9.9	3045.75	Yes		-2.8616459041147597				ISITrial	Gain
58.0	3	66.554	0.03	1082.32	7.04	3.52	22.0335	0.96	955.0	3.6	Outcome1	7.04	9.9	3045.75	Yes		-2.8616459041147597			288.0	TrialHappiness	Gain
58.0	3	70.566	4.012	1086.332	7.04	3.52	22.0335	4.183	955.0	3.6	Outcome1	7.04	9.9	3045.75	Yes		-2.8616459041147597				ISIRate	Gain
59.0	3	74.779	0.03	1090.545	-5.0	-5.0	21.4085	3.0	955.0	1.0	Certain	1.7	-12.62	0.0	No	4.0	14.325028312570801	1.759	76.538		GetAnswer	Mixed
59.0	3	76.551	0.013	1092.317	-5.0	-5.0	21.4085	4.0	955.0	1.0	Certain	1.7	-12.62	0.0	No		14.325028312570801				ShowChoice	Mixed
59.0	3	80.563	0.012	1096.329	-5.0	-5.0	21.4085	1.0	955.0	1.0	Certain	1.7	-12.62	0.0	No		14.325028312570801				ShowResult	Mixed
59.0	3	81.582	0.019	1097.348	-5.0	-5.0	21.4085	5.064	955.0	1.0	Certain	1.7	-12.62	0.0	No		14.325028312570801				ISITrial	Mixed
60.0	3	86.664	0.018	1102.43	-1.0	-1.0	21.2835	3.0	955.0	1.82	Certain	6.7	-8.38	3562.5	Yes	4.0	15.080407701019302	2.195	88.859		GetAnswer	Gain
60.0	3	88.871	0.012	1104.637	-1.0	-1.0	21.2835	4.0	955.0	1.82	Certain	6.7	-8.38	3562.5	Yes		15.080407701019302				ShowChoice	Gain
60.0	3	92.883	0.012	1108.649	-1.0	-1.0	21.2835	1.0	955.0	1.82	Certain	6.7	-8.38	3562.5	Yes		15.080407701019302				ShowResult	Gain
60.0	3	93.903	0.02	1109.669	-1.0	-1.0	21.2835	8.0	955.0	1.82	Certain	6.7	-8.38	3562.5	Yes		15.080407701019302				ISITrial	Gain
60.0	3	105.521	0.032	1121.287	-1.0	-1.0	21.2835	1.278	955.0	1.82	Certain	6.7	-8.38	3562.5	Yes		15.080407701019302			380.0	TrialHappiness	Gain
60.0	3	109.533	4.012	1125.299	-1.0	-1.0	21.2835	6.25	955.0	1.82	Certain	6.7	-8.38	3562.5	Yes		15.080407701019302				ISIRate	Gain
61.0	3	115.802	0.019	1131.568	4.39	2.19	21.8323	3.0	955.0	2.22	Outcome2	7.1	4.39	0.0	No	2.0	-2.70885239713099	0.832	116.634		GetAnswer	Gain
61.0	3	116.654	0.02	1132.42	4.39	2.19	21.8323	4.0	955.0	2.22	Outcome2	7.1	4.39	0.0	No		-2.70885239713099				ShowChoice	Gain
61.0	3	120.666	0.012	1136.432	4.39	2.19	21.8323	1.0	955.0	2.22	Outcome2	7.1	4.39	0.0	No		-2.70885239713099				ShowResult	Gain
61.0	3	121.686	0.02	1137.452	4.39	2.19	21.8323	4.586	955.0	2.22	Outcome2	7.1	4.39	0.0	No		-2.70885239713099				ISITrial	Gain
62.0	3	126.3	0.028	1142.066	11.3	-1.81	23.2448	3.0	955.0	2.48	Outcome2	-3.62	11.3	3748.75	Yes	2.0	14.924122310305801	1.223	127.523		GetAnswer	Loss
62.0	3	127.537	0.014	1143.303	11.3	-1.81	23.2448	4.0	955.0	2.48	Outcome2	-3.62	11.3	3748.75	Yes		14.924122310305801				ShowChoice	Loss
62.0	3	131.549	0.012	1147.315	11.3	-1.81	23.2448	1.0	955.0	2.48	Outcome2	-3.62	11.3	3748.75	Yes		14.924122310305801				ShowResult	Loss
62.0	3	132.568	0.019	1148.334	11.3	-1.81	23.2448	5.212	955.0	2.48	Outcome2	-3.62	11.3	3748.75	Yes		14.924122310305801				ISITrial	Loss
62.0	3	141.579	0.029	1157.345	11.3	-1.81	23.2448	3.905	955.0	2.48	Outcome2	-3.62	11.3	3748.75	Yes		14.924122310305801			720.0	TrialHappiness	Loss
62.0	3	145.591	4.012	1161.357	11.3	-1.81	23.2448	6.995	955.0	2.48	Outcome2	-3.62	11.3	3748.75	Yes		14.924122310305801				ISIRate	Loss
63.0	3	152.612	0.026	1168.378	9.5	-0.15	24.4323	3.0	955.0	2.8	Outcome2	-0.3	9.5	0.0	No	2.0	9.7995469988675	1.15	153.762		GetAnswer	Gain
63.0	3	153.782	0.02	1169.548	9.5	-0.15	24.4323	4.0	955.0	2.8	Outcome2	-0.3	9.5	0.0	No		9.7995469988675				ShowChoice	Gain
63.0	3	157.794	0.012	1173.56	9.5	-0.15	24.4323	1.0	955.0	2.8	Outcome2	-0.3	9.5	0.0	No		9.7995469988675				ShowResult	Gain
63.0	3	158.814	0.02	1174.58	9.5	-0.15	24.4323	5.595	955.0	2.8	Outcome2	-0.3	9.5	0.0	No		9.7995469988675				ISITrial	Gain
64.0	3	164.43	0.021	1180.196	0.0	0.0	24.4323	3.0	955.0	2.0	Certain	-5.17	4.9	0.0	No	4.0	10.065685164212901	1.974	166.404		GetAnswer	Gain
64.0	3	166.42	0.016	1182.186	0.0	0.0	24.4323	4.0	955.0	2.0	Certain	-5.17	4.9	0.0	No		10.065685164212901				ShowChoice	Gain
64.0	3	170.432	0.012	1186.198	0.0	0.0	24.4323	1.0	955.0	2.0	Certain	-5.17	4.9	0.0	No		10.065685164212901				ShowResult	Gain
64.0	3	171.451	0.019	1187.217	0.0	0.0	24.4323	5.47	955.0	2.0	Certain	-5.17	4.9	0.0	No		10.065685164212901				ISITrial	Gain
65.0	3	176.951	0.03	1192.717	13.5	1.58	26.1198	3.0	955.0	2.8	Outcome1	13.5	3.17	2996.75	Yes	2.0	10.3318233295583	1.019	177.97		GetAnswer	Loss
65.0	3	177.988	0.018	1193.754	13.5	1.58	26.1198	4.0	955.0	2.8	Outcome1	13.5	3.17	2996.75	Yes		10.3318233295583				ShowChoice	Loss
65.0	3	182.0	0.012	1197.766	13.5	1.58	26.1198	1.0	955.0	2.8	Outcome1	13.5	3.17	2996.75	Yes		10.3318233295583				ShowResult	Loss
65.0	3	183.019	0.019	1198.785	13.5	1.58	26.1198	3.344	955.0	2.8	Outcome1	13.5	3.17	2996.75	Yes		10.3318233295583				ISITrial	Loss
65.0	3	189.405	0.028	1205.171	13.5	1.58	26.1198	1.06	955.0	2.8	Outcome1	13.5	3.17	2996.75	Yes		10.3318233295583			744.0	TrialHappiness	Loss
65.0	3	193.417	4.012	1209.183	13.5	1.58	26.1198	3.987	955.0	2.8	Outcome1	13.5	3.17	2996.75	Yes		10.3318233295583				ISIRate	Loss
66.0	3	197.429	0.025	1213.195	2.0	2.0	26.3698	3.0	955.0	2.48	Certain	-2.89	7.3	0.0	No	4.0	10.190260475651199	1.816	199.245		GetAnswer	Gain
66.0	3	199.268	0.023	1215.034	2.0	2.0	26.3698	4.0	955.0	2.48	Certain	-2.89	7.3	0.0	No		10.190260475651199				ShowChoice	Gain
66.0	3	203.28	0.012	1219.046	2.0	2.0	26.3698	1.0	955.0	2.48	Certain	-2.89	7.3	0.0	No		10.190260475651199				ShowResult	Gain
66.0	3	204.3	0.02	1220.066	2.0	2.0	26.3698	3.959	955.0	2.48	Certain	-2.89	7.3	0.0	No		10.190260475651199				ISITrial	Gain
67.0	3	208.278	0.019	1224.044	-2.0	-2.0	26.1198	3.0	955.0	0.2	Certain	2.5	-7.93	2918.5	Yes	4.0	10.4292185730464	2.318	210.596		GetAnswer	Mixed
67.0	3	210.619	0.023	1226.385	-2.0	-2.0	26.1198	4.0	955.0	0.2	Certain	2.5	-7.93	2918.5	Yes		10.4292185730464				ShowChoice	Mixed
67.0	3	214.631	0.012	1230.397	-2.0	-2.0	26.1198	1.0	955.0	0.2	Certain	2.5	-7.93	2918.5	Yes		10.4292185730464				ShowResult	Mixed
67.0	3	215.65	0.019	1231.416	-2.0	-2.0	26.1198	4.199	955.0	0.2	Certain	2.5	-7.93	2918.5	Yes		10.4292185730464				ISITrial	Mixed
67.0	3	222.805	0.024	1238.571	-2.0	-2.0	26.1198	1.814	955.0	0.2	Certain	2.5	-7.93	2918.5	Yes		10.4292185730464			596.0	TrialHappiness	Mixed
67.0	3	226.817	4.012	1242.583	-2.0	-2.0	26.1198	3.674	955.0	0.2	Certain	2.5	-7.93	2918.5	Yes		10.4292185730464				ISIRate	Mixed
68.0	3	230.512	0.021	1246.278	13.3	0.06	27.7823	3.0	955.0	2.48	Outcome1	13.3	0.12	0.0	No	2.0	13.1823329558324	1.112	231.624		GetAnswer	Loss
68.0	3	231.648	0.024	1247.414	13.3	0.06	27.7823	4.0	955.0	2.48	Outcome1	13.3	0.12	0.0	No		13.1823329558324				ShowChoice	Loss
68.0	3	235.66	0.012	1251.426	13.3	0.06	27.7823	1.0	955.0	2.48	Outcome1	13.3	0.12	0.0	No		13.1823329558324				ShowResult	Loss
68.0	3	236.68	0.02	1252.446	13.3	0.06	27.7823	2.185	955.0	2.48	Outcome1	13.3	0.12	0.0	No		13.1823329558324				ISITrial	Loss
69.0	3	238.887	0.022	1254.653	5.42	2.71	28.4598	3.0	955.0	2.8	Outcome2	7.5	5.42	0.0	No	2.0	-2.08106832767082	0.735	239.622		GetAnswer	Gain
69.0	3	239.639	0.017	1255.405	5.42	2.71	28.4598	4.0	955.0	2.8	Outcome2	7.5	5.42	0.0	No		-2.08106832767082				ShowChoice	Gain
69.0	3	243.651	0.012	1259.417	5.42	2.71	28.4598	1.0	955.0	2.8	Outcome2	7.5	5.42	0.0	No		-2.08106832767082				ShowResult	Gain
69.0	3	244.671	0.02	1260.437	5.42	2.71	28.4598	2.0	955.0	2.8	Outcome2	7.5	5.42	0.0	No		-2.08106832767082				ISITrial	Gain
70.0	3	246.693	0.022	1262.459	0.0	0.0	28.4598	3.0	955.0	1.68	Certain	-7.5	6.5	3651.25	Yes	4.0	13.995469988675001	1.066	247.759		GetAnswer	Gain
70.0	3	247.78	0.021	1263.546	0.0	0.0	28.4598	4.0	955.0	1.68	Certain	-7.5	6.5	3651.25	Yes		13.995469988675001				ShowChoice	Gain
70.0	3	251.792	0.012	1267.558	0.0	0.0	28.4598	1.0	955.0	1.68	Certain	-7.5	6.5	3651.25	Yes		13.995469988675001				ShowResult	Gain
70.0	3	252.812	0.02	1268.578	0.0	0.0	28.4598	2.623	955.0	1.68	Certain	-7.5	6.5	3651.25	Yes		13.995469988675001				ISITrial	Gain
70.0	3	259.131	0.027	1274.897	0.0	0.0	28.4598	0.91	955.0	1.68	Certain	-7.5	6.5	3651.25	Yes		13.995469988675001			728.0	TrialHappiness	Gain
70.0	3	263.143	4.012	1278.909	0.0	0.0	28.4598	6.605	955.0	1.68	Certain	-7.5	6.5	3651.25	Yes		13.995469988675001				ISIRate	Gain
71.0	3	269.779	0.031	1285.545	-1.0	-1.0	28.3348	3.0	955.0	1.82	Certain	4.7	-7.46	0.0	No	4.0	12.1596828992072	1.568	271.347		GetAnswer	Gain
71.0	3	271.367	0.02	1287.133	-1.0	-1.0	28.3348	4.0	955.0	1.82	Certain	4.7	-7.46	0.0	No		12.1596828992072				ShowChoice	Gain
71.0	3	275.379	0.012	1291.145	-1.0	-1.0	28.3348	1.0	955.0	1.82	Certain	4.7	-7.46	0.0	No		12.1596828992072				ShowResult	Gain
71.0	3	276.399	0.02	1292.165	-1.0	-1.0	28.3348	5.499	955.0	1.82	Certain	4.7	-7.46	0.0	No		12.1596828992072				ISITrial	Gain
72.0	3	281.915	0.017	1297.681	10.27	5.14	29.6186	3.0	955.0	3.6	Outcome2	11.9	10.27	3080.5	Yes	2.0	-1.6345790864477199	1.075	282.99		GetAnswer	Loss
72.0	3	283.002	0.012	1298.768	10.27	5.14	29.6186	4.0	955.0	3.6	Outcome2	11.9	10.27	3080.5	Yes		-1.6345790864477199				ShowChoice	Loss
72.0	3	287.014	0.012	1302.78	10.27	5.14	29.6186	1.0	955.0	3.6	Outcome2	11.9	10.27	3080.5	Yes		-1.6345790864477199				ShowResult	Loss
72.0	3	288.034	0.02	1303.8	10.27	5.14	29.6186	5.672	955.0	3.6	Outcome2	11.9	10.27	3080.5	Yes		-1.6345790864477199				ISITrial	Loss
72.0	3	296.827	0.03	1312.593	10.27	5.14	29.6186	1.593	955.0	3.6	Outcome2	11.9	10.27	3080.5	Yes		-1.6345790864477199			952.0	TrialHappiness	Loss
72.0	3	300.839	4.012	1316.605	10.27	5.14	29.6186	4.322	955.0	3.6	Outcome2	11.9	10.27	3080.5	Yes		-1.6345790864477199				ISIRate	Loss
73.0	3	305.185	0.024	1320.951	-0.08	-0.08	29.6086	3.0	955.0	1.82	Certain	-0.17	8.7	0.0	No	4.0	8.86862967157418	1.34	306.525		GetAnswer	Gain
73.0	3	306.539	0.014	1322.305	-0.08	-0.08	29.6086	4.0	955.0	1.82	Certain	-0.17	8.7	0.0	No		8.86862967157418				ShowChoice	Gain
73.0	3	310.551	0.012	1326.317	-0.08	-0.08	29.6086	1.0	955.0	1.82	Certain	-0.17	8.7	0.0	No		8.86862967157418				ShowResult	Gain
73.0	3	311.571	0.02	1327.337	-0.08	-0.08	29.6086	4.616	955.0	1.82	Certain	-0.17	8.7	0.0	No		8.86862967157418				ISITrial	Gain
74.0	3	316.218	0.031	1331.984	-3.0	-3.0	29.2336	3.0	955.0	0.52	Certain	1.1	-7.77	3056.25	Yes	4.0	8.872027180067949	1.541	317.759		GetAnswer	Mixed
74.0	3	317.773	0.014	1333.539	-3.0	-3.0	29.2336	4.0	955.0	0.52	Certain	1.1	-7.77	3056.25	Yes		8.872027180067949				ShowChoice	Mixed
74.0	3	321.785	0.012	1337.551	-3.0	-3.0	29.2336	1.0	955.0	0.52	Certain	1.1	-7.77	3056.25	Yes		8.872027180067949				ShowResult	Mixed
74.0	3	322.805	0.02	1338.571	-3.0	-3.0	29.2336	3.909	955.0	0.52	Certain	1.1	-7.77	3056.25	Yes		8.872027180067949				ISITrial	Mixed
74.0	3	329.809	0.02	1345.575	-3.0	-3.0	29.2336	3.907	955.0	0.52	Certain	1.1	-7.77	3056.25	Yes		8.872027180067949			664.0	TrialHappiness	Mixed
74.0	3	333.821	4.012	1349.587	-3.0	-3.0	29.2336	4.225	955.0	0.52	Certain	1.1	-7.77	3056.25	Yes		8.872027180067949				ISIRate	Mixed
75.0	3	338.067	0.021	1353.833	2.0	2.0	29.4836	3.0	955.0	2.22	Certain	9.1	-4.67	0.0	No	4.0	13.767836919592302	2.05	340.117		GetAnswer	Gain
75.0	3	340.14	0.023	1355.906	2.0	2.0	29.4836	4.0	955.0	2.22	Certain	9.1	-4.67	0.0	No		13.767836919592302				ShowChoice	Gain
75.0	3	344.152	0.012	1359.918	2.0	2.0	29.4836	1.0	955.0	2.22	Certain	9.1	-4.67	0.0	No		13.767836919592302				ShowResult	Gain
75.0	3	345.171	0.019	1360.937	2.0	2.0	29.4836	4.979	955.0	2.22	Certain	9.1	-4.67	0.0	No		13.767836919592302				ISITrial	Gain
76.0	3	350.17	0.02	1365.936	5.76	2.88	30.2036	3.0	955.0	3.16	Outcome1	5.76	7.7	0.0	No	2.0	-1.9437523593809	1.235	351.405		GetAnswer	Gain
76.0	3	351.424	0.019	1367.19	5.76	2.88	30.2036	4.0	955.0	3.16	Outcome1	5.76	7.7	0.0	No		-1.9437523593809				ShowChoice	Gain
76.0	3	355.436	0.012	1371.202	5.76	2.88	30.2036	1.0	955.0	3.16	Outcome1	5.76	7.7	0.0	No		-1.9437523593809				ShowResult	Gain
76.0	3	356.455	0.019	1372.221	5.76	2.88	30.2036	3.931	955.0	3.16	Outcome1	5.76	7.7	0.0	No		-1.9437523593809				ISITrial	Gain
77.0	3	360.417	0.031	1376.183	10.7	-1.86	31.5411	3.0	955.0	1.82	Outcome2	-3.73	10.7	4000.0	Yes	2.0	14.4269535673839	2.363	362.78		GetAnswer	Loss
77.0	3	362.808	0.028	1378.574	10.7	-1.86	31.5411	4.0	955.0	1.82	Outcome2	-3.73	10.7	4000.0	Yes		14.4269535673839				ShowChoice	Loss
77.0	3	366.82	0.012	1382.586	10.7	-1.86	31.5411	1.0	955.0	1.82	Outcome2	-3.73	10.7	4000.0	Yes		14.4269535673839				ShowResult	Loss
77.0	3	367.839	0.019	1383.605	10.7	-1.86	31.5411	7.022	955.0	1.82	Outcome2	-3.73	10.7	4000.0	Yes		14.4269535673839				ISITrial	Loss
77.0	3	378.906	0.029	1394.672	10.7	-1.86	31.5411	3.977	955.0	1.82	Outcome2	-3.73	10.7	4000.0	Yes		14.4269535673839			844.0	TrialHappiness	Loss
77.0	3	382.918	4.012	1398.684	10.7	-1.86	31.5411	8.0	955.0	1.82	Outcome2	-3.73	10.7	4000.0	Yes		14.4269535673839				ISIRate	Loss
78.0	3	390.942	0.024	1406.708	-4.0	-4.0	31.0411	3.0	955.0	0.82	Certain	-10.2	1.5	0.0	No	4.0	11.698754246885601	2.909	393.851		GetAnswer	Mixed
78.0	3	393.867	0.016	1409.633	-4.0	-4.0	31.0411	4.0	955.0	0.82	Certain	-10.2	1.5	0.0	No		11.698754246885601				ShowChoice	Mixed
78.0	3	397.879	0.012	1413.645	-4.0	-4.0	31.0411	1.0	955.0	0.82	Certain	-10.2	1.5	0.0	No		11.698754246885601				ShowResult	Mixed
78.0	3	398.899	0.02	1414.665	-4.0	-4.0	31.0411	2.078	955.0	0.82	Certain	-10.2	1.5	0.0	No		11.698754246885601				ISITrial	Mixed
79.0	3	401.005	0.028	1416.771	12.1	0.14	32.5536	3.0	955.0	4.2	Outcome1	12.1	0.28	2729.5	Yes	2.0	11.8244620611552	0.835	401.84		GetAnswer	Loss
79.0	3	401.858	0.018	1417.624	12.1	0.14	32.5536	4.0	955.0	4.2	Outcome1	12.1	0.28	2729.5	Yes		11.8244620611552				ShowChoice	Loss
79.0	3	405.87	0.012	1421.636	12.1	0.14	32.5536	1.0	955.0	4.2	Outcome1	12.1	0.28	2729.5	Yes		11.8244620611552				ShowResult	Loss
79.0	3	406.89	0.02	1422.656	12.1	0.14	32.5536	3.829	955.0	4.2	Outcome1	12.1	0.28	2729.5	Yes		11.8244620611552				ISITrial	Loss
79.0	3	413.493	0.029	1429.259	12.1	0.14	32.5536	1.794	955.0	4.2	Outcome1	12.1	0.28	2729.5	Yes	2{-2}	11.8244620611552	1.794	415.287	768.0	TrialHappiness	Loss
79.0	3	417.505	4.012	1433.271	12.1	0.14	32.5536	2.918	955.0	4.2	Outcome1	12.1	0.28	2729.5	Yes		11.8244620611552				ISIRate	Loss
80.0	3	420.447	0.024	1436.213	8.7	4.35	33.6411	3.0	955.0	5.0	Outcome2	10.3	8.7	0.0	No	2.0	-1.59758399395998	0.893	421.34		GetAnswer	Gain
80.0	3	421.366	0.026	1437.132	8.7	4.35	33.6411	4.0	955.0	5.0	Outcome2	10.3	8.7	0.0	No		-1.59758399395998				ShowChoice	Gain
80.0	3	425.378	0.012	1441.144	8.7	4.35	33.6411	1.0	955.0	5.0	Outcome2	10.3	8.7	0.0	No		-1.59758399395998				ShowResult	Gain
80.0	3	426.398	0.02	1442.164	8.7	4.35	33.6411	3.336	955.0	5.0	Outcome2	10.3	8.7	0.0	No		-1.59758399395998				ISITrial	Gain
81.0	3	429.758	0.024	1445.524	0.0	0.0	33.6411	3.0	955.0	1.82	Certain	-6.75	6.7	3923.75	Yes	4.0	13.453001132502802	1.549	431.307		GetAnswer	Gain
81.0	3	431.329	0.022	1447.095	0.0	0.0	33.6411	4.0	955.0	1.82	Certain	-6.75	6.7	3923.75	Yes		13.453001132502802				ShowChoice	Gain
81.0	3	435.341	0.012	1451.107	0.0	0.0	33.6411	1.0	955.0	1.82	Certain	-6.75	6.7	3923.75	Yes		13.453001132502802				ShowResult	Gain
81.0	3	436.361	0.02	1452.127	0.0	0.0	33.6411	3.919	955.0	1.82	Certain	-6.75	6.7	3923.75	Yes		13.453001132502802				ISITrial	Gain
81.0	3	444.251	0.021	1460.017	0.0	0.0	33.6411	3.987	955.0	1.82	Certain	-6.75	6.7	3923.75	Yes		13.453001132502802			832.0	TrialHappiness	Gain
81.0	3	448.263	4.012	1464.029	0.0	0.0	33.6411	7.695	955.0	1.82	Certain	-6.75	6.7	3923.75	Yes		13.453001132502802				ISIRate	Gain
	3	455.987	0.029	1471.753				3.0													CurrentEarnings	
	3	459.012	0.025	1474.778				-0.001								{SPACE}		6.683	465.695		Goodbye	
