trial_number	block	onset	onset_delay	onset_unadjusted	amount_change	certain_amount	current_amount	duration	mood_target	multiplier	outcome	outcome1_amount	outcome2_amount	question_duration	rating	response	rpe	rt	rt_time	slider_response	trial_phase	trial_type
	0	-27.78	0.019	51.052				-0.001								{SPACE}		1.362	-26.418		Welcome	
	0	-26.39	0.028	52.442				5.0													LifeHappyPreview	
	0	-21.358	0.032	57.474				4.672												744.0	LifeHappiness	
	0	-14.07	0.028	64.762				4.0													BlockHappyPreview	
	0	-10.058	0.012	68.774				2.443												628.0	BlockStartHappiness	
	0	-4.458	0.024	74.374				-0.001								5.0					ScanWait	
	1	0.022	0.022	78.854				10.0													GetReady	
1.0	1	10.052	0.03	88.884	3.3	0.0	10.4125	3.0	955.0	0.66	Outcome2	-2.25	3.3	0.0	No	2.0	5.5549263873159695	1.696	11.748		GetAnswer	Mixed
1.0	1	11.774	0.026	90.606	3.3	0.0	10.4125	4.0	955.0	0.66	Outcome2	-2.25	3.3	0.0	No		5.5549263873159695				ShowChoice	Mixed
1.0	1	15.786	0.012	94.618	3.3	0.0	10.4125	1.0	955.0	0.66	Outcome2	-2.25	3.3	0.0	No		5.5549263873159695				ShowResult	Mixed
1.0	1	16.806	0.02	95.638	3.3	0.0	10.4125	2.431	955.0	0.66	Outcome2	-2.25	3.3	0.0	No		5.5549263873159695				ISITrial	Mixed
2.0	1	19.263	0.026	98.095	9.14	4.57	11.555	3.0	955.0	1.68	Outcome2	10.5	9.14	0.0	No	2.0	-1.35787089467724	1.783	21.046		GetAnswer	Loss
2.0	1	21.068	0.022	99.9	9.14	4.57	11.555	4.0	955.0	1.68	Outcome2	10.5	9.14	0.0	No		-1.35787089467724				ShowChoice	Loss
2.0	1	25.08	0.012	103.912	9.14	4.57	11.555	1.0	955.0	1.68	Outcome2	10.5	9.14	0.0	No		-1.35787089467724				ShowResult	Loss
2.0	1	26.1	0.02	104.932	9.14	4.57	11.555	4.568	955.0	1.68	Outcome2	10.5	9.14	0.0	No		-1.35787089467724				ISITrial	Loss
3.0	1	30.697	0.029	109.529	-1.89	-1.0	11.3188	3.0	955.0	0.82	Outcome1	-1.89	-0.5	2868.0	Yes		-1.38873159682899				GetAnswer	Mixed
3.0	1	33.723	0.026	112.555	-1.89	-1.0	11.3188	4.0	955.0	0.82	Outcome1	-1.89	-0.5	2868.0	Yes		-1.38873159682899				ShowChoice	Mixed
3.0	1	37.752	0.029	116.584	-1.89	-1.0	11.3188	1.0	955.0	0.82	Outcome1	-1.89	-0.5	2868.0	Yes		-1.38873159682899				ShowResult	Mixed
3.0	1	38.771	0.019	117.603	-1.89	-1.0	11.3188	3.243	955.0	0.82	Outcome1	-1.89	-0.5	2868.0	Yes		-1.38873159682899				ISITrial	Mixed
3.0	1	44.923	0.024	123.755	-1.89	-1.0	11.3188	1.688	955.0	0.82	Outcome1	-1.89	-0.5	2868.0	Yes		-1.38873159682899			596.0	TrialHappiness	Mixed
3.0	1	48.952	4.029	127.784	-1.89	-1.0	11.3188	3.472	955.0	0.82	Outcome1	-1.89	-0.5	2868.0	Yes		-1.38873159682899				ISIRate	Mixed
4.0	1	52.446	0.022	131.278	5.3	1.0	11.9813	3.0	955.0	2.48	Outcome1	5.3	-1.91	0.0	No	2.0	7.209513023782559	1.61	54.056		GetAnswer	Gain
4.0	1	54.084	0.028	132.916	5.3	1.0	11.9813	4.0	955.0	2.48	Outcome1	5.3	-1.91	0.0	No		7.209513023782559				ShowChoice	Gain
4.0	1	58.113	0.029	136.945	5.3	1.0	11.9813	1.0	955.0	2.48	Outcome1	5.3	-1.91	0.0	No		7.209513023782559				ShowResult	Gain
4.0	1	59.132	0.019	137.964	5.3	1.0	11.9813	2.011	955.0	2.48	Outcome1	5.3	-1.91	0.0	No		7.209513023782559				ISITrial	Gain
5.0	1	61.172	0.029	140.004	6.9	-0.36	12.8438	3.0	955.0	2.0	Outcome2	-0.72	6.9	2582.5	Yes	2.0	7.616081540203849	2.061	63.233		GetAnswer	Gain
5.0	1	63.261	0.028	142.093	6.9	-0.36	12.8438	4.0	955.0	2.0	Outcome2	-0.72	6.9	2582.5	Yes		7.616081540203849				ShowChoice	Gain
5.0	1	67.273	0.012	146.105	6.9	-0.36	12.8438	1.0	955.0	2.0	Outcome2	-0.72	6.9	2582.5	Yes		7.616081540203849				ShowResult	Gain
5.0	1	68.293	0.02	147.125	6.9	-0.36	12.8438	5.129	955.0	2.0	Outcome2	-0.72	6.9	2582.5	Yes		7.616081540203849				ISITrial	Gain
5.0	1	76.05	0.026	154.882	6.9	-0.36	12.8438	3.283	955.0	2.0	Outcome2	-0.72	6.9	2582.5	Yes	2{-2}4{-4}	7.616081540203849	3.283	79.333	640.0	TrialHappiness	Gain
5.0	1	80.078	4.028	158.91	6.9	-0.36	12.8438	2.33	955.0	2.0	Outcome2	-0.72	6.9	2582.5	Yes		7.616081540203849				ISIRate	Gain
6.0	1	82.435	0.027	161.267	10.1	1.41	14.1063	3.0	955.0	4.2	Outcome2	2.82	10.1	0.0	No	2.0	7.2751981879954695	2.102	84.537		GetAnswer	Gain
6.0	1	84.558	0.021	163.39	10.1	1.41	14.1063	4.0	955.0	4.2	Outcome2	2.82	10.1	0.0	No		7.2751981879954695				ShowChoice	Gain
6.0	1	88.587	0.029	167.419	10.1	1.41	14.1063	1.0	955.0	4.2	Outcome2	2.82	10.1	0.0	No		7.2751981879954695				ShowResult	Gain
6.0	1	89.607	0.02	168.439	10.1	1.41	14.1063	6.232	955.0	4.2	Outcome2	2.82	10.1	0.0	No		7.2751981879954695				ISITrial	Gain
7.0	1	95.859	0.02	174.691	-1.3	-5.0	13.9438	3.0	955.0	0.3	Outcome2	-8.93	-1.3	0.0	No	2.0	7.63193657984145	1.951	97.81		GetAnswer	Mixed
7.0	1	97.831	0.021	176.663	-1.3	-5.0	13.9438	4.0	955.0	0.3	Outcome2	-8.93	-1.3	0.0	No		7.63193657984145				ShowChoice	Mixed
7.0	1	101.843	0.012	180.675	-1.3	-5.0	13.9438	1.0	955.0	0.3	Outcome2	-8.93	-1.3	0.0	No		7.63193657984145				ShowResult	Mixed
7.0	1	102.863	0.02	181.695	-1.3	-5.0	13.9438	2.305	955.0	0.3	Outcome2	-8.93	-1.3	0.0	No		7.63193657984145				ISITrial	Mixed
8.0	1	105.187	0.019	184.019	1.3	-2.0	14.1063	3.0	955.0	0.66	Outcome1	1.3	-6.69	3112.5	Yes	2.0	7.988674971687431	1.962	107.149		GetAnswer	Mixed
8.0	1	107.176	0.027	186.008	1.3	-2.0	14.1063	4.0	955.0	0.66	Outcome1	1.3	-6.69	3112.5	Yes		7.988674971687431				ShowChoice	Mixed
8.0	1	111.205	0.029	190.037	1.3	-2.0	14.1063	1.0	955.0	0.66	Outcome1	1.3	-6.69	3112.5	Yes		7.988674971687431				ShowResult	Mixed
8.0	1	112.224	0.019	191.056	1.3	-2.0	14.1063	3.506	955.0	0.66	Outcome1	1.3	-6.69	3112.5	Yes		7.988674971687431				ISITrial	Mixed
8.0	1	118.894	0.03	197.726	1.3	-2.0	14.1063	3.735	955.0	0.66	Outcome1	1.3	-6.69	3112.5	Yes	2{-2}2{-2}4{-4}4{-4}4{-4}	7.988674971687431	3.735	122.629	772.0	TrialHappiness	Mixed
8.0	1	122.923	4.029	201.755	1.3	-2.0	14.1063	4.45	955.0	0.66	Outcome1	1.3	-6.69	3112.5	Yes		7.988674971687431				ISIRate	Mixed
9.0	1	127.403	0.03	206.235	13.9	3.9	15.8438	3.0	955.0	3.6	Outcome1	13.9	7.8	0.0	No	2.0	6.1030577576444	1.521	128.924		GetAnswer	Loss
9.0	1	128.941	0.017	207.773	13.9	3.9	15.8438	4.0	955.0	3.6	Outcome1	13.9	7.8	0.0	No		6.1030577576444				ShowChoice	Loss
9.0	1	132.97	0.029	211.802	13.9	3.9	15.8438	1.0	955.0	3.6	Outcome1	13.9	7.8	0.0	No		6.1030577576444				ShowResult	Loss
9.0	1	133.989	0.019	212.821	13.9	3.9	15.8438	2.0	955.0	3.6	Outcome1	13.9	7.8	0.0	No		6.1030577576444				ISITrial	Loss
10.0	1	136.012	0.023	214.844	2.7	0.0	16.1813	3.0	955.0	0.3	Outcome1	2.7	-3.61	4000.0	Yes	2.0	6.310305775764441	1.413	137.425		GetAnswer	Mixed
10.0	1	137.45	0.025	216.282	2.7	0.0	16.1813	4.0	955.0	0.3	Outcome1	2.7	-3.61	4000.0	Yes		6.310305775764441				ShowChoice	Mixed
10.0	1	141.479	0.029	220.311	2.7	0.0	16.1813	1.0	955.0	0.3	Outcome1	2.7	-3.61	4000.0	Yes		6.310305775764441				ShowResult	Mixed
10.0	1	142.498	0.019	221.33	2.7	0.0	16.1813	2.0	955.0	0.3	Outcome1	2.7	-3.61	4000.0	Yes		6.310305775764441				ISITrial	Mixed
10.0	1	148.55	0.029	227.382	2.7	0.0	16.1813	2.732	955.0	0.3	Outcome1	2.7	-3.61	4000.0	Yes		6.310305775764441			748.0	TrialHappiness	Mixed
10.0	1	152.578	4.028	231.41	2.7	0.0	16.1813	8.0	955.0	0.3	Outcome1	2.7	-3.61	4000.0	Yes		6.310305775764441				ISIRate	Mixed
11.0	1	160.602	0.024	239.434	12.5	2.78	17.7438	3.0	955.0	1.68	Outcome2	5.57	12.5	0.0	No	2.0	6.92525481313703	1.343	161.945		GetAnswer	Loss
11.0	1	161.973	0.028	240.805	12.5	2.78	17.7438	4.0	955.0	1.68	Outcome2	5.57	12.5	0.0	No		6.92525481313703				ShowChoice	Loss
11.0	1	165.985	0.012	244.817	12.5	2.78	17.7438	1.0	955.0	1.68	Outcome2	5.57	12.5	0.0	No		6.92525481313703				ShowResult	Loss
11.0	1	167.005	0.02	245.837	12.5	2.78	17.7438	3.324	955.0	1.68	Outcome2	5.57	12.5	0.0	No		6.92525481313703				ISITrial	Loss
12.0	1	170.348	0.019	249.18	3.76	1.88	18.2138	3.0	955.0	2.0	Outcome2	4.9	3.76	2618.75	Yes	2.0	-1.14363910909777	1.554	171.902		GetAnswer	Gain
12.0	1	171.92	0.018	250.752	3.76	1.88	18.2138	4.0	955.0	2.0	Outcome2	4.9	3.76	2618.75	Yes		-1.14363910909777				ShowChoice	Gain
12.0	1	175.948	0.028	254.78	3.76	1.88	18.2138	1.0	955.0	2.0	Outcome2	4.9	3.76	2618.75	Yes		-1.14363910909777				ShowResult	Gain
12.0	1	176.968	0.02	255.8	3.76	1.88	18.2138	6.642	955.0	2.0	Outcome2	4.9	3.76	2618.75	Yes		-1.14363910909777				ISITrial	Gain
12.0	1	186.279	0.022	265.111	3.76	1.88	18.2138	3.284	955.0	2.0	Outcome2	4.9	3.76	2618.75	Yes		-1.14363910909777			760.0	TrialHappiness	Gain
12.0	1	190.308	4.029	269.14	3.76	1.88	18.2138	2.475	955.0	2.0	Outcome2	4.9	3.76	2618.75	Yes		-1.14363910909777				ISIRate	Gain
13.0	1	192.815	0.032	271.647	13.1	2.96	19.8513	3.0	955.0	2.22	Outcome1	13.1	5.91	0.0	No	2.0	7.19026047565119	1.177	193.992		GetAnswer	Loss
13.0	1	194.019	0.027	272.851	13.1	2.96	19.8513	4.0	955.0	2.22	Outcome1	13.1	5.91	0.0	No		7.19026047565119				ShowChoice	Loss
13.0	1	198.031	0.012	276.863	13.1	2.96	19.8513	1.0	955.0	2.22	Outcome1	13.1	5.91	0.0	No		7.19026047565119				ShowResult	Loss
13.0	1	199.051	0.02	277.883	13.1	2.96	19.8513	3.48	955.0	2.22	Outcome1	13.1	5.91	0.0	No		7.19026047565119				ISITrial	Loss
14.0	1	202.561	0.03	281.393	2.0	2.0	20.1013	3.0	955.0	3.6	Certain	-1.51	5.9	0.0	No	4.0	7.4110985277463195	1.597	204.158		GetAnswer	Gain
14.0	1	204.183	0.025	283.015	2.0	2.0	20.1013	4.0	955.0	3.6	Certain	-1.51	5.9	0.0	No		7.4110985277463195				ShowChoice	Gain
14.0	1	208.211	0.028	287.043	2.0	2.0	20.1013	1.0	955.0	3.6	Certain	-1.51	5.9	0.0	No		7.4110985277463195				ShowResult	Gain
14.0	1	209.231	0.02	288.063	2.0	2.0	20.1013	5.019	955.0	3.6	Certain	-1.51	5.9	0.0	No		7.4110985277463195				ISITrial	Gain
15.0	1	214.28	0.03	293.112	9.7	1.03	21.3138	3.0	955.0	3.16	Outcome2	2.07	9.7	3348.5	Yes	2.0	7.63193657984145	1.363	215.643		GetAnswer	Gain
15.0	1	215.667	0.024	294.499	9.7	1.03	21.3138	4.0	955.0	3.16	Outcome2	2.07	9.7	3348.5	Yes		7.63193657984145				ShowChoice	Gain
15.0	1	219.679	0.012	298.511	9.7	1.03	21.3138	1.0	955.0	3.16	Outcome2	2.07	9.7	3348.5	Yes		7.63193657984145				ShowResult	Gain
15.0	1	220.699	0.02	299.531	9.7	1.03	21.3138	7.614	955.0	3.16	Outcome2	2.07	9.7	3348.5	Yes		7.63193657984145				ISITrial	Gain
15.0	1	231.715	0.029	310.547	9.7	1.03	21.3138	2.448	955.0	3.16	Outcome2	2.07	9.7	3348.5	Yes		7.63193657984145			792.0	TrialHappiness	Gain
15.0	1	235.727	4.012	314.559	9.7	1.03	21.3138	5.394	955.0	3.16	Outcome2	2.07	9.7	3348.5	Yes		7.63193657984145				ISIRate	Gain
16.0	1	241.143	0.022	319.975	-4.0	-4.0	20.8138	3.0	955.0	1.0	Certain	-0.3	-7.61	0.0	No	4.0	7.3091732729331795	2.005	243.148		GetAnswer	Mixed
16.0	1	243.166	0.018	321.998	-4.0	-4.0	20.8138	4.0	955.0	1.0	Certain	-0.3	-7.61	0.0	No		7.3091732729331795				ShowChoice	Mixed
16.0	1	247.178	0.012	326.01	-4.0	-4.0	20.8138	1.0	955.0	1.0	Certain	-0.3	-7.61	0.0	No		7.3091732729331795				ShowResult	Mixed
16.0	1	248.198	0.02	327.03	-4.0	-4.0	20.8138	3.008	955.0	1.0	Certain	-0.3	-7.61	0.0	No		7.3091732729331795				ISITrial	Mixed
17.0	1	251.223	0.017	330.055	2.3	-1.0	21.1013	3.0	955.0	2.0	Outcome2	-5.19	2.3	3041.5	Yes	2.0	7.49377123442809	1.926	253.149		GetAnswer	Mixed
17.0	1	253.162	0.012	331.994	2.3	-1.0	21.1013	4.0	955.0	2.0	Outcome2	-5.19	2.3	3041.5	Yes		7.49377123442809				ShowChoice	Mixed
17.0	1	257.174	0.012	336.006	2.3	-1.0	21.1013	1.0	955.0	2.0	Outcome2	-5.19	2.3	3041.5	Yes		7.49377123442809				ShowResult	Mixed
17.0	1	258.194	0.02	337.026	2.3	-1.0	21.1013	3.566	955.0	2.0	Outcome2	-5.19	2.3	3041.5	Yes		7.49377123442809				ISITrial	Mixed
17.0	1	264.831	0.017	343.663	2.3	-1.0	21.1013	2.761	955.0	2.0	Outcome2	-5.19	2.3	3041.5	Yes		7.49377123442809			744.0	TrialHappiness	Mixed
17.0	1	268.843	4.012	347.675	2.3	-1.0	21.1013	4.166	955.0	2.0	Outcome2	-5.19	2.3	3041.5	Yes		7.49377123442809				ISIRate	Mixed
18.0	1	273.039	0.03	351.871	12.43	6.22	22.6551	3.0	955.0	3.16	Outcome1	12.43	13.7	0.0	No	2.0	-1.26538316345791	1.367	274.406		GetAnswer	Loss
18.0	1	274.426	0.02	353.258	12.43	6.22	22.6551	4.0	955.0	3.16	Outcome1	12.43	13.7	0.0	No		-1.26538316345791				ShowChoice	Loss
18.0	1	278.438	0.012	357.27	12.43	6.22	22.6551	1.0	955.0	3.16	Outcome1	12.43	13.7	0.0	No		-1.26538316345791				ShowResult	Loss
18.0	1	279.458	0.02	358.29	12.43	6.22	22.6551	6.787	955.0	3.16	Outcome1	12.43	13.7	0.0	No		-1.26538316345791				ISITrial	Loss
19.0	1	286.261	0.016	365.093	6.41	3.2	23.4563	3.0	955.0	3.16	Outcome2	7.7	6.41	0.0	No	2.0	-1.2852963382408502	1.125	287.386		GetAnswer	Gain
19.0	1	287.398	0.012	366.23	6.41	3.2	23.4563	4.0	955.0	3.16	Outcome2	7.7	6.41	0.0	No		-1.2852963382408502				ShowChoice	Gain
19.0	1	291.41	0.012	370.242	6.41	3.2	23.4563	1.0	955.0	3.16	Outcome2	7.7	6.41	0.0	No		-1.2852963382408502				ShowResult	Gain
19.0	1	292.43	0.02	371.262	6.41	3.2	23.4563	2.0	955.0	3.16	Outcome2	7.7	6.41	0.0	No		-1.2852963382408502				ISITrial	Gain
20.0	1	294.453	0.023	373.285	9.1	0.06	24.5938	3.0	955.0	2.22	Outcome2	0.13	9.1	2921.25	Yes	2.0	8.97168742921857	1.602	296.055		GetAnswer	Gain
20.0	1	296.074	0.018	374.906	9.1	0.06	24.5938	4.0	955.0	2.22	Outcome2	0.13	9.1	2921.25	Yes		8.97168742921857				ShowChoice	Gain
20.0	1	300.086	0.012	378.918	9.1	0.06	24.5938	1.0	955.0	2.22	Outcome2	0.13	9.1	2921.25	Yes		8.97168742921857				ShowResult	Gain
20.0	1	301.106	0.02	379.938	9.1	0.06	24.5938	8.0	955.0	2.22	Outcome2	0.13	9.1	2921.25	Yes		8.97168742921857				ISITrial	Gain
20.0	1	312.072	0.021	390.904	9.1	0.06	24.5938	3.984	955.0	2.22	Outcome2	0.13	9.1	2921.25	Yes		8.97168742921857			776.0	TrialHappiness	Gain
20.0	1	316.084	4.012	394.916	9.1	0.06	24.5938	3.685	955.0	2.22	Outcome2	0.13	9.1	2921.25	Yes		8.97168742921857				ISIRate	Gain
21.0	1	319.795	0.026	398.627	0.0	0.0	24.5938	3.0	955.0	1.5	Certain	-4.57	4.1	0.0	No	4.0	8.66704416761042	2.001	321.796		GetAnswer	Mixed
21.0	1	321.818	0.022	400.65	0.0	0.0	24.5938	4.0	955.0	1.5	Certain	-4.57	4.1	0.0	No		8.66704416761042				ShowChoice	Mixed
21.0	1	325.83	0.012	404.662	0.0	0.0	24.5938	1.0	955.0	1.5	Certain	-4.57	4.1	0.0	No		8.66704416761042				ShowResult	Mixed
21.0	1	326.849	0.019	405.681	0.0	0.0	24.5938	3.555	955.0	1.5	Certain	-4.57	4.1	0.0	No		8.66704416761042				ISITrial	Mixed
22.0	1	330.427	0.023	409.259	2.0	2.0	24.8438	3.0	955.0	1.82	Certain	-2.17	6.7	3219.5	Yes	4.0	8.86976217440544	1.65	332.077		GetAnswer	Gain
22.0	1	332.098	0.021	410.93	2.0	2.0	24.8438	4.0	955.0	1.82	Certain	-2.17	6.7	3219.5	Yes		8.86976217440544				ShowChoice	Gain
22.0	1	336.11	0.012	414.942	2.0	2.0	24.8438	1.0	955.0	1.82	Certain	-2.17	6.7	3219.5	Yes		8.86976217440544				ShowResult	Gain
22.0	1	337.13	0.02	415.962	2.0	2.0	24.8438	6.793	955.0	1.82	Certain	-2.17	6.7	3219.5	Yes		8.86976217440544				ISITrial	Gain
22.0	1	347.177	0.023	426.009	2.0	2.0	24.8438	1.01	955.0	1.82	Certain	-2.17	6.7	3219.5	Yes	2{-2}	8.86976217440544	1.01	348.187	776.0	TrialHappiness	Gain
22.0	1	351.189	4.012	430.021	2.0	2.0	24.8438	4.878	955.0	1.82	Certain	-2.17	6.7	3219.5	Yes		8.86976217440544				ISIRate	Gain
23.0	1	356.087	0.02	434.919	9.9	0.42	26.0813	3.0	955.0	3.6	Outcome2	0.83	9.9	0.0	No	2.0	9.072480181200449	1.378	357.465		GetAnswer	Gain
23.0	1	357.491	0.026	436.323	9.9	0.42	26.0813	4.0	955.0	3.6	Outcome2	0.83	9.9	0.0	No		9.072480181200449				ShowChoice	Gain
23.0	1	361.503	0.012	440.335	9.9	0.42	26.0813	1.0	955.0	3.6	Outcome2	0.83	9.9	0.0	No		9.072480181200449				ShowResult	Gain
23.0	1	362.523	0.02	441.355	9.9	0.42	26.0813	8.0	955.0	3.6	Outcome2	0.83	9.9	0.0	No		9.072480181200449				ISITrial	Gain
24.0	1	370.547	0.024	449.379	1.9	-2.0	26.3188	3.0	955.0	1.2	Outcome2	-7.38	1.9	3255.0	Yes	2.0	9.275198187995471	1.768	372.315		GetAnswer	Mixed
24.0	1	372.335	0.02	451.167	1.9	-2.0	26.3188	4.0	955.0	1.2	Outcome2	-7.38	1.9	3255.0	Yes		9.275198187995471				ShowChoice	Mixed
24.0	1	376.347	0.012	455.179	1.9	-2.0	26.3188	1.0	955.0	1.2	Outcome2	-7.38	1.9	3255.0	Yes		9.275198187995471				ShowResult	Mixed
24.0	1	377.367	0.02	456.199	1.9	-2.0	26.3188	2.0	955.0	1.2	Outcome2	-7.38	1.9	3255.0	Yes		9.275198187995471				ISITrial	Mixed
24.0	1	382.666	0.021	461.498	1.9	-2.0	26.3188	2.542	955.0	1.2	Outcome2	-7.38	1.9	3255.0	Yes		9.275198187995471			720.0	TrialHappiness	Mixed
24.0	1	386.678	4.012	465.51	1.9	-2.0	26.3188	5.02	955.0	1.2	Outcome2	-7.38	1.9	3255.0	Yes		9.275198187995471				ISIRate	Mixed
25.0	1	391.727	0.029	470.559	5.61	2.8	27.02	3.0	955.0	2.22	Outcome2	7.1	5.61	0.0	No	2.0	-1.4900906002265	1.712	393.439		GetAnswer	Gain
25.0	1	393.465	0.026	472.297	5.61	2.8	27.02	4.0	955.0	2.22	Outcome2	7.1	5.61	0.0	No		-1.4900906002265				ShowChoice	Gain
25.0	1	397.477	0.012	476.309	5.61	2.8	27.02	1.0	955.0	2.22	Outcome2	7.1	5.61	0.0	No		-1.4900906002265				ShowResult	Gain
25.0	1	398.497	0.02	477.329	5.61	2.8	27.02	3.749	955.0	2.22	Outcome2	7.1	5.61	0.0	No		-1.4900906002265				ISITrial	Gain
26.0	1	402.275	0.029	481.107	1.7	-3.0	27.2325	3.0	955.0	1.0	Outcome1	1.7	-9.0	0.0	No	2.0	10.695356738391801	1.299	403.574		GetAnswer	Mixed
26.0	1	403.596	0.022	482.428	1.7	-3.0	27.2325	4.0	955.0	1.0	Outcome1	1.7	-9.0	0.0	No		10.695356738391801				ShowChoice	Mixed
26.0	1	407.608	0.012	486.44	1.7	-3.0	27.2325	1.0	955.0	1.0	Outcome1	1.7	-9.0	0.0	No		10.695356738391801				ShowResult	Mixed
26.0	1	408.627	0.019	487.459	1.7	-3.0	27.2325	7.834	955.0	1.0	Outcome1	1.7	-9.0	0.0	No		10.695356738391801				ISITrial	Mixed
27.0	1	416.484	0.023	495.316	11.9	0.47	28.72	3.0	955.0	3.6	Outcome1	11.9	0.94	2549.75	Yes	2.0	10.961494903737302	1.468	417.952		GetAnswer	Loss
27.0	1	417.972	0.02	496.804	11.9	0.47	28.72	4.0	955.0	3.6	Outcome1	11.9	0.94	2549.75	Yes		10.961494903737302				ShowChoice	Loss
27.0	1	421.984	0.012	500.816	11.9	0.47	28.72	1.0	955.0	3.6	Outcome1	11.9	0.94	2549.75	Yes		10.961494903737302				ShowResult	Loss
27.0	1	423.004	0.02	501.836	11.9	0.47	28.72	4.225	955.0	3.6	Outcome1	11.9	0.94	2549.75	Yes		10.961494903737302				ISITrial	Loss
27.0	1	429.824	0.024	508.656	11.9	0.47	28.72	3.798	955.0	3.6	Outcome1	11.9	0.94	2549.75	Yes		10.961494903737302			724.0	TrialHappiness	Loss
27.0	1	433.836	4.012	512.668	11.9	0.47	28.72	2.199	955.0	3.6	Outcome1	11.9	0.94	2549.75	Yes		10.961494903737302				ISIRate	Loss
	1	436.059	0.024	514.891				-0.001								{SPACE}		65.239	501.298		Rest	
	1	501.321	0.023	580.153				4.0													BlockHappyPreview	
	1	505.333	0.012	584.165				2.832												664.0	BlockStartHappiness	
	1	511.401	0.023	590.233				-0.001								5.0		4.106	515.507		ScanWait	
	2	0.023	0.023	594.362				10.0													GetReady	
28.0	2	10.036	0.013	604.375	-6.6	-1.0	27.895	3.0	70.0	0.82	Outcome1	-6.6	3.5	0.0	No	2.0	-10.1020408163265	1.495	11.531		GetAnswer	Mixed
28.0	2	11.558	0.027	605.897	-6.6	-1.0	27.895	4.0	70.0	0.82	Outcome1	-6.6	3.5	0.0	No		-10.1020408163265				ShowChoice	Mixed
28.0	2	15.57	0.012	609.909	-6.6	-1.0	27.895	1.0	70.0	0.82	Outcome1	-6.6	3.5	0.0	No		-10.1020408163265				ShowResult	Mixed
28.0	2	16.589	0.019	610.928	-6.6	-1.0	27.895	3.575	70.0	0.82	Outcome1	-6.6	3.5	0.0	No		-10.1020408163265				ISITrial	Mixed
29.0	2	20.183	0.019	614.522	-5.0	-5.0	27.27	3.0	70.0	0.2	Certain	0.5	-10.28	3529.0	Yes	4.0	-10.7755102040816	1.703	21.886		GetAnswer	Mixed
29.0	2	21.905	0.019	616.244	-5.0	-5.0	27.27	4.0	70.0	0.2	Certain	0.5	-10.28	3529.0	Yes		-10.7755102040816				ShowChoice	Mixed
29.0	2	25.917	0.012	620.256	-5.0	-5.0	27.27	1.0	70.0	0.2	Certain	0.5	-10.28	3529.0	Yes		-10.7755102040816				ShowResult	Mixed
29.0	2	26.937	0.02	621.276	-5.0	-5.0	27.27	3.955	70.0	0.2	Certain	0.5	-10.28	3529.0	Yes		-10.7755102040816				ISITrial	Mixed
29.0	2	34.46	0.015	628.799	-5.0	-5.0	27.27	1.461	70.0	0.2	Certain	0.5	-10.28	3529.0	Yes		-10.7755102040816			548.0	TrialHappiness	Mixed
29.0	2	38.472	4.012	632.811	-5.0	-5.0	27.27	6.116	70.0	0.2	Certain	0.5	-10.28	3529.0	Yes		-10.7755102040816				ISIRate	Mixed
30.0	2	44.607	0.019	638.946	0.02	-1.0	27.2725	3.0	70.0	1.5	Outcome2	-2.03	0.02	0.0	No	2.0	2.0542328042328	2.208	46.815		GetAnswer	Mixed
30.0	2	46.83	0.015	641.169	0.02	-1.0	27.2725	4.0	70.0	1.5	Outcome2	-2.03	0.02	0.0	No		2.0542328042328				ShowChoice	Mixed
30.0	2	50.842	0.012	645.181	0.02	-1.0	27.2725	1.0	70.0	1.5	Outcome2	-2.03	0.02	0.0	No		2.0542328042328				ShowResult	Mixed
30.0	2	51.862	0.02	646.201	0.02	-1.0	27.2725	4.453	70.0	1.5	Outcome2	-2.03	0.02	0.0	No		2.0542328042328				ISITrial	Mixed
31.0	2	56.342	0.027	650.681	2.68	1.34	27.6075	3.0	70.0	1.82	Outcome2	12.7	2.68	2503.25	Yes	2.0	-10.0181405895692	1.097	57.439		GetAnswer	Loss
31.0	2	57.462	0.023	651.801	2.68	1.34	27.6075	4.0	70.0	1.82	Outcome2	12.7	2.68	2503.25	Yes		-10.0181405895692				ShowChoice	Loss
31.0	2	61.474	0.012	655.813	2.68	1.34	27.6075	1.0	70.0	1.82	Outcome2	12.7	2.68	2503.25	Yes		-10.0181405895692				ShowResult	Loss
31.0	2	62.493	0.019	656.832	2.68	1.34	27.6075	4.786	70.0	1.82	Outcome2	12.7	2.68	2503.25	Yes		-10.0181405895692				ISITrial	Loss
31.0	2	69.815	0.021	664.154	2.68	1.34	27.6075	1.328	70.0	1.82	Outcome2	12.7	2.68	2503.25	Yes		-10.0181405895692			616.0	TrialHappiness	Loss
31.0	2	73.827	4.012	668.166	2.68	1.34	27.6075	2.013	70.0	1.82	Outcome2	12.7	2.68	2503.25	Yes		-10.0181405895692				ISIRate	Loss
32.0	2	75.867	0.027	670.206	-3.02	-1.51	27.23	3.0	70.0	1.82	Outcome1	-3.02	8.7	0.0	No	2.0	-11.7165532879819	1.549	77.416		GetAnswer	Gain
32.0	2	77.438	0.022	671.777	-3.02	-1.51	27.23	4.0	70.0	1.82	Outcome1	-3.02	8.7	0.0	No		-11.7165532879819				ShowChoice	Gain
32.0	2	81.45	0.012	675.789	-3.02	-1.51	27.23	1.0	70.0	1.82	Outcome1	-3.02	8.7	0.0	No		-11.7165532879819				ShowResult	Gain
32.0	2	82.47	0.02	676.809	-3.02	-1.51	27.23	2.0	70.0	1.82	Outcome1	-3.02	8.7	0.0	No		-11.7165532879819				ISITrial	Gain
33.0	2	84.492	0.022	678.831	-2.84	-1.42	26.875	3.0	70.0	2.8	Outcome1	-2.84	9.5	0.0	No	2.0	-12.3356009070295	1.906	86.398		GetAnswer	Gain
33.0	2	86.415	0.017	680.754	-2.84	-1.42	26.875	4.0	70.0	2.8	Outcome1	-2.84	9.5	0.0	No		-12.3356009070295				ShowChoice	Gain
33.0	2	90.427	0.012	684.766	-2.84	-1.42	26.875	1.0	70.0	2.8	Outcome1	-2.84	9.5	0.0	No		-12.3356009070295				ShowResult	Gain
33.0	2	91.447	0.02	685.786	-2.84	-1.42	26.875	5.099	70.0	2.8	Outcome1	-2.84	9.5	0.0	No		-12.3356009070295				ISITrial	Gain
34.0	2	96.562	0.016	690.901	0.0	0.0	26.875	3.0	70.0	2.0	Certain	1.08	-1.44	3231.5	Yes	4.0	2.5239984882842	2.175	98.737		GetAnswer	Mixed
34.0	2	98.752	0.015	693.091	0.0	0.0	26.875	4.0	70.0	2.0	Certain	1.08	-1.44	3231.5	Yes		2.5239984882842				ShowChoice	Mixed
34.0	2	102.764	0.012	697.103	0.0	0.0	26.875	1.0	70.0	2.0	Certain	1.08	-1.44	3231.5	Yes		2.5239984882842				ShowResult	Mixed
34.0	2	103.783	0.019	698.122	0.0	0.0	26.875	4.784	70.0	2.0	Certain	1.08	-1.44	3231.5	Yes		2.5239984882842				ISITrial	Mixed
34.0	2	111.841	0.028	706.18	0.0	0.0	26.875	2.306	70.0	2.0	Certain	1.08	-1.44	3231.5	Yes		2.5239984882842			588.0	TrialHappiness	Mixed
34.0	2	115.853	4.012	710.192	0.0	0.0	26.875	4.926	70.0	2.0	Certain	1.08	-1.44	3231.5	Yes		2.5239984882842				ISIRate	Mixed
35.0	2	120.801	0.022	715.14	0.08	-1.0	26.885	3.0	70.0	2.0	Outcome1	0.08	-2.38	0.0	No	2.0	2.4618291761148905	1.919	122.72		GetAnswer	Mixed
35.0	2	122.74	0.02	717.079	0.08	-1.0	26.885	4.0	70.0	2.0	Outcome1	0.08	-2.38	0.0	No		2.4618291761148905				ShowChoice	Mixed
35.0	2	126.752	0.012	721.091	0.08	-1.0	26.885	1.0	70.0	2.0	Outcome1	0.08	-2.38	0.0	No		2.4618291761148905				ShowResult	Mixed
35.0	2	127.772	0.02	722.111	0.08	-1.0	26.885	2.098	70.0	2.0	Outcome1	0.08	-2.38	0.0	No		2.4618291761148905				ISITrial	Mixed
36.0	2	129.895	0.025	724.234	-2.18	-1.09	26.6125	3.0	70.0	2.8	Outcome1	-2.18	11.5	3335.75	Yes	2.0	-13.6848072562358	1.734	131.629		GetAnswer	Loss
36.0	2	131.65	0.021	725.989	-2.18	-1.09	26.6125	4.0	70.0	2.8	Outcome1	-2.18	11.5	3335.75	Yes		-13.6848072562358				ShowChoice	Loss
36.0	2	135.662	0.012	730.001	-2.18	-1.09	26.6125	1.0	70.0	2.8	Outcome1	-2.18	11.5	3335.75	Yes		-13.6848072562358				ShowResult	Loss
36.0	2	136.682	0.02	731.021	-2.18	-1.09	26.6125	5.156	70.0	2.8	Outcome1	-2.18	11.5	3335.75	Yes		-13.6848072562358				ISITrial	Loss
36.0	2	145.224	0.024	739.563	-2.18	-1.09	26.6125	3.121	70.0	2.8	Outcome1	-2.18	11.5	3335.75	Yes		-13.6848072562358			552.0	TrialHappiness	Loss
36.0	2	149.236	4.012	743.575	-2.18	-1.09	26.6125	5.343	70.0	2.8	Outcome1	-2.18	11.5	3335.75	Yes		-13.6848072562358				ISIRate	Loss
37.0	2	154.602	0.023	748.941	1.0	1.0	26.7375	3.0	70.0	4.2	Certain	-5.56	8.1	0.0	No	4.0	-13.659863945578198	1.876	156.478		GetAnswer	Gain
37.0	2	156.491	0.013	750.83	1.0	1.0	26.7375	4.0	70.0	4.2	Certain	-5.56	8.1	0.0	No		-13.659863945578198				ShowChoice	Gain
37.0	2	160.503	0.012	754.842	1.0	1.0	26.7375	1.0	70.0	4.2	Certain	-5.56	8.1	0.0	No		-13.659863945578198				ShowResult	Gain
37.0	2	161.523	0.02	755.862	1.0	1.0	26.7375	3.598	70.0	4.2	Certain	-5.56	8.1	0.0	No		-13.659863945578198				ISITrial	Gain
38.0	2	165.15	0.029	759.489	-13.31	-6.0	25.0737	3.0	70.0	0.4	Outcome2	0.9	-13.31	0.0	No	2.0	-14.206349206349199	1.755	166.905		GetAnswer	Mixed
38.0	2	166.922	0.017	761.261	-13.31	-6.0	25.0737	4.0	70.0	0.4	Outcome2	0.9	-13.31	0.0	No		-14.206349206349199				ShowChoice	Mixed
38.0	2	170.934	0.012	765.273	-13.31	-6.0	25.0737	1.0	70.0	0.4	Outcome2	0.9	-13.31	0.0	No		-14.206349206349199				ShowResult	Mixed
38.0	2	171.954	0.02	766.293	-13.31	-6.0	25.0737	4.787	70.0	0.4	Outcome2	0.9	-13.31	0.0	No		-14.206349206349199				ISITrial	Mixed
39.0	2	176.768	0.027	771.107	-4.05	-2.02	24.5675	3.0	70.0	1.82	Outcome1	-4.05	10.7	2864.25	Yes	2.0	-14.752834467120199	1.608	178.376		GetAnswer	Loss
39.0	2	178.39	0.014	772.729	-4.05	-2.02	24.5675	4.0	70.0	1.82	Outcome1	-4.05	10.7	2864.25	Yes		-14.752834467120199				ShowChoice	Loss
39.0	2	182.419	0.029	776.758	-4.05	-2.02	24.5675	1.0	70.0	1.82	Outcome1	-4.05	10.7	2864.25	Yes		-14.752834467120199				ShowResult	Loss
39.0	2	183.438	0.019	777.777	-4.05	-2.02	24.5675	2.348	70.0	1.82	Outcome1	-4.05	10.7	2864.25	Yes		-14.752834467120199				ISITrial	Loss
39.0	2	188.704	0.028	783.043	-4.05	-2.02	24.5675	0.447	70.0	1.82	Outcome1	-4.05	10.7	2864.25	Yes	2{-2}	-14.752834467120199	0.447	189.151	532.0	TrialHappiness	Loss
39.0	2	192.716	4.012	787.055	-4.05	-2.02	24.5675	3.457	70.0	1.82	Outcome1	-4.05	10.7	2864.25	Yes		-14.752834467120199				ISIRate	Loss
40.0	2	196.193	0.02	790.532	-15.86	-8.0	22.585	3.0	70.0	0.52	Outcome1	-15.86	-0.9	0.0	No	2.0	-14.9591836734694	2.649	198.842		GetAnswer	Mixed
40.0	2	198.868	0.026	793.207	-15.86	-8.0	22.585	4.0	70.0	0.52	Outcome1	-15.86	-0.9	0.0	No		-14.9591836734694				ShowChoice	Mixed
40.0	2	202.88	0.012	797.219	-15.86	-8.0	22.585	1.0	70.0	0.52	Outcome1	-15.86	-0.9	0.0	No		-14.9591836734694				ShowResult	Mixed
40.0	2	203.899	0.019	798.238	-15.86	-8.0	22.585	3.158	70.0	0.52	Outcome1	-15.86	-0.9	0.0	No		-14.9591836734694				ISITrial	Mixed
41.0	2	207.076	0.019	801.415	-9.98	-2.0	21.3375	3.0	70.0	2.8	Outcome2	5.5	-9.98	4000.0	Yes	2.0	-15.4829931972789	1.847	208.923		GetAnswer	Gain
41.0	2	208.948	0.025	803.287	-9.98	-2.0	21.3375	4.0	70.0	2.8	Outcome2	5.5	-9.98	4000.0	Yes		-15.4829931972789				ShowChoice	Gain
41.0	2	212.96	0.012	807.299	-9.98	-2.0	21.3375	1.0	70.0	2.8	Outcome2	5.5	-9.98	4000.0	Yes		-15.4829931972789				ShowResult	Gain
41.0	2	213.98	0.02	808.319	-9.98	-2.0	21.3375	4.506	70.0	2.8	Outcome2	5.5	-9.98	4000.0	Yes		-15.4829931972789				ISITrial	Gain
41.0	2	222.539	0.029	816.878	-9.98	-2.0	21.3375	0.642	70.0	2.8	Outcome2	5.5	-9.98	4000.0	Yes		-15.4829931972789			488.0	TrialHappiness	Gain
41.0	2	226.551	4.012	820.89	-9.98	-2.0	21.3375	8.0	70.0	2.8	Outcome2	5.5	-9.98	4000.0	Yes		-15.4829931972789				ISIRate	Gain
42.0	2	234.575	0.024	828.914	-3.0	-3.0	20.9625	3.0	70.0	1.82	Certain	-10.56	4.7	0.0	No	4.0	-15.2585034013605	2.22	236.795		GetAnswer	Gain
42.0	2	236.815	0.02	831.154	-3.0	-3.0	20.9625	4.0	70.0	1.82	Certain	-10.56	4.7	0.0	No		-15.2585034013605				ShowChoice	Gain
42.0	2	240.827	0.012	835.166	-3.0	-3.0	20.9625	1.0	70.0	1.82	Certain	-10.56	4.7	0.0	No		-15.2585034013605				ShowResult	Gain
42.0	2	241.846	0.019	836.185	-3.0	-3.0	20.9625	6.248	70.0	1.82	Certain	-10.56	4.7	0.0	No		-15.2585034013605				ISITrial	Gain
43.0	2	248.115	0.021	842.454	-13.23	-5.0	19.3087	3.0	70.0	0.2	Outcome2	2.5	-13.23	2775.75	Yes	2.0	-15.732426303854899	1.65	249.765		GetAnswer	Mixed
43.0	2	249.787	0.022	844.126	-13.23	-5.0	19.3087	4.0	70.0	0.2	Outcome2	2.5	-13.23	2775.75	Yes		-15.732426303854899				ShowChoice	Mixed
43.0	2	253.799	0.012	848.138	-13.23	-5.0	19.3087	1.0	70.0	0.2	Outcome2	2.5	-13.23	2775.75	Yes		-15.732426303854899				ShowResult	Mixed
43.0	2	254.818	0.019	849.157	-13.23	-5.0	19.3087	4.596	70.0	0.2	Outcome2	2.5	-13.23	2775.75	Yes		-15.732426303854899				ISITrial	Mixed
43.0	2	262.224	0.016	856.563	-13.23	-5.0	19.3087	3.229	70.0	0.2	Outcome2	2.5	-13.23	2775.75	Yes		-15.732426303854899			364.0	TrialHappiness	Mixed
43.0	2	266.253	4.029	860.592	-13.23	-5.0	19.3087	3.103	70.0	0.2	Outcome2	2.5	-13.23	2775.75	Yes		-15.732426303854899				ISIRate	Mixed
44.0	2	269.379	0.023	863.718	2.22	1.0	19.5862	3.0	70.0	2.0	Outcome2	0.27	2.22	0.0	No	2.0	1.95256991685563	1.656	271.035		GetAnswer	Gain
44.0	2	271.05	0.015	865.389	2.22	1.0	19.5862	4.0	70.0	2.0	Outcome2	0.27	2.22	0.0	No		1.95256991685563				ShowChoice	Gain
44.0	2	275.062	0.012	869.401	2.22	1.0	19.5862	1.0	70.0	2.0	Outcome2	0.27	2.22	0.0	No		1.95256991685563				ShowResult	Gain
44.0	2	276.082	0.02	870.421	2.22	1.0	19.5862	2.42	70.0	2.0	Outcome2	0.27	2.22	0.0	No		1.95256991685563				ISITrial	Gain
45.0	2	278.523	0.021	872.862	-2.33	-1.16	19.295	3.0	70.0	4.2	Outcome2	12.1	-2.33	0.0	No	2.0	-14.430839002267598	1.605	280.128		GetAnswer	Loss
45.0	2	280.144	0.016	874.483	-2.33	-1.16	19.295	4.0	70.0	4.2	Outcome2	12.1	-2.33	0.0	No		-14.430839002267598				ShowChoice	Loss
45.0	2	284.156	0.012	878.495	-2.33	-1.16	19.295	1.0	70.0	4.2	Outcome2	12.1	-2.33	0.0	No		-14.430839002267598				ShowResult	Loss
45.0	2	285.176	0.02	879.515	-2.33	-1.16	19.295	3.144	70.0	4.2	Outcome2	12.1	-2.33	0.0	No		-14.430839002267598				ISITrial	Loss
46.0	2	288.352	0.032	882.691	0.78	0.0	19.3925	3.0	70.0	0.52	Outcome1	0.78	-1.23	3841.25	Yes	2.0	2.00812547241119	1.817	290.169		GetAnswer	Mixed
46.0	2	290.191	0.022	884.53	0.78	0.0	19.3925	4.0	70.0	0.52	Outcome1	0.78	-1.23	3841.25	Yes		2.00812547241119				ShowChoice	Mixed
46.0	2	294.22	0.029	888.559	0.78	0.0	19.3925	1.0	70.0	0.52	Outcome1	0.78	-1.23	3841.25	Yes		2.00812547241119				ShowResult	Mixed
46.0	2	295.239	0.019	889.578	0.78	0.0	19.3925	2.246	70.0	0.52	Outcome1	0.78	-1.23	3841.25	Yes		2.00812547241119				ISITrial	Mixed
46.0	2	301.374	0.02	895.713	0.78	0.0	19.3925	2.381	70.0	0.52	Outcome1	0.78	-1.23	3841.25	Yes		2.00812547241119			404.0	TrialHappiness	Mixed
46.0	2	305.403	4.029	899.742	0.78	0.0	19.3925	7.365	70.0	0.52	Outcome1	0.78	-1.23	3841.25	Yes		2.00812547241119				ISIRate	Mixed
47.0	2	312.792	0.024	907.131	1.0	1.0	19.5175	3.0	70.0	2.8	Certain	1.88	-0.32	0.0	No	4.0	2.1984126984127	2.02	314.812		GetAnswer	Gain
47.0	2	314.831	0.019	909.17	1.0	1.0	19.5175	4.0	70.0	2.8	Certain	1.88	-0.32	0.0	No		2.1984126984127				ShowChoice	Gain
47.0	2	318.843	0.012	913.182	1.0	1.0	19.5175	1.0	70.0	2.8	Certain	1.88	-0.32	0.0	No		2.1984126984127				ShowResult	Gain
47.0	2	319.863	0.02	914.202	1.0	1.0	19.5175	2.0	70.0	2.8	Certain	1.88	-0.32	0.0	No		2.1984126984127				ISITrial	Gain
48.0	2	321.886	0.023	916.225	-16.26	-8.0	17.485	3.0	70.0	1.2	Outcome1	-16.26	-0.1	2831.75	Yes		-16.156462585034				GetAnswer	Mixed
48.0	2	324.911	0.025	919.25	-16.26	-8.0	17.485	4.0	70.0	1.2	Outcome1	-16.26	-0.1	2831.75	Yes		-16.156462585034				ShowChoice	Mixed
48.0	2	328.94	0.029	923.279	-16.26	-8.0	17.485	1.0	70.0	1.2	Outcome1	-16.26	-0.1	2831.75	Yes		-16.156462585034				ShowResult	Mixed
48.0	2	329.96	0.02	924.299	-16.26	-8.0	17.485	3.692	70.0	1.2	Outcome1	-16.26	-0.1	2831.75	Yes		-16.156462585034				ISITrial	Mixed
48.0	2	336.529	0.026	930.868	-16.26	-8.0	17.485	3.367	70.0	1.2	Outcome1	-16.26	-0.1	2831.75	Yes		-16.156462585034			256.0	TrialHappiness	Mixed
48.0	2	340.558	4.029	934.897	-16.26	-8.0	17.485	3.327	70.0	1.2	Outcome1	-16.26	-0.1	2831.75	Yes		-16.156462585034				ISIRate	Mixed
49.0	2	343.918	0.033	938.257	1.82	1.0	17.7125	3.0	70.0	2.48	Outcome2	0.16	1.82	0.0	No	2.0	1.66024187452759	1.62	345.538		GetAnswer	Gain
49.0	2	345.556	0.018	939.895	1.82	1.0	17.7125	4.0	70.0	2.48	Outcome2	0.16	1.82	0.0	No		1.66024187452759				ShowChoice	Gain
49.0	2	349.585	0.029	943.924	1.82	1.0	17.7125	1.0	70.0	2.48	Outcome2	0.16	1.82	0.0	No		1.66024187452759				ShowResult	Gain
49.0	2	350.605	0.02	944.944	1.82	1.0	17.7125	8.0	70.0	2.48	Outcome2	0.16	1.82	0.0	No		1.66024187452759				ISITrial	Gain
50.0	2	358.629	0.024	952.968	-11.33	-4.0	16.2963	3.0	70.0	0.4	Outcome1	-11.33	2.9	3547.25	Yes	2.0	-14.2290249433107	1.896	360.525		GetAnswer	Mixed
50.0	2	360.551	0.026	954.89	-11.33	-4.0	16.2963	4.0	70.0	0.4	Outcome1	-11.33	2.9	3547.25	Yes		-14.2290249433107				ShowChoice	Mixed
50.0	2	364.58	0.029	958.919	-11.33	-4.0	16.2963	1.0	70.0	0.4	Outcome1	-11.33	2.9	3547.25	Yes		-14.2290249433107				ShowResult	Mixed
50.0	2	365.6	0.02	959.939	-11.33	-4.0	16.2963	7.537	70.0	0.4	Outcome1	-11.33	2.9	3547.25	Yes		-14.2290249433107				ISITrial	Mixed
50.0	2	376.733	0.03	971.072	-11.33	-4.0	16.2963	2.682	70.0	0.4	Outcome1	-11.33	2.9	3547.25	Yes		-14.2290249433107			216.0	TrialHappiness	Mixed
50.0	2	380.745	4.012	975.084	-11.33	-4.0	16.2963	6.189	70.0	0.4	Outcome1	-11.33	2.9	3547.25	Yes		-14.2290249433107				ISIRate	Mixed
51.0	2	386.963	0.029	981.302	-7.0	-7.0	15.4213	3.0	70.0	0.66	Certain	-0.7	-14.46	0.0	No	4.0	-13.759637188208599	1.547	388.51		GetAnswer	Mixed
51.0	2	388.535	0.025	982.874	-7.0	-7.0	15.4213	4.0	70.0	0.66	Certain	-0.7	-14.46	0.0	No		-13.759637188208599				ShowChoice	Mixed
51.0	2	392.547	0.012	986.886	-7.0	-7.0	15.4213	1.0	70.0	0.66	Certain	-0.7	-14.46	0.0	No		-13.759637188208599				ShowResult	Mixed
51.0	2	393.567	0.02	987.906	-7.0	-7.0	15.4213	5.508	70.0	0.66	Certain	-0.7	-14.46	0.0	No		-13.759637188208599				ISITrial	Mixed
52.0	2	399.1	0.025	993.439	-0.38	-1.0	15.3738	3.0	70.0	0.2	Outcome2	-1.93	-0.38	0.0	No	2.0	1.5466742252456498	2.521	401.621		GetAnswer	Mixed
52.0	2	401.641	0.02	995.98	-0.38	-1.0	15.3738	4.0	70.0	0.2	Outcome2	-1.93	-0.38	0.0	No		1.5466742252456498				ShowChoice	Mixed
52.0	2	405.653	0.012	999.992	-0.38	-1.0	15.3738	1.0	70.0	0.2	Outcome2	-1.93	-0.38	0.0	No		1.5466742252456498				ShowResult	Mixed
52.0	2	406.672	0.019	1001.011	-0.38	-1.0	15.3738	5.913	70.0	0.2	Outcome2	-1.93	-0.38	0.0	No		1.5466742252456498				ISITrial	Mixed
53.0	2	412.607	0.022	1006.946	-3.0	-3.0	14.9988	3.0	70.0	1.2	Certain	-10.19	3.9	2996.75	Yes	4.0	-14.0907029478458	2.176	414.783		GetAnswer	Mixed
53.0	2	414.797	0.014	1009.136	-3.0	-3.0	14.9988	4.0	70.0	1.2	Certain	-10.19	3.9	2996.75	Yes		-14.0907029478458				ShowChoice	Mixed
53.0	2	418.809	0.012	1013.148	-3.0	-3.0	14.9988	1.0	70.0	1.2	Certain	-10.19	3.9	2996.75	Yes		-14.0907029478458				ShowResult	Mixed
53.0	2	419.828	0.019	1014.167	-3.0	-3.0	14.9988	3.66	70.0	1.2	Certain	-10.19	3.9	2996.75	Yes		-14.0907029478458				ISITrial	Mixed
53.0	2	426.532	0.029	1020.871	-3.0	-3.0	14.9988	2.371	70.0	1.2	Certain	-10.19	3.9	2996.75	Yes		-14.0907029478458			236.0	TrialHappiness	Mixed
53.0	2	430.544	4.012	1024.883	-3.0	-3.0	14.9988	3.987	70.0	1.2	Certain	-10.19	3.9	2996.75	Yes		-14.0907029478458				ISIRate	Mixed
54.0	2	434.556	0.025	1028.895	-2.3	-1.15	14.7113	3.0	70.0	5.0	Outcome2	12.3	-2.3	0.0	No	2.0	-14.5963718820862	1.662	436.218		GetAnswer	Loss
54.0	2	436.244	0.026	1030.583	-2.3	-1.15	14.7113	4.0	70.0	5.0	Outcome2	12.3	-2.3	0.0	No		-14.5963718820862				ShowChoice	Loss
54.0	2	440.256	0.012	1034.595	-2.3	-1.15	14.7113	1.0	70.0	5.0	Outcome2	12.3	-2.3	0.0	No		-14.5963718820862				ShowResult	Loss
54.0	2	441.276	0.02	1035.615	-2.3	-1.15	14.7113	8.0	70.0	5.0	Outcome2	12.3	-2.3	0.0	No		-14.5963718820862				ISITrial	Loss
	2	449.3	0.024	1043.639				-0.001								4		46.533	495.833		Rest	
	2	495.856	0.023	1090.195				4.0													BlockHappyPreview	
	2	499.868	0.012	1094.207				2.646								4{-4}		2.646	502.514	344.0	BlockStartHappiness	
	2	519.777	0.015	1114.116				-0.001								5.0		3.398	523.175		ScanWait	
	3	0.012	0.012	1117.526				10.0													GetReady	
55.0	3	10.026	0.014	1127.54	-6.0	-6.0	13.9613	3.0	955.0	0.4	Certain	-1.1	-11.48	2533.25	Yes	4.0	10.379388448471099	2.137	12.163		GetAnswer	Mixed
55.0	3	12.182	0.019	1129.696	-6.0	-6.0	13.9613	4.0	955.0	0.4	Certain	-1.1	-11.48	2533.25	Yes		10.379388448471099				ShowChoice	Mixed
55.0	3	16.194	0.012	1133.708	-6.0	-6.0	13.9613	1.0	955.0	0.4	Certain	-1.1	-11.48	2533.25	Yes		10.379388448471099				ShowResult	Mixed
55.0	3	17.214	0.02	1134.728	-6.0	-6.0	13.9613	7.709	955.0	0.4	Certain	-1.1	-11.48	2533.25	Yes		10.379388448471099				ISITrial	Mixed
55.0	3	27.495	0.025	1145.009	-6.0	-6.0	13.9613	3.833	955.0	0.4	Certain	-1.1	-11.48	2533.25	Yes		10.379388448471099			184.0	TrialHappiness	Mixed
55.0	3	31.54	4.045	1149.054	-6.0	-6.0	13.9613	2.133	955.0	0.4	Certain	-1.1	-11.48	2533.25	Yes		10.379388448471099				ISIRate	Mixed
56.0	3	33.696	0.023	1151.21	-0.14	-0.14	13.9438	3.0	955.0	2.8	Certain	-0.29	13.5	0.0	No	4.0	13.789354473386199	1.735	35.431		GetAnswer	Loss
56.0	3	35.452	0.021	1152.966	-0.14	-0.14	13.9438	4.0	955.0	2.8	Certain	-0.29	13.5	0.0	No		13.789354473386199				ShowChoice	Loss
56.0	3	39.464	0.012	1156.978	-0.14	-0.14	13.9438	1.0	955.0	2.8	Certain	-0.29	13.5	0.0	No		13.789354473386199				ShowResult	Loss
56.0	3	40.483	0.019	1157.997	-0.14	-0.14	13.9438	4.697	955.0	2.8	Certain	-0.29	13.5	0.0	No		13.789354473386199				ISITrial	Loss
57.0	3	45.198	0.018	1162.712	5.7	-1.0	14.6563	3.0	955.0	3.16	Outcome2	-8.96	5.7	0.0	No	2.0	14.6625141562854	2.173	47.371		GetAnswer	Gain
57.0	3	47.387	0.016	1164.901	5.7	-1.0	14.6563	4.0	955.0	3.16	Outcome2	-8.96	5.7	0.0	No		14.6625141562854				ShowChoice	Gain
57.0	3	51.399	0.012	1168.913	5.7	-1.0	14.6563	1.0	955.0	3.16	Outcome2	-8.96	5.7	0.0	No		14.6625141562854				ShowResult	Gain
57.0	3	52.419	0.02	1169.933	5.7	-1.0	14.6563	4.291	955.0	3.16	Outcome2	-8.96	5.7	0.0	No		14.6625141562854				ISITrial	Gain
58.0	3	56.732	0.022	1174.246	12.9	-1.32	16.2688	3.0	955.0	2.0	Outcome1	12.9	-2.64	3045.75	Yes	2.0	15.535673839184598	1.643	58.375		GetAnswer	Loss
58.0	3	58.387	0.012	1175.901	12.9	-1.32	16.2688	4.0	955.0	2.0	Outcome1	12.9	-2.64	3045.75	Yes		15.535673839184598				ShowChoice	Loss
58.0	3	62.399	0.012	1179.913	12.9	-1.32	16.2688	1.0	955.0	2.0	Outcome1	12.9	-2.64	3045.75	Yes		15.535673839184598				ShowResult	Loss
58.0	3	63.419	0.02	1180.933	12.9	-1.32	16.2688	2.037	955.0	2.0	Outcome1	12.9	-2.64	3045.75	Yes		15.535673839184598				ISITrial	Loss
58.0	3	68.551	0.03	1186.065	12.9	-1.32	16.2688	2.271	955.0	2.0	Outcome1	12.9	-2.64	3045.75	Yes		15.535673839184598			568.0	TrialHappiness	Loss
58.0	3	72.563	4.012	1190.077	12.9	-1.32	16.2688	4.183	955.0	2.0	Outcome1	12.9	-2.64	3045.75	Yes		15.535673839184598				ISIRate	Loss
59.0	3	76.775	0.029	1194.289	5.1	0.0	16.9063	3.0	955.0	2.22	Outcome2	-4.79	5.1	0.0	No	2.0	9.88561721404303	2.071	78.846		GetAnswer	Gain
59.0	3	78.865	0.019	1196.379	5.1	0.0	16.9063	4.0	955.0	2.22	Outcome2	-4.79	5.1	0.0	No		9.88561721404303				ShowChoice	Gain
59.0	3	82.877	0.012	1200.391	5.1	0.0	16.9063	1.0	955.0	2.22	Outcome2	-4.79	5.1	0.0	No		9.88561721404303				ShowResult	Gain
59.0	3	83.897	0.02	1201.411	5.1	0.0	16.9063	5.064	955.0	2.22	Outcome2	-4.79	5.1	0.0	No		9.88561721404303				ISITrial	Gain
60.0	3	88.978	0.017	1206.492	8.42	4.21	17.9588	3.0	955.0	5.0	Outcome1	8.42	10.3	3562.5	Yes	2.0	-1.88297470743677	1.485	90.463		GetAnswer	Gain
60.0	3	90.483	0.02	1207.997	8.42	4.21	17.9588	4.0	955.0	5.0	Outcome1	8.42	10.3	3562.5	Yes		-1.88297470743677				ShowChoice	Gain
60.0	3	94.495	0.012	1212.009	8.42	4.21	17.9588	1.0	955.0	5.0	Outcome1	8.42	10.3	3562.5	Yes		-1.88297470743677				ShowResult	Gain
60.0	3	95.515	0.02	1213.029	8.42	4.21	17.9588	8.0	955.0	5.0	Outcome1	8.42	10.3	3562.5	Yes		-1.88297470743677				ISITrial	Gain
60.0	3	107.116	0.015	1224.63	8.42	4.21	17.9588	3.765	955.0	5.0	Outcome1	8.42	10.3	3562.5	Yes	2{-2}2{-2}	-1.88297470743677	3.765	110.881	540.0	TrialHappiness	Gain
60.0	3	111.128	4.012	1228.642	8.42	4.21	17.9588	6.25	955.0	5.0	Outcome1	8.42	10.3	3562.5	Yes		-1.88297470743677				ISIRate	Gain
61.0	3	117.397	0.019	1234.911	4.47	2.24	18.5176	3.0	955.0	1.68	Outcome2	6.5	4.47	0.0	No	2.0	-2.03312570781427	1.411	118.808		GetAnswer	Gain
61.0	3	118.834	0.026	1236.348	4.47	2.24	18.5176	4.0	955.0	1.68	Outcome2	6.5	4.47	0.0	No		-2.03312570781427				ShowChoice	Gain
61.0	3	122.846	0.012	1240.36	4.47	2.24	18.5176	1.0	955.0	1.68	Outcome2	6.5	4.47	0.0	No		-2.03312570781427				ShowResult	Gain
61.0	3	123.866	0.02	1241.38	4.47	2.24	18.5176	4.586	955.0	1.68	Outcome2	6.5	4.47	0.0	No		-2.03312570781427				ISITrial	Gain
62.0	3	128.48	0.028	1245.994	0.03	1.0	18.5214	3.0	955.0	1.5	Outcome1	0.03	2.1	3748.75	Yes	2.0	-2.0722914307285802	1.24	129.72		GetAnswer	Mixed
62.0	3	129.734	0.014	1247.248	0.03	1.0	18.5214	4.0	955.0	1.5	Outcome1	0.03	2.1	3748.75	Yes		-2.0722914307285802				ShowChoice	Mixed
62.0	3	133.746	0.012	1251.26	0.03	1.0	18.5214	1.0	955.0	1.5	Outcome1	0.03	2.1	3748.75	Yes		-2.0722914307285802				ShowResult	Mixed
62.0	3	134.765	0.019	1252.279	0.03	1.0	18.5214	5.212	955.0	1.5	Outcome1	0.03	2.1	3748.75	Yes		-2.0722914307285802				ISITrial	Mixed
62.0	3	143.776	0.029	1261.29	0.03	1.0	18.5214	1.578	955.0	1.5	Outcome1	0.03	2.1	3748.75	Yes		-2.0722914307285802			536.0	TrialHappiness	Mixed
62.0	3	147.788	4.012	1265.302	0.03	1.0	18.5214	6.995	955.0	1.5	Outcome1	0.03	2.1	3748.75	Yes		-2.0722914307285802				ISIRate	Mixed
63.0	3	154.809	0.026	1272.323	1.5	-4.0	18.7089	3.0	955.0	0.82	Outcome1	1.5	-10.75	0.0	No	2.0	12.2457531143828	2.717	157.526		GetAnswer	Mixed
63.0	3	157.55	0.024	1275.064	1.5	-4.0	18.7089	4.0	955.0	0.82	Outcome1	1.5	-10.75	0.0	No		12.2457531143828				ShowChoice	Mixed
63.0	3	161.562	0.012	1279.076	1.5	-4.0	18.7089	1.0	955.0	0.82	Outcome1	1.5	-10.75	0.0	No		12.2457531143828				ShowResult	Mixed
63.0	3	162.582	0.02	1280.096	1.5	-4.0	18.7089	5.595	955.0	0.82	Outcome1	1.5	-10.75	0.0	No		12.2457531143828				ISITrial	Mixed
64.0	3	168.199	0.022	1285.713	-1.47	0.0	18.5251	3.0	955.0	0.3	Outcome1	-1.47	0.7	0.0	No	2.0	-2.1672329180823002	2.477	170.676		GetAnswer	Mixed
64.0	3	170.706	0.03	1288.22	-1.47	0.0	18.5251	4.0	955.0	0.3	Outcome1	-1.47	0.7	0.0	No		-2.1672329180823002				ShowChoice	Mixed
64.0	3	174.718	0.012	1292.232	-1.47	0.0	18.5251	1.0	955.0	0.3	Outcome1	-1.47	0.7	0.0	No		-2.1672329180823002				ShowResult	Mixed
64.0	3	175.738	0.02	1293.252	-1.47	0.0	18.5251	5.47	955.0	0.3	Outcome1	-1.47	0.7	0.0	No		-2.1672329180823002				ISITrial	Mixed
65.0	3	181.238	0.03	1298.752	2.0	2.0	18.7751	3.0	955.0	2.48	Certain	-3.89	9.3	2996.75	Yes	4.0	13.1947904869762	2.023	183.261		GetAnswer	Gain
65.0	3	183.277	0.016	1300.791	2.0	2.0	18.7751	4.0	955.0	2.48	Certain	-3.89	9.3	2996.75	Yes		13.1947904869762				ShowChoice	Gain
65.0	3	187.289	0.012	1304.803	2.0	2.0	18.7751	1.0	955.0	2.48	Certain	-3.89	9.3	2996.75	Yes		13.1947904869762				ShowResult	Gain
65.0	3	188.309	0.02	1305.823	2.0	2.0	18.7751	3.344	955.0	2.48	Certain	-3.89	9.3	2996.75	Yes		13.1947904869762				ISITrial	Gain
65.0	3	194.695	0.029	1312.209	2.0	2.0	18.7751	0.651	955.0	2.48	Certain	-3.89	9.3	2996.75	Yes		13.1947904869762			552.0	TrialHappiness	Gain
65.0	3	198.707	4.012	1316.221	2.0	2.0	18.7751	3.987	955.0	2.48	Certain	-3.89	9.3	2996.75	Yes		13.1947904869762				ISIRate	Gain
66.0	3	202.719	0.025	1320.233	13.3	-0.05	20.4376	3.0	955.0	2.48	Outcome1	13.3	-0.1	0.0	No	2.0	13.3975084937712	1.968	204.687		GetAnswer	Loss
66.0	3	204.708	0.021	1322.222	13.3	-0.05	20.4376	4.0	955.0	2.48	Outcome1	13.3	-0.1	0.0	No		13.3975084937712				ShowChoice	Loss
66.0	3	208.72	0.012	1326.234	13.3	-0.05	20.4376	1.0	955.0	2.48	Outcome1	13.3	-0.1	0.0	No		13.3975084937712				ShowResult	Loss
66.0	3	209.739	0.019	1327.253	13.3	-0.05	20.4376	3.959	955.0	2.48	Outcome1	13.3	-0.1	0.0	No		13.3975084937712				ISITrial	Loss
67.0	3	213.718	0.02	1331.232	8.68	4.34	21.5226	3.0	955.0	2.0	Outcome1	8.68	10.9	2918.5	Yes	2.0	-2.2194224235560602	1.862	215.58		GetAnswer	Loss
67.0	3	215.607	0.027	1333.121	8.68	4.34	21.5226	4.0	955.0	2.0	Outcome1	8.68	10.9	2918.5	Yes		-2.2194224235560602				ShowChoice	Loss
67.0	3	219.619	0.012	1337.133	8.68	4.34	21.5226	1.0	955.0	2.0	Outcome1	8.68	10.9	2918.5	Yes		-2.2194224235560602				ShowResult	Loss
67.0	3	220.639	0.02	1338.153	8.68	4.34	21.5226	4.199	955.0	2.0	Outcome1	8.68	10.9	2918.5	Yes		-2.2194224235560602				ISITrial	Loss
67.0	3	227.793	0.024	1345.307	8.68	4.34	21.5226	1.481	955.0	2.0	Outcome1	8.68	10.9	2918.5	Yes		-2.2194224235560602			536.0	TrialHappiness	Loss
67.0	3	231.805	4.012	1349.319	8.68	4.34	21.5226	3.674	955.0	2.0	Outcome1	8.68	10.9	2918.5	Yes		-2.2194224235560602				ISIRate	Loss
68.0	3	235.5	0.021	1353.014	1.0	1.0	21.6476	3.0	955.0	1.68	Certain	-6.08	8.5	0.0	No	4.0	14.582106455266098	1.794	237.294		GetAnswer	Gain
68.0	3	237.305	0.011	1354.819	1.0	1.0	21.6476	4.0	955.0	1.68	Certain	-6.08	8.5	0.0	No		14.582106455266098				ShowChoice	Gain
68.0	3	241.317	0.012	1358.831	1.0	1.0	21.6476	1.0	955.0	1.68	Certain	-6.08	8.5	0.0	No		14.582106455266098				ShowResult	Gain
68.0	3	242.337	0.02	1359.851	1.0	1.0	21.6476	2.185	955.0	1.68	Certain	-6.08	8.5	0.0	No		14.582106455266098				ISITrial	Gain
69.0	3	244.544	0.022	1362.058	9.34	4.67	22.8151	3.0	955.0	3.16	Outcome2	11.7	9.34	0.0	No	2.0	-2.3619290298225697	1.005	245.549		GetAnswer	Loss
69.0	3	245.563	0.013	1363.077	9.34	4.67	22.8151	4.0	955.0	3.16	Outcome2	11.7	9.34	0.0	No		-2.3619290298225697				ShowChoice	Loss
69.0	3	249.575	0.012	1367.089	9.34	4.67	22.8151	1.0	955.0	3.16	Outcome2	11.7	9.34	0.0	No		-2.3619290298225697				ShowResult	Loss
69.0	3	250.595	0.02	1368.109	9.34	4.67	22.8151	2.0	955.0	3.16	Outcome2	11.7	9.34	0.0	No		-2.3619290298225697				ISITrial	Loss
70.0	3	252.618	0.023	1370.132	1.3	2.0	22.9776	3.0	955.0	1.0	Outcome2	3.7	1.3	3651.25	Yes	2.0	-2.40147225368063	2.08	254.698		GetAnswer	Mixed
70.0	3	254.724	0.026	1372.238	1.3	2.0	22.9776	4.0	955.0	1.0	Outcome2	3.7	1.3	3651.25	Yes		-2.40147225368063				ShowChoice	Mixed
70.0	3	258.736	0.012	1376.25	1.3	2.0	22.9776	1.0	955.0	1.0	Outcome2	3.7	1.3	3651.25	Yes		-2.40147225368063				ShowResult	Mixed
70.0	3	259.756	0.02	1377.27	1.3	2.0	22.9776	2.623	955.0	1.0	Outcome2	3.7	1.3	3651.25	Yes		-2.40147225368063				ISITrial	Mixed
70.0	3	266.075	0.027	1383.589	1.3	2.0	22.9776	0.566	955.0	1.0	Outcome2	3.7	1.3	3651.25	Yes		-2.40147225368063			532.0	TrialHappiness	Mixed
70.0	3	270.087	4.012	1387.601	1.3	2.0	22.9776	6.605	955.0	1.0	Outcome2	3.7	1.3	3651.25	Yes		-2.40147225368063				ISIRate	Mixed
71.0	3	276.723	0.031	1394.237	6.1	-2.0	23.7401	3.0	955.0	4.2	Outcome1	6.1	-9.97	0.0	No	2.0	16.073612684031698	1.921	278.644		GetAnswer	Gain
71.0	3	278.662	0.018	1396.176	6.1	-2.0	23.7401	4.0	955.0	4.2	Outcome1	6.1	-9.97	0.0	No		16.073612684031698				ShowChoice	Gain
71.0	3	282.674	0.012	1400.188	6.1	-2.0	23.7401	1.0	955.0	4.2	Outcome1	6.1	-9.97	0.0	No		16.073612684031698				ShowResult	Gain
71.0	3	283.694	0.02	1401.208	6.1	-2.0	23.7401	5.499	955.0	4.2	Outcome1	6.1	-9.97	0.0	No		16.073612684031698				ISITrial	Gain
72.0	3	289.21	0.017	1406.724	11.3	-2.62	25.1526	3.0	955.0	2.48	Outcome2	-5.25	11.3	3080.5	Yes	2.0	16.5526613816535	1.781	290.991		GetAnswer	Loss
72.0	3	291.016	0.025	1408.53	11.3	-2.62	25.1526	4.0	955.0	2.48	Outcome2	-5.25	11.3	3080.5	Yes		16.5526613816535				ShowChoice	Loss
72.0	3	295.028	0.012	1412.542	11.3	-2.62	25.1526	1.0	955.0	2.48	Outcome2	-5.25	11.3	3080.5	Yes		16.5526613816535				ShowResult	Loss
72.0	3	296.048	0.02	1413.562	11.3	-2.62	25.1526	5.672	955.0	2.48	Outcome2	-5.25	11.3	3080.5	Yes		16.5526613816535				ISITrial	Loss
72.0	3	304.841	0.03	1422.355	11.3	-2.62	25.1526	3.717	955.0	2.48	Outcome2	-5.25	11.3	3080.5	Yes	2{-2}2{-2}2{-2}2{-2}2{-2}2{-2}2{-2}4{-4}	16.5526613816535	3.717	308.558	616.0	TrialHappiness	Loss
72.0	3	308.853	4.012	1426.367	11.3	-2.62	25.1526	4.322	955.0	2.48	Outcome2	-5.25	11.3	3080.5	Yes		16.5526613816535				ISIRate	Loss
73.0	3	313.199	0.024	1430.713	11.1	-2.25	26.5401	3.0	955.0	2.22	Outcome2	-4.5	11.1	0.0	No	2.0	15.604756511891301	2.276	315.475		GetAnswer	Loss
73.0	3	315.489	0.014	1433.003	11.1	-2.25	26.5401	4.0	955.0	2.22	Outcome2	-4.5	11.1	0.0	No		15.604756511891301				ShowChoice	Loss
73.0	3	319.501	0.012	1437.015	11.1	-2.25	26.5401	1.0	955.0	2.22	Outcome2	-4.5	11.1	0.0	No		15.604756511891301				ShowResult	Loss
73.0	3	320.521	0.02	1438.035	11.1	-2.25	26.5401	4.616	955.0	2.22	Outcome2	-4.5	11.1	0.0	No		15.604756511891301				ISITrial	Loss
74.0	3	325.168	0.031	1442.682	4.5	-3.0	27.1026	3.0	955.0	1.68	Outcome2	-11.49	4.5	3056.25	Yes	2.0	15.9886749716874	1.696	326.864		GetAnswer	Gain
74.0	3	326.89	0.026	1444.404	4.5	-3.0	27.1026	4.0	955.0	1.68	Outcome2	-11.49	4.5	3056.25	Yes		15.9886749716874				ShowChoice	Gain
74.0	3	330.902	0.012	1448.416	4.5	-3.0	27.1026	1.0	955.0	1.68	Outcome2	-11.49	4.5	3056.25	Yes		15.9886749716874				ShowResult	Gain
74.0	3	331.921	0.019	1449.435	4.5	-3.0	27.1026	3.909	955.0	1.68	Outcome2	-11.49	4.5	3056.25	Yes		15.9886749716874				ISITrial	Gain
74.0	3	338.926	0.02	1456.44	4.5	-3.0	27.1026	1.528	955.0	1.68	Outcome2	-11.49	4.5	3056.25	Yes		15.9886749716874			624.0	TrialHappiness	Gain
74.0	3	342.938	4.012	1460.452	4.5	-3.0	27.1026	4.225	955.0	1.68	Outcome2	-11.49	4.5	3056.25	Yes		15.9886749716874				ISIRate	Gain
75.0	3	347.184	0.021	1464.698	0.0	0.0	27.1026	3.0	955.0	0.52	Certain	-1.13	1.1	0.0	No	4.0	-2.2277274443186097	2.22	349.404		GetAnswer	Mixed
75.0	3	349.424	0.02	1466.938	0.0	0.0	27.1026	4.0	955.0	0.52	Certain	-1.13	1.1	0.0	No		-2.2277274443186097				ShowChoice	Mixed
75.0	3	353.436	0.012	1470.95	0.0	0.0	27.1026	1.0	955.0	0.52	Certain	-1.13	1.1	0.0	No		-2.2277274443186097				ShowResult	Mixed
75.0	3	354.456	0.02	1471.97	0.0	0.0	27.1026	4.979	955.0	0.52	Certain	-1.13	1.1	0.0	No		-2.2277274443186097				ISITrial	Mixed
76.0	3	359.454	0.019	1476.968	7.9	0.0	28.0901	3.0	955.0	3.6	Outcome1	7.9	-8.71	0.0	No	2.0	16.611551528878802	1.715	361.169		GetAnswer	Gain
76.0	3	361.192	0.023	1478.706	7.9	0.0	28.0901	4.0	955.0	3.6	Outcome1	7.9	-8.71	0.0	No		16.611551528878802				ShowChoice	Gain
76.0	3	365.204	0.012	1482.718	7.9	0.0	28.0901	1.0	955.0	3.6	Outcome1	7.9	-8.71	0.0	No		16.611551528878802				ShowResult	Gain
76.0	3	366.224	0.02	1483.738	7.9	0.0	28.0901	3.931	955.0	3.6	Outcome1	7.9	-8.71	0.0	No		16.611551528878802				ISITrial	Gain
77.0	3	370.186	0.031	1487.7	0.0	0.0	28.0901	3.0	955.0	5.0	Certain	-8.69	8.3	4000.0	Yes	4.0	16.9864099660249	2.576	372.762		GetAnswer	Gain
77.0	3	372.777	0.015	1490.291	0.0	0.0	28.0901	4.0	955.0	5.0	Certain	-8.69	8.3	4000.0	Yes		16.9864099660249				ShowChoice	Gain
77.0	3	376.789	0.012	1494.303	0.0	0.0	28.0901	1.0	955.0	5.0	Certain	-8.69	8.3	4000.0	Yes		16.9864099660249				ShowResult	Gain
77.0	3	377.809	0.02	1495.323	0.0	0.0	28.0901	7.022	955.0	5.0	Certain	-8.69	8.3	4000.0	Yes		16.9864099660249				ISITrial	Gain
77.0	3	388.875	0.029	1506.389	0.0	0.0	28.0901	0.793	955.0	5.0	Certain	-8.69	8.3	4000.0	Yes		16.9864099660249			556.0	TrialHappiness	Gain
77.0	3	392.887	4.012	1510.401	0.0	0.0	28.0901	8.0	955.0	5.0	Certain	-8.69	8.3	4000.0	Yes		16.9864099660249				ISIRate	Gain
78.0	3	400.911	0.024	1518.425	6.3	-3.0	28.8776	3.0	955.0	5.0	Outcome1	6.3	-12.22	0.0	No	2.0	18.5164212910532	2.063	402.974		GetAnswer	Gain
78.0	3	403.001	0.027	1520.515	6.3	-3.0	28.8776	4.0	955.0	5.0	Outcome1	6.3	-12.22	0.0	No		18.5164212910532				ShowChoice	Gain
78.0	3	407.013	0.012	1524.527	6.3	-3.0	28.8776	1.0	955.0	5.0	Outcome1	6.3	-12.22	0.0	No		18.5164212910532				ShowResult	Gain
78.0	3	408.032	0.019	1525.546	6.3	-3.0	28.8776	2.078	955.0	5.0	Outcome1	6.3	-12.22	0.0	No		18.5164212910532				ISITrial	Gain
79.0	3	410.139	0.029	1527.653	-9.0	-9.0	27.7526	3.0	955.0	1.2	Certain	-19.07	-0.1	2729.5	Yes	4.0	18.9682899207248	2.537	412.676		GetAnswer	Mixed
79.0	3	412.696	0.02	1530.21	-9.0	-9.0	27.7526	4.0	955.0	1.2	Certain	-19.07	-0.1	2729.5	Yes		18.9682899207248				ShowChoice	Mixed
79.0	3	416.708	0.012	1534.222	-9.0	-9.0	27.7526	1.0	955.0	1.2	Certain	-19.07	-0.1	2729.5	Yes		18.9682899207248				ShowResult	Mixed
79.0	3	417.728	0.02	1535.242	-9.0	-9.0	27.7526	3.829	955.0	1.2	Certain	-19.07	-0.1	2729.5	Yes		18.9682899207248				ISITrial	Mixed
79.0	3	424.331	0.028	1541.845	-9.0	-9.0	27.7526	0.0	955.0	1.2	Certain	-19.07	-0.1	2729.5	Yes		18.9682899207248			512.0	TrialHappiness	Mixed
79.0	3	428.343	4.012	1545.857	-9.0	-9.0	27.7526	2.918	955.0	1.2	Certain	-19.07	-0.1	2729.5	Yes		18.9682899207248				ISIRate	Mixed
80.0	3	431.285	0.024	1548.799	6.7	-3.0	28.5901	3.0	955.0	1.82	Outcome2	-13.47	6.7	0.0	No	2.0	20.167610419026	2.227	433.512		GetAnswer	Gain
80.0	3	433.525	0.013	1551.039	6.7	-3.0	28.5901	4.0	955.0	1.82	Outcome2	-13.47	6.7	0.0	No		20.167610419026				ShowChoice	Gain
80.0	3	437.537	0.012	1555.051	6.7	-3.0	28.5901	1.0	955.0	1.82	Outcome2	-13.47	6.7	0.0	No		20.167610419026				ShowResult	Gain
80.0	3	438.557	0.02	1556.071	6.7	-3.0	28.5901	3.336	955.0	1.82	Outcome2	-13.47	6.7	0.0	No		20.167610419026				ISITrial	Gain
81.0	3	441.917	0.024	1559.431	0.0	0.0	28.5901	3.0	955.0	3.6	Certain	-10.77	9.9	3923.75	Yes	4.0	20.669309173272897	2.143	444.06		GetAnswer	Gain
81.0	3	444.073	0.013	1561.587	0.0	0.0	28.5901	4.0	955.0	3.6	Certain	-10.77	9.9	3923.75	Yes		20.669309173272897				ShowChoice	Gain
81.0	3	448.085	0.012	1565.599	0.0	0.0	28.5901	1.0	955.0	3.6	Certain	-10.77	9.9	3923.75	Yes		20.669309173272897				ShowResult	Gain
81.0	3	449.105	0.02	1566.619	0.0	0.0	28.5901	3.919	955.0	3.6	Certain	-10.77	9.9	3923.75	Yes		20.669309173272897				ISITrial	Gain
81.0	3	456.995	0.021	1574.509	0.0	0.0	28.5901	2.227	955.0	3.6	Certain	-10.77	9.9	3923.75	Yes		20.669309173272897			596.0	TrialHappiness	Gain
81.0	3	461.007	4.012	1578.521	0.0	0.0	28.5901	7.695	955.0	3.6	Certain	-10.77	9.9	3923.75	Yes		20.669309173272897				ISIRate	Gain
	3	468.731	0.029	1586.245				3.0													CurrentEarnings	
	3	471.756	0.025	1589.27				-0.001								{SPACE}		2.868	474.624		Goodbye	
