trial_number	block	onset	onset_delay	onset_unadjusted	amount_change	certain_amount	current_amount	duration	mood_target	multiplier	outcome	outcome1_amount	outcome2_amount	question_duration	rating	response	rpe	rt	rt_time	slider_response	trial_phase	trial_type
	0	-104.583	0.021	57.365				-0.001								{SPACE}		9.721	-94.862		Welcome	
	0	-94.838	0.024	67.11				5.0													LifeHappyPreview	
	0	-89.806	0.032	72.142				4.591												744.0	LifeHappiness	
	0	-74.293	0.026	87.655				4.0													BlockHappyPreview	
	0	-70.281	0.012	91.667				1.026												576.0	BlockStartHappiness	
	0	-4.634	0.022	157.314				-0.001								5.0					ScanWait	
	1	0.03	0.03	161.978				10.0													GetReady	
1.0	1	10.06	0.03	172.008	1.5	-1.0	10.1875	3.0	955.0	0.82	Outcome2	-4.94	1.5	0.0	No	2.0	6.43827859569649	1.928	11.988		GetAnswer	Mixed
1.0	1	12.016	0.028	173.964	1.5	-1.0	10.1875	4.0	955.0	0.82	Outcome2	-4.94	1.5	0.0	No		6.43827859569649				ShowChoice	Mixed
1.0	1	16.044	0.028	177.992	1.5	-1.0	10.1875	1.0	955.0	0.82	Outcome2	-4.94	1.5	0.0	No		6.43827859569649				ShowResult	Mixed
1.0	1	17.064	0.02	179.012	1.5	-1.0	10.1875	2.431	955.0	0.82	Outcome2	-4.94	1.5	0.0	No		6.43827859569649				ISITrial	Mixed
2.0	1	19.521	0.026	181.469	5.26	5.26	10.845	3.0	955.0	4.2	Certain	12.1	10.53	0.0	No	4.0	-1.5738014345035902	0.72	20.241		GetAnswer	Loss
2.0	1	20.257	0.016	182.205	5.26	5.26	10.845	4.0	955.0	4.2	Certain	12.1	10.53	0.0	No		-1.5738014345035902				ShowChoice	Loss
2.0	1	24.269	0.012	186.217	5.26	5.26	10.845	1.0	955.0	4.2	Certain	12.1	10.53	0.0	No		-1.5738014345035902				ShowResult	Loss
2.0	1	25.289	0.02	187.237	5.26	5.26	10.845	4.568	955.0	4.2	Certain	12.1	10.53	0.0	No		-1.5738014345035902				ISITrial	Loss
3.0	1	29.886	0.029	191.834	2.0	2.0	11.095	3.0	955.0	4.2	Certain	6.1	-1.2	2868.0	Yes	4.0	7.296715741789349	1.58	31.466		GetAnswer	Gain
3.0	1	31.491	0.025	193.439	2.0	2.0	11.095	4.0	955.0	4.2	Certain	6.1	-1.2	2868.0	Yes		7.296715741789349				ShowChoice	Gain
3.0	1	35.519	0.028	197.467	2.0	2.0	11.095	1.0	955.0	4.2	Certain	6.1	-1.2	2868.0	Yes		7.296715741789349				ShowResult	Gain
3.0	1	36.539	0.02	198.487	2.0	2.0	11.095	3.243	955.0	4.2	Certain	6.1	-1.2	2868.0	Yes		7.296715741789349				ISITrial	Gain
3.0	1	42.691	0.024	204.639	2.0	2.0	11.095	2.218	955.0	4.2	Certain	6.1	-1.2	2868.0	Yes		7.296715741789349			520.0	TrialHappiness	Gain
3.0	1	46.719	4.028	208.667	2.0	2.0	11.095	3.472	955.0	4.2	Certain	6.1	-1.2	2868.0	Yes		7.296715741789349				ISIRate	Gain
4.0	1	50.213	0.022	212.161	-1.0	-1.0	10.97	3.0	955.0	0.66	Certain	-2.57	-0.7	0.0	No	4.0	-1.8725934314835802	1.665	51.878		GetAnswer	Mixed
4.0	1	51.902	0.024	213.85	-1.0	-1.0	10.97	4.0	955.0	0.66	Certain	-2.57	-0.7	0.0	No		-1.8725934314835802				ShowChoice	Mixed
4.0	1	55.93	0.028	217.878	-1.0	-1.0	10.97	1.0	955.0	0.66	Certain	-2.57	-0.7	0.0	No		-1.8725934314835802				ShowResult	Mixed
4.0	1	56.95	0.02	218.898	-1.0	-1.0	10.97	2.011	955.0	0.66	Certain	-2.57	-0.7	0.0	No		-1.8725934314835802				ISITrial	Mixed
5.0	1	58.99	0.029	220.938	5.7	1.0	11.6825	3.0	955.0	3.16	Outcome1	5.7	-3.47	2582.5	Yes	2.0	9.169875424688561	0.9	59.89		GetAnswer	Gain
5.0	1	59.909	0.019	221.857	5.7	1.0	11.6825	4.0	955.0	3.16	Outcome1	5.7	-3.47	2582.5	Yes		9.169875424688561				ShowChoice	Gain
5.0	1	63.938	0.029	225.886	5.7	1.0	11.6825	1.0	955.0	3.16	Outcome1	5.7	-3.47	2582.5	Yes		9.169875424688561				ShowResult	Gain
5.0	1	64.957	0.019	226.905	5.7	1.0	11.6825	5.129	955.0	3.16	Outcome1	5.7	-3.47	2582.5	Yes		9.169875424688561				ISITrial	Gain
5.0	1	72.714	0.026	234.662	5.7	1.0	11.6825	1.461	955.0	3.16	Outcome1	5.7	-3.47	2582.5	Yes		9.169875424688561			560.0	TrialHappiness	Gain
5.0	1	76.743	4.029	238.691	5.7	1.0	11.6825	2.33	955.0	3.16	Outcome1	5.7	-3.47	2582.5	Yes		9.169875424688561				ISIRate	Gain
6.0	1	79.1	0.027	241.048	11.5	1.26	13.12	3.0	955.0	2.8	Outcome1	11.5	2.52	0.0	No	2.0	8.98301245753114	1.024	80.124		GetAnswer	Loss
6.0	1	80.153	0.029	242.101	11.5	1.26	13.12	4.0	955.0	2.8	Outcome1	11.5	2.52	0.0	No		8.98301245753114				ShowChoice	Loss
6.0	1	84.182	0.029	246.13	11.5	1.26	13.12	1.0	955.0	2.8	Outcome1	11.5	2.52	0.0	No		8.98301245753114				ShowResult	Loss
6.0	1	85.201	0.019	247.149	11.5	1.26	13.12	6.232	955.0	2.8	Outcome1	11.5	2.52	0.0	No		8.98301245753114				ISITrial	Loss
7.0	1	91.453	0.02	253.401	5.1	0.0	13.7575	3.0	955.0	2.22	Outcome1	5.1	-4.33	0.0	No	2.0	9.43035107587769	1.426	92.879		GetAnswer	Gain
7.0	1	92.908	0.029	254.856	5.1	0.0	13.7575	4.0	955.0	2.22	Outcome1	5.1	-4.33	0.0	No		9.43035107587769				ShowChoice	Gain
7.0	1	96.92	0.012	258.868	5.1	0.0	13.7575	1.0	955.0	2.22	Outcome1	5.1	-4.33	0.0	No		9.43035107587769				ShowResult	Gain
7.0	1	97.939	0.019	259.887	5.1	0.0	13.7575	2.305	955.0	2.22	Outcome1	5.1	-4.33	0.0	No		9.43035107587769				ISITrial	Gain
8.0	1	100.263	0.019	262.211	9.7	-0.09	14.97	3.0	955.0	3.16	Outcome1	9.7	-0.18	3112.5	Yes	2.0	9.877689694224241	1.498	101.761		GetAnswer	Gain
8.0	1	101.784	0.023	263.732	9.7	-0.09	14.97	4.0	955.0	3.16	Outcome1	9.7	-0.18	3112.5	Yes		9.877689694224241				ShowChoice	Gain
8.0	1	105.813	0.029	267.761	9.7	-0.09	14.97	1.0	955.0	3.16	Outcome1	9.7	-0.18	3112.5	Yes		9.877689694224241				ShowResult	Gain
8.0	1	106.833	0.02	268.781	9.7	-0.09	14.97	3.506	955.0	3.16	Outcome1	9.7	-0.18	3112.5	Yes		9.877689694224241				ISITrial	Gain
8.0	1	113.503	0.031	275.451	9.7	-0.09	14.97	1.561	955.0	3.16	Outcome1	9.7	-0.18	3112.5	Yes	2{-2}2{-2}	9.877689694224241	1.561	115.064	560.0	TrialHappiness	Gain
8.0	1	117.531	4.028	279.479	9.7	-0.09	14.97	4.45	955.0	3.16	Outcome1	9.7	-0.18	3112.5	Yes		9.877689694224241				ISIRate	Gain
9.0	1	122.012	0.031	283.96	-2.0	-2.0	14.72	3.0	955.0	0.66	Certain	-7.02	3.3	0.0	No	4.0	10.325028312570801	1.87	123.882		GetAnswer	Mixed
9.0	1	123.901	0.019	285.849	-2.0	-2.0	14.72	4.0	955.0	0.66	Certain	-7.02	3.3	0.0	No		10.325028312570801				ShowChoice	Mixed
9.0	1	127.929	0.028	289.877	-2.0	-2.0	14.72	1.0	955.0	0.66	Certain	-7.02	3.3	0.0	No		10.325028312570801				ShowResult	Mixed
9.0	1	128.949	0.02	290.897	-2.0	-2.0	14.72	2.0	955.0	0.66	Certain	-7.02	3.3	0.0	No		10.325028312570801				ISITrial	Mixed
10.0	1	130.972	0.023	292.92	-5.0	-5.0	14.095	3.0	955.0	0.2	Certain	-10.27	0.5	4000.0	Yes	4.0	10.7723669309173	2.046	133.018		GetAnswer	Mixed
10.0	1	133.045	0.027	294.993	-5.0	-5.0	14.095	4.0	955.0	0.2	Certain	-10.27	0.5	4000.0	Yes		10.7723669309173				ShowChoice	Mixed
10.0	1	137.073	0.028	299.021	-5.0	-5.0	14.095	1.0	955.0	0.2	Certain	-10.27	0.5	4000.0	Yes		10.7723669309173				ShowResult	Mixed
10.0	1	138.093	0.02	300.041	-5.0	-5.0	14.095	2.0	955.0	0.2	Certain	-10.27	0.5	4000.0	Yes		10.7723669309173				ISITrial	Mixed
10.0	1	144.144	0.028	306.092	-5.0	-5.0	14.095	3.202	955.0	0.2	Certain	-10.27	0.5	4000.0	Yes		10.7723669309173			508.0	TrialHappiness	Mixed
10.0	1	148.156	4.012	310.104	-5.0	-5.0	14.095	8.0	955.0	0.2	Certain	-10.27	0.5	4000.0	Yes		10.7723669309173				ISIRate	Mixed
11.0	1	156.18	0.024	318.128	-1.1	-7.0	13.9575	3.0	955.0	0.4	Outcome1	-1.1	-13.2	0.0	No	2.0	12.1030577576444	2.455	158.635		GetAnswer	Mixed
11.0	1	158.655	0.02	320.603	-1.1	-7.0	13.9575	4.0	955.0	0.4	Outcome1	-1.1	-13.2	0.0	No		12.1030577576444				ShowChoice	Mixed
11.0	1	162.683	0.028	324.631	-1.1	-7.0	13.9575	1.0	955.0	0.4	Outcome1	-1.1	-13.2	0.0	No		12.1030577576444				ShowResult	Mixed
11.0	1	163.703	0.02	325.651	-1.1	-7.0	13.9575	3.324	955.0	0.4	Outcome1	-1.1	-13.2	0.0	No		12.1030577576444				ISITrial	Mixed
12.0	1	167.046	0.019	328.994	2.07	1.03	14.2163	3.0	955.0	2.0	Outcome1	2.07	4.3	2618.75	Yes	2.0	-2.2319743299358197	1.048	168.094		GetAnswer	Mixed
12.0	1	168.116	0.022	330.064	2.07	1.03	14.2163	4.0	955.0	2.0	Outcome1	2.07	4.3	2618.75	Yes		-2.2319743299358197				ShowChoice	Mixed
12.0	1	172.128	0.012	334.076	2.07	1.03	14.2163	1.0	955.0	2.0	Outcome1	2.07	4.3	2618.75	Yes		-2.2319743299358197				ShowResult	Mixed
12.0	1	173.148	0.02	335.096	2.07	1.03	14.2163	6.642	955.0	2.0	Outcome1	2.07	4.3	2618.75	Yes		-2.2319743299358197				ISITrial	Mixed
12.0	1	182.442	0.022	344.39	2.07	1.03	14.2163	0.0	955.0	2.0	Outcome1	2.07	4.3	2618.75	Yes		-2.2319743299358197			512.0	TrialHappiness	Mixed
12.0	1	186.454	4.012	348.402	2.07	1.03	14.2163	2.475	955.0	2.0	Outcome1	2.07	4.3	2618.75	Yes		-2.2319743299358197				ISIRate	Mixed
13.0	1	188.945	0.016	350.893	6.24	3.12	14.9963	3.0	955.0	1.68	Outcome2	8.5	6.24	0.0	No	2.0	-2.2579275198187996	0.914	189.859		GetAnswer	Gain
13.0	1	189.881	0.022	351.829	6.24	3.12	14.9963	4.0	955.0	1.68	Outcome2	8.5	6.24	0.0	No		-2.2579275198187996				ShowChoice	Gain
13.0	1	193.893	0.012	355.841	6.24	3.12	14.9963	1.0	955.0	1.68	Outcome2	8.5	6.24	0.0	No		-2.2579275198187996				ShowResult	Gain
13.0	1	194.913	0.02	356.861	6.24	3.12	14.9963	3.48	955.0	1.68	Outcome2	8.5	6.24	0.0	No		-2.2579275198187996				ISITrial	Gain
14.0	1	198.424	0.031	360.372	9.9	-1.82	16.2338	3.0	955.0	3.6	Outcome1	9.9	-3.65	0.0	No	2.0	13.549263873159699	1.28	199.704		GetAnswer	Gain
14.0	1	199.727	0.023	361.675	9.9	-1.82	16.2338	4.0	955.0	3.6	Outcome1	9.9	-3.65	0.0	No		13.549263873159699				ShowChoice	Gain
14.0	1	203.739	0.012	365.687	9.9	-1.82	16.2338	1.0	955.0	3.6	Outcome1	9.9	-3.65	0.0	No		13.549263873159699				ShowResult	Gain
14.0	1	204.759	0.02	366.707	9.9	-1.82	16.2338	5.019	955.0	3.6	Outcome1	9.9	-3.65	0.0	No		13.549263873159699				ISITrial	Gain
15.0	1	209.808	0.03	371.756	11.1	-1.48	17.6213	3.0	955.0	2.22	Outcome2	-2.95	11.1	3348.5	Yes	2.0	14.0509626274066	1.598	211.406		GetAnswer	Loss
15.0	1	211.429	0.023	373.377	11.1	-1.48	17.6213	4.0	955.0	2.22	Outcome2	-2.95	11.1	3348.5	Yes		14.0509626274066				ShowChoice	Loss
15.0	1	215.441	0.012	377.389	11.1	-1.48	17.6213	1.0	955.0	2.22	Outcome2	-2.95	11.1	3348.5	Yes		14.0509626274066				ShowResult	Loss
15.0	1	216.461	0.02	378.409	11.1	-1.48	17.6213	7.614	955.0	2.22	Outcome2	-2.95	11.1	3348.5	Yes		14.0509626274066				ISITrial	Loss
15.0	1	227.477	0.029	389.425	11.1	-1.48	17.6213	2.264	955.0	2.22	Outcome2	-2.95	11.1	3348.5	Yes		14.0509626274066			552.0	TrialHappiness	Loss
15.0	1	231.489	4.012	393.437	11.1	-1.48	17.6213	5.394	955.0	2.22	Outcome2	-2.95	11.1	3348.5	Yes		14.0509626274066				ISIRate	Loss
16.0	1	236.905	0.022	398.853	11.48	5.74	19.0563	3.0	955.0	3.16	Outcome2	13.7	11.48	0.0	No	2.0	-2.2210268025670095	0.923	237.828		GetAnswer	Loss
16.0	1	237.842	0.014	399.79	11.48	5.74	19.0563	4.0	955.0	3.16	Outcome2	13.7	11.48	0.0	No		-2.2210268025670095				ShowChoice	Loss
16.0	1	241.854	0.012	403.802	11.48	5.74	19.0563	1.0	955.0	3.16	Outcome2	13.7	11.48	0.0	No		-2.2210268025670095				ShowResult	Loss
16.0	1	242.873	0.019	404.821	11.48	5.74	19.0563	3.008	955.0	3.16	Outcome2	13.7	11.48	0.0	No		-2.2210268025670095				ISITrial	Loss
17.0	1	245.899	0.018	407.847	0.0	0.0	19.0563	3.0	955.0	3.6	Certain	-6.43	7.9	3041.5	Yes	4.0	14.3295583238958	1.821	247.72		GetAnswer	Gain
17.0	1	247.738	0.018	409.686	0.0	0.0	19.0563	4.0	955.0	3.6	Certain	-6.43	7.9	3041.5	Yes		14.3295583238958				ShowChoice	Gain
17.0	1	251.75	0.012	413.698	0.0	0.0	19.0563	1.0	955.0	3.6	Certain	-6.43	7.9	3041.5	Yes		14.3295583238958				ShowResult	Gain
17.0	1	252.77	0.02	414.718	0.0	0.0	19.0563	3.566	955.0	3.6	Certain	-6.43	7.9	3041.5	Yes		14.3295583238958				ISITrial	Gain
17.0	1	259.406	0.017	421.354	0.0	0.0	19.0563	1.985	955.0	3.6	Certain	-6.43	7.9	3041.5	Yes		14.3295583238958			528.0	TrialHappiness	Gain
17.0	1	263.418	4.012	425.366	0.0	0.0	19.0563	4.166	955.0	3.6	Certain	-6.43	7.9	3041.5	Yes		14.3295583238958				ISIRate	Gain
18.0	1	267.614	0.03	429.562	-1.0	-1.0	18.9313	3.0	955.0	3.6	Certain	5.9	-9.29	0.0	No	4.0	15.193657984145	1.566	269.18		GetAnswer	Gain
18.0	1	269.202	0.022	431.15	-1.0	-1.0	18.9313	4.0	955.0	3.6	Certain	5.9	-9.29	0.0	No		15.193657984145				ShowChoice	Gain
18.0	1	273.214	0.012	435.162	-1.0	-1.0	18.9313	1.0	955.0	3.6	Certain	5.9	-9.29	0.0	No		15.193657984145				ShowResult	Gain
18.0	1	274.234	0.02	436.182	-1.0	-1.0	18.9313	6.787	955.0	3.6	Certain	5.9	-9.29	0.0	No		15.193657984145				ISITrial	Gain
19.0	1	281.038	0.017	442.986	1.0	1.0	19.0563	3.0	955.0	2.0	Certain	-6.78	8.9	0.0	No	4.0	15.6772366930917	1.446	282.484		GetAnswer	Gain
19.0	1	282.509	0.025	444.457	1.0	1.0	19.0563	4.0	955.0	2.0	Certain	-6.78	8.9	0.0	No		15.6772366930917				ShowChoice	Gain
19.0	1	286.521	0.012	448.469	1.0	1.0	19.0563	1.0	955.0	2.0	Certain	-6.78	8.9	0.0	No		15.6772366930917				ShowResult	Gain
19.0	1	287.54	0.019	449.488	1.0	1.0	19.0563	2.0	955.0	2.0	Certain	-6.78	8.9	0.0	No		15.6772366930917				ISITrial	Gain
20.0	1	289.563	0.023	451.511	10.1	2.0	20.3188	3.0	955.0	4.2	Outcome2	-6.06	10.1	2921.25	Yes	2.0	16.1608154020385	1.466	291.029		GetAnswer	Gain
20.0	1	291.051	0.022	452.999	10.1	2.0	20.3188	4.0	955.0	4.2	Outcome2	-6.06	10.1	2921.25	Yes		16.1608154020385				ShowChoice	Gain
20.0	1	295.063	0.012	457.011	10.1	2.0	20.3188	1.0	955.0	4.2	Outcome2	-6.06	10.1	2921.25	Yes		16.1608154020385				ShowResult	Gain
20.0	1	296.083	0.02	458.031	10.1	2.0	20.3188	8.0	955.0	4.2	Outcome2	-6.06	10.1	2921.25	Yes		16.1608154020385				ISITrial	Gain
20.0	1	307.049	0.021	468.997	10.1	2.0	20.3188	1.746	955.0	4.2	Outcome2	-6.06	10.1	2921.25	Yes	2{-2}2{-2}	16.1608154020385	1.746	308.795	536.0	TrialHappiness	Gain
20.0	1	311.061	4.012	473.009	10.1	2.0	20.3188	3.685	955.0	4.2	Outcome2	-6.06	10.1	2921.25	Yes		16.1608154020385				ISIRate	Gain
21.0	1	314.772	0.026	476.72	1.0	1.0	20.4438	3.0	955.0	2.22	Certain	-7.41	9.1	0.0	No	4.0	16.5084937712344	1.436	316.208		GetAnswer	Gain
21.0	1	316.226	0.018	478.174	1.0	1.0	20.4438	4.0	955.0	2.22	Certain	-7.41	9.1	0.0	No		16.5084937712344				ShowChoice	Gain
21.0	1	320.238	0.012	482.186	1.0	1.0	20.4438	1.0	955.0	2.22	Certain	-7.41	9.1	0.0	No		16.5084937712344				ShowResult	Gain
21.0	1	321.258	0.02	483.206	1.0	1.0	20.4438	3.555	955.0	2.22	Certain	-7.41	9.1	0.0	No		16.5084937712344				ISITrial	Gain
22.0	1	324.835	0.022	486.783	12.5	-2.24	22.0063	3.0	955.0	1.68	Outcome2	-4.48	12.5	3219.5	Yes	2.0	16.9830124575311	1.794	326.629		GetAnswer	Loss
22.0	1	326.641	0.012	488.589	12.5	-2.24	22.0063	4.0	955.0	1.68	Outcome2	-4.48	12.5	3219.5	Yes		16.9830124575311				ShowChoice	Loss
22.0	1	330.653	0.012	492.601	12.5	-2.24	22.0063	1.0	955.0	1.68	Outcome2	-4.48	12.5	3219.5	Yes		16.9830124575311				ShowResult	Loss
22.0	1	331.672	0.019	493.62	12.5	-2.24	22.0063	6.793	955.0	1.68	Outcome2	-4.48	12.5	3219.5	Yes		16.9830124575311				ISITrial	Loss
22.0	1	341.719	0.023	503.667	12.5	-2.24	22.0063	0.877	955.0	1.68	Outcome2	-4.48	12.5	3219.5	Yes		16.9830124575311			544.0	TrialHappiness	Loss
22.0	1	345.731	4.012	507.679	12.5	-2.24	22.0063	4.878	955.0	1.68	Outcome2	-4.48	12.5	3219.5	Yes		16.9830124575311				ISIRate	Loss
23.0	1	350.629	0.02	512.577	-0.83	0.0	21.9025	3.0	955.0	1.0	Outcome2	1.7	-0.83	0.0	No	2.0	-2.5295394488486203	1.449	352.078		GetAnswer	Mixed
23.0	1	352.1	0.022	514.048	-0.83	0.0	21.9025	4.0	955.0	1.0	Outcome2	1.7	-0.83	0.0	No		-2.5295394488486203				ShowChoice	Mixed
23.0	1	356.112	0.012	518.06	-0.83	0.0	21.9025	1.0	955.0	1.0	Outcome2	1.7	-0.83	0.0	No		-2.5295394488486203				ShowResult	Mixed
23.0	1	357.132	0.02	519.08	-0.83	0.0	21.9025	8.0	955.0	1.0	Outcome2	1.7	-0.83	0.0	No		-2.5295394488486203				ISITrial	Mixed
24.0	1	365.156	0.024	527.104	-2.0	-2.0	21.6525	3.0	955.0	2.0	Certain	-10.89	6.9	3255.0	Yes	4.0	17.7870894677237	1.655	366.811		GetAnswer	Gain
24.0	1	366.828	0.017	528.776	-2.0	-2.0	21.6525	4.0	955.0	2.0	Certain	-10.89	6.9	3255.0	Yes		17.7870894677237				ShowChoice	Gain
24.0	1	370.84	0.012	532.788	-2.0	-2.0	21.6525	1.0	955.0	2.0	Certain	-10.89	6.9	3255.0	Yes		17.7870894677237				ShowResult	Gain
24.0	1	371.859	0.019	533.807	-2.0	-2.0	21.6525	2.0	955.0	2.0	Certain	-10.89	6.9	3255.0	Yes		17.7870894677237				ISITrial	Gain
24.0	1	377.159	0.022	539.107	-2.0	-2.0	21.6525	0.0	955.0	2.0	Certain	-10.89	6.9	3255.0	Yes		17.7870894677237			512.0	TrialHappiness	Gain
24.0	1	381.171	4.012	543.119	-2.0	-2.0	21.6525	5.02	955.0	2.0	Certain	-10.89	6.9	3255.0	Yes		17.7870894677237				ISIRate	Gain
25.0	1	386.219	0.028	548.167	-5.0	-5.0	21.0275	3.0	955.0	1.5	Certain	4.1	-14.7	0.0	No	4.0	18.7961494903737	1.436	387.655		GetAnswer	Mixed
25.0	1	387.673	0.018	549.621	-5.0	-5.0	21.0275	4.0	955.0	1.5	Certain	4.1	-14.7	0.0	No		18.7961494903737				ShowChoice	Mixed
25.0	1	391.685	0.012	553.633	-5.0	-5.0	21.0275	1.0	955.0	1.5	Certain	4.1	-14.7	0.0	No		18.7961494903737				ShowResult	Mixed
25.0	1	392.705	0.02	554.653	-5.0	-5.0	21.0275	3.749	955.0	1.5	Certain	4.1	-14.7	0.0	No		18.7961494903737				ISITrial	Mixed
26.0	1	396.483	0.029	558.431	5.32	2.66	21.6925	3.0	955.0	4.2	Outcome2	8.1	5.32	0.0	No	2.0	-2.7787844469611205	0.982	397.465		GetAnswer	Gain
26.0	1	397.486	0.021	559.434	5.32	2.66	21.6925	4.0	955.0	4.2	Outcome2	8.1	5.32	0.0	No		-2.7787844469611205				ShowChoice	Gain
26.0	1	401.498	0.012	563.446	5.32	2.66	21.6925	1.0	955.0	4.2	Outcome2	8.1	5.32	0.0	No		-2.7787844469611205				ShowResult	Gain
26.0	1	402.518	0.02	564.466	5.32	2.66	21.6925	7.834	955.0	4.2	Outcome2	8.1	5.32	0.0	No		-2.7787844469611205				ISITrial	Gain
27.0	1	410.375	0.023	572.323	2.0	2.0	21.9425	3.0	955.0	5.0	Certain	-7.5	12.3	2549.75	Yes	4.0	19.7995469988675	1.268	411.643		GetAnswer	Loss
27.0	1	411.662	0.019	573.61	2.0	2.0	21.9425	4.0	955.0	5.0	Certain	-7.5	12.3	2549.75	Yes		19.7995469988675				ShowChoice	Loss
27.0	1	415.674	0.012	577.622	2.0	2.0	21.9425	1.0	955.0	5.0	Certain	-7.5	12.3	2549.75	Yes		19.7995469988675				ShowResult	Loss
27.0	1	416.694	0.02	578.642	2.0	2.0	21.9425	4.225	955.0	5.0	Certain	-7.5	12.3	2549.75	Yes		19.7995469988675				ISITrial	Loss
27.0	1	423.514	0.024	585.462	2.0	2.0	21.9425	0.0	955.0	5.0	Certain	-7.5	12.3	2549.75	Yes		19.7995469988675			512.0	TrialHappiness	Loss
27.0	1	427.526	4.012	589.474	2.0	2.0	21.9425	2.199	955.0	5.0	Certain	-7.5	12.3	2549.75	Yes		19.7995469988675				ISIRate	Loss
	1	429.749	0.024	591.697				-0.001								{SPACE}		13.394	443.143		Rest	
	1	443.156	0.013	605.104				4.0													BlockHappyPreview	
	1	447.168	0.012	609.116				3.066												592.0	BlockStartHappiness	
	1	467.73	0.011	629.678				-0.001								5.0		2.981	470.711		ScanWait	
	2	0.011	0.011	632.67				10.0													GetReady	
28.0	2	10.024	0.013	642.683	4.22	2.11	22.47	3.0	70.0	2.22	Outcome1	4.22	13.1	0.0	No	2.0	-8.877551020408161	0.926	10.95		GetAnswer	Loss
28.0	2	10.977	0.027	643.636	4.22	2.11	22.47	4.0	70.0	2.22	Outcome1	4.22	13.1	0.0	No		-8.877551020408161				ShowChoice	Loss
28.0	2	14.989	0.012	647.648	4.22	2.11	22.47	1.0	70.0	2.22	Outcome1	4.22	13.1	0.0	No		-8.877551020408161				ShowResult	Loss
28.0	2	16.009	0.02	648.668	4.22	2.11	22.47	3.575	70.0	2.22	Outcome1	4.22	13.1	0.0	No		-8.877551020408161				ISITrial	Loss
29.0	2	19.603	0.019	652.262	-2.0	-2.0	22.22	3.0	70.0	2.0	Certain	2.3	-7.17	3529.0	Yes	4.0	-9.469387755102039	1.596	21.199		GetAnswer	Mixed
29.0	2	21.224	0.025	653.883	-2.0	-2.0	22.22	4.0	70.0	2.0	Certain	2.3	-7.17	3529.0	Yes		-9.469387755102039				ShowChoice	Mixed
29.0	2	25.236	0.012	657.895	-2.0	-2.0	22.22	1.0	70.0	2.0	Certain	2.3	-7.17	3529.0	Yes		-9.469387755102039				ShowResult	Mixed
29.0	2	26.256	0.02	658.915	-2.0	-2.0	22.22	3.955	70.0	2.0	Certain	2.3	-7.17	3529.0	Yes		-9.469387755102039				ISITrial	Mixed
29.0	2	33.779	0.015	666.438	-2.0	-2.0	22.22	3.427	70.0	2.0	Certain	2.3	-7.17	3529.0	Yes		-9.469387755102039			492.0	TrialHappiness	Mixed
29.0	2	37.791	4.012	670.45	-2.0	-2.0	22.22	6.116	70.0	2.0	Certain	2.3	-7.17	3529.0	Yes		-9.469387755102039				ISIRate	Mixed
30.0	2	43.926	0.019	676.585	-9.26	-5.0	21.0625	3.0	70.0	0.52	Outcome1	-9.26	-0.9	0.0	No	2.0	-8.360544217687071	1.758	45.684		GetAnswer	Mixed
30.0	2	45.698	0.014	678.357	-9.26	-5.0	21.0625	4.0	70.0	0.52	Outcome1	-9.26	-0.9	0.0	No		-8.360544217687071				ShowChoice	Mixed
30.0	2	49.71	0.012	682.369	-9.26	-5.0	21.0625	1.0	70.0	0.52	Outcome1	-9.26	-0.9	0.0	No		-8.360544217687071				ShowResult	Mixed
30.0	2	50.729	0.019	683.388	-9.26	-5.0	21.0625	4.453	70.0	0.52	Outcome1	-9.26	-0.9	0.0	No		-8.360544217687071				ISITrial	Mixed
31.0	2	55.21	0.028	687.869	-1.0	-1.0	20.9375	3.0	70.0	0.82	Certain	3.5	-5.34	2503.25	Yes	4.0	-8.839002267573699	1.657	56.867		GetAnswer	Mixed
31.0	2	56.881	0.014	689.54	-1.0	-1.0	20.9375	4.0	70.0	0.82	Certain	3.5	-5.34	2503.25	Yes		-8.839002267573699				ShowChoice	Mixed
31.0	2	60.893	0.012	693.552	-1.0	-1.0	20.9375	1.0	70.0	0.82	Certain	3.5	-5.34	2503.25	Yes		-8.839002267573699				ShowResult	Mixed
31.0	2	61.913	0.02	694.572	-1.0	-1.0	20.9375	4.786	70.0	0.82	Certain	3.5	-5.34	2503.25	Yes		-8.839002267573699				ISITrial	Mixed
31.0	2	69.235	0.021	701.894	-1.0	-1.0	20.9375	0.0	70.0	0.82	Certain	3.5	-5.34	2503.25	Yes		-8.839002267573699			512.0	TrialHappiness	Mixed
31.0	2	73.247	4.012	705.906	-1.0	-1.0	20.9375	2.013	70.0	0.82	Certain	3.5	-5.34	2503.25	Yes		-8.839002267573699				ISIRate	Mixed
32.0	2	75.286	0.026	707.945	-1.96	-0.98	20.6925	3.0	70.0	3.16	Outcome2	7.7	-1.96	0.0	No	2.0	-9.65759637188209	1.198	76.484		GetAnswer	Gain
32.0	2	76.507	0.023	709.166	-1.96	-0.98	20.6925	4.0	70.0	3.16	Outcome2	7.7	-1.96	0.0	No		-9.65759637188209				ShowChoice	Gain
32.0	2	80.519	0.012	713.178	-1.96	-0.98	20.6925	1.0	70.0	3.16	Outcome2	7.7	-1.96	0.0	No		-9.65759637188209				ShowResult	Gain
32.0	2	81.538	0.019	714.197	-1.96	-0.98	20.6925	2.0	70.0	3.16	Outcome2	7.7	-1.96	0.0	No		-9.65759637188209				ISITrial	Gain
33.0	2	83.561	0.023	716.22	0.0	0.0	20.6925	3.0	70.0	0.66	Certain	-1.7	0.32	0.0	No	4.0	2.01587301587302	1.478	85.039		GetAnswer	Mixed
33.0	2	85.066	0.027	717.725	0.0	0.0	20.6925	4.0	70.0	0.66	Certain	-1.7	0.32	0.0	No		2.01587301587302				ShowChoice	Mixed
33.0	2	89.078	0.012	721.737	0.0	0.0	20.6925	1.0	70.0	0.66	Certain	-1.7	0.32	0.0	No		2.01587301587302				ShowResult	Mixed
33.0	2	90.097	0.019	722.756	0.0	0.0	20.6925	5.099	70.0	0.66	Certain	-1.7	0.32	0.0	No		2.01587301587302				ISITrial	Mixed
34.0	2	95.213	0.017	727.872	2.64	1.32	21.0225	3.0	70.0	2.48	Outcome2	13.3	2.64	3231.5	Yes	2.0	-10.6598639455782	1.005	96.218		GetAnswer	Loss
34.0	2	96.232	0.014	728.891	2.64	1.32	21.0225	4.0	70.0	2.48	Outcome2	13.3	2.64	3231.5	Yes		-10.6598639455782				ShowChoice	Loss
34.0	2	100.244	0.012	732.903	2.64	1.32	21.0225	1.0	70.0	2.48	Outcome2	13.3	2.64	3231.5	Yes		-10.6598639455782				ShowResult	Loss
34.0	2	101.264	0.02	733.923	2.64	1.32	21.0225	4.784	70.0	2.48	Outcome2	13.3	2.64	3231.5	Yes		-10.6598639455782				ISITrial	Loss
34.0	2	109.322	0.028	741.981	2.64	1.32	21.0225	0.0	70.0	2.48	Outcome2	13.3	2.64	3231.5	Yes		-10.6598639455782			512.0	TrialHappiness	Loss
34.0	2	113.334	4.012	745.993	2.64	1.32	21.0225	4.926	70.0	2.48	Outcome2	13.3	2.64	3231.5	Yes		-10.6598639455782				ISIRate	Loss
35.0	2	118.282	0.022	750.941	-2.46	-1.23	20.715	3.0	70.0	1.82	Outcome2	8.7	-2.46	0.0	No	2.0	-11.1609977324263	1.649	119.931		GetAnswer	Gain
35.0	2	119.953	0.022	752.612	-2.46	-1.23	20.715	4.0	70.0	1.82	Outcome2	8.7	-2.46	0.0	No		-11.1609977324263				ShowChoice	Gain
35.0	2	123.965	0.012	756.624	-2.46	-1.23	20.715	1.0	70.0	1.82	Outcome2	8.7	-2.46	0.0	No		-11.1609977324263				ShowResult	Gain
35.0	2	124.985	0.02	757.644	-2.46	-1.23	20.715	2.098	70.0	1.82	Outcome2	8.7	-2.46	0.0	No		-11.1609977324263				ISITrial	Gain
36.0	2	127.108	0.025	759.767	0.22	-1.0	20.7425	3.0	70.0	0.4	Outcome1	0.22	-1.92	3335.75	Yes	2.0	2.14115646258503	2.406	129.514		GetAnswer	Mixed
36.0	2	129.532	0.018	762.191	0.22	-1.0	20.7425	4.0	70.0	0.4	Outcome1	0.22	-1.92	3335.75	Yes		2.14115646258503				ShowChoice	Mixed
36.0	2	133.544	0.012	766.203	0.22	-1.0	20.7425	1.0	70.0	0.4	Outcome1	0.22	-1.92	3335.75	Yes		2.14115646258503				ShowResult	Mixed
36.0	2	134.564	0.02	767.223	0.22	-1.0	20.7425	5.156	70.0	0.4	Outcome1	0.22	-1.92	3335.75	Yes		2.14115646258503				ISITrial	Mixed
36.0	2	143.106	0.024	775.765	0.22	-1.0	20.7425	0.0	70.0	0.4	Outcome1	0.22	-1.92	3335.75	Yes		2.14115646258503			512.0	TrialHappiness	Mixed
36.0	2	147.118	4.012	779.777	0.22	-1.0	20.7425	5.343	70.0	0.4	Outcome1	0.22	-1.92	3335.75	Yes		2.14115646258503				ISIRate	Mixed
37.0	2	152.484	0.023	785.143	-1.66	-0.83	20.535	3.0	70.0	1.68	Outcome2	10.5	-1.66	0.0	No	2.0	-12.163265306122401	1.435	153.919		GetAnswer	Loss
37.0	2	153.938	0.019	786.597	-1.66	-0.83	20.535	4.0	70.0	1.68	Outcome2	10.5	-1.66	0.0	No		-12.163265306122401				ShowChoice	Loss
37.0	2	157.95	0.012	790.609	-1.66	-0.83	20.535	1.0	70.0	1.68	Outcome2	10.5	-1.66	0.0	No		-12.163265306122401				ShowResult	Loss
37.0	2	158.97	0.02	791.629	-1.66	-0.83	20.535	3.598	70.0	1.68	Outcome2	10.5	-1.66	0.0	No		-12.163265306122401				ISITrial	Loss
38.0	2	162.598	0.03	795.257	0.0	0.0	20.535	3.0	70.0	5.0	Certain	6.3	-6.36	0.0	No	4.0	-12.6643990929705	1.538	164.136		GetAnswer	Gain
38.0	2	164.152	0.016	796.811	0.0	0.0	20.535	4.0	70.0	5.0	Certain	6.3	-6.36	0.0	No		-12.6643990929705				ShowChoice	Gain
38.0	2	168.164	0.012	800.823	0.0	0.0	20.535	1.0	70.0	5.0	Certain	6.3	-6.36	0.0	No		-12.6643990929705				ShowResult	Gain
38.0	2	169.184	0.02	801.843	0.0	0.0	20.535	4.787	70.0	5.0	Certain	6.3	-6.36	0.0	No		-12.6643990929705				ISITrial	Gain
39.0	2	173.998	0.027	806.657	-1.0	-1.0	20.41	3.0	70.0	0.2	Certain	-2.65	-0.38	2864.25	Yes	4.0	2.2664399092970497	1.415	175.413		GetAnswer	Mixed
39.0	2	175.436	0.023	808.095	-1.0	-1.0	20.41	4.0	70.0	0.2	Certain	-2.65	-0.38	2864.25	Yes		2.2664399092970497				ShowChoice	Mixed
39.0	2	179.448	0.012	812.107	-1.0	-1.0	20.41	1.0	70.0	0.2	Certain	-2.65	-0.38	2864.25	Yes		2.2664399092970497				ShowResult	Mixed
39.0	2	180.468	0.02	813.127	-1.0	-1.0	20.41	2.348	70.0	0.2	Certain	-2.65	-0.38	2864.25	Yes		2.2664399092970497				ISITrial	Mixed
39.0	2	185.734	0.028	818.393	-1.0	-1.0	20.41	0.0	70.0	0.2	Certain	-2.65	-0.38	2864.25	Yes		2.2664399092970497			512.0	TrialHappiness	Mixed
39.0	2	189.746	4.012	822.405	-1.0	-1.0	20.41	3.457	70.0	0.2	Certain	-2.65	-0.38	2864.25	Yes		2.2664399092970497				ISIRate	Mixed
40.0	2	193.223	0.02	825.882	1.38	0.0	20.5825	3.0	70.0	2.8	Outcome2	-0.93	1.38	0.0	No	2.0	2.30820105820106	1.494	194.717		GetAnswer	Gain
40.0	2	194.744	0.027	827.403	1.38	0.0	20.5825	4.0	70.0	2.8	Outcome2	-0.93	1.38	0.0	No		2.30820105820106				ShowChoice	Gain
40.0	2	198.756	0.012	831.415	1.38	0.0	20.5825	1.0	70.0	2.8	Outcome2	-0.93	1.38	0.0	No		2.30820105820106				ShowResult	Gain
40.0	2	199.776	0.02	832.435	1.38	0.0	20.5825	3.158	70.0	2.8	Outcome2	-0.93	1.38	0.0	No		2.30820105820106				ISITrial	Gain
41.0	2	202.952	0.018	835.611	-7.0	-7.0	19.7075	3.0	70.0	1.0	Certain	-0.3	-14.47	4000.0	Yes	4.0	-14.1678004535147	2.478	205.43		GetAnswer	Mixed
41.0	2	205.443	0.013	838.102	-7.0	-7.0	19.7075	4.0	70.0	1.0	Certain	-0.3	-14.47	4000.0	Yes		-14.1678004535147				ShowChoice	Mixed
41.0	2	209.455	0.012	842.114	-7.0	-7.0	19.7075	1.0	70.0	1.0	Certain	-0.3	-14.47	4000.0	Yes		-14.1678004535147				ShowResult	Mixed
41.0	2	210.474	0.019	843.133	-7.0	-7.0	19.7075	4.506	70.0	1.0	Certain	-0.3	-14.47	4000.0	Yes		-14.1678004535147				ISITrial	Mixed
41.0	2	219.033	0.028	851.692	-7.0	-7.0	19.7075	0.0	70.0	1.0	Certain	-0.3	-14.47	4000.0	Yes		-14.1678004535147			512.0	TrialHappiness	Mixed
41.0	2	223.045	4.012	855.704	-7.0	-7.0	19.7075	8.0	70.0	1.0	Certain	-0.3	-14.47	4000.0	Yes		-14.1678004535147				ISIRate	Mixed
42.0	2	231.069	0.024	863.728	2.0	2.0	19.9575	3.0	70.0	2.48	Certain	-5.37	9.3	0.0	No	4.0	-14.668934240362802	1.943	233.012		GetAnswer	Gain
42.0	2	233.025	0.013	865.684	2.0	2.0	19.9575	4.0	70.0	2.48	Certain	-5.37	9.3	0.0	No		-14.668934240362802				ShowChoice	Gain
42.0	2	237.037	0.012	869.696	2.0	2.0	19.9575	1.0	70.0	2.48	Certain	-5.37	9.3	0.0	No		-14.668934240362802				ShowResult	Gain
42.0	2	238.057	0.02	870.716	2.0	2.0	19.9575	6.248	70.0	2.48	Certain	-5.37	9.3	0.0	No		-14.668934240362802				ISITrial	Gain
43.0	2	244.326	0.021	876.985	-4.0	-4.0	19.4575	3.0	70.0	0.4	Certain	2.9	-12.27	2775.75	Yes	4.0	-15.1700680272109	1.955	246.281		GetAnswer	Mixed
43.0	2	246.298	0.017	878.957	-4.0	-4.0	19.4575	4.0	70.0	0.4	Certain	2.9	-12.27	2775.75	Yes		-15.1700680272109				ShowChoice	Mixed
43.0	2	250.31	0.012	882.969	-4.0	-4.0	19.4575	1.0	70.0	0.4	Certain	2.9	-12.27	2775.75	Yes		-15.1700680272109				ShowResult	Mixed
43.0	2	251.33	0.02	883.989	-4.0	-4.0	19.4575	4.596	70.0	0.4	Certain	2.9	-12.27	2775.75	Yes		-15.1700680272109				ISITrial	Mixed
43.0	2	258.735	0.015	891.394	-4.0	-4.0	19.4575	0.0	70.0	0.4	Certain	2.9	-12.27	2775.75	Yes		-15.1700680272109			512.0	TrialHappiness	Mixed
43.0	2	262.747	4.012	895.406	-4.0	-4.0	19.4575	3.103	70.0	0.4	Certain	2.9	-12.27	2775.75	Yes		-15.1700680272109				ISIRate	Mixed
44.0	2	265.873	0.023	898.532	1.23	0.0	19.6113	3.0	70.0	2.0	Outcome2	-1.25	1.23	0.0	No	2.0	2.47524565381708	1.492	267.365		GetAnswer	Gain
44.0	2	267.378	0.013	900.037	1.23	0.0	19.6113	4.0	70.0	2.0	Outcome2	-1.25	1.23	0.0	No		2.47524565381708				ShowChoice	Gain
44.0	2	271.39	0.012	904.049	1.23	0.0	19.6113	1.0	70.0	2.0	Outcome2	-1.25	1.23	0.0	No		2.47524565381708				ShowResult	Gain
44.0	2	272.41	0.02	905.069	1.23	0.0	19.6113	2.42	70.0	2.0	Outcome2	-1.25	1.23	0.0	No		2.47524565381708				ISITrial	Gain
45.0	2	274.85	0.02	907.509	-5.0	-5.0	18.9863	3.0	70.0	0.3	Certain	2.7	-13.47	0.0	No	4.0	-16.172335600906997	1.86	276.71		GetAnswer	Mixed
45.0	2	276.723	0.013	909.382	-5.0	-5.0	18.9863	4.0	70.0	0.3	Certain	2.7	-13.47	0.0	No		-16.172335600906997				ShowChoice	Mixed
45.0	2	280.735	0.012	913.394	-5.0	-5.0	18.9863	1.0	70.0	0.3	Certain	2.7	-13.47	0.0	No		-16.172335600906997				ShowResult	Mixed
45.0	2	281.754	0.019	914.413	-5.0	-5.0	18.9863	3.144	70.0	0.3	Certain	2.7	-13.47	0.0	No		-16.172335600906997				ISITrial	Mixed
46.0	2	284.914	0.016	917.573	2.0	2.0	19.2363	3.0	70.0	2.0	Certain	10.9	-5.77	3841.25	Yes	4.0	-16.6734693877551	1.536	286.45		GetAnswer	Loss
46.0	2	286.468	0.018	919.127	2.0	2.0	19.2363	4.0	70.0	2.0	Certain	10.9	-5.77	3841.25	Yes		-16.6734693877551				ShowChoice	Loss
46.0	2	290.48	0.012	923.139	2.0	2.0	19.2363	1.0	70.0	2.0	Certain	10.9	-5.77	3841.25	Yes		-16.6734693877551				ShowResult	Loss
46.0	2	291.5	0.02	924.159	2.0	2.0	19.2363	2.246	70.0	2.0	Certain	10.9	-5.77	3841.25	Yes		-16.6734693877551				ISITrial	Loss
46.0	2	297.618	0.02	930.277	2.0	2.0	19.2363	0.0	70.0	2.0	Certain	10.9	-5.77	3841.25	Yes		-16.6734693877551			512.0	TrialHappiness	Loss
46.0	2	301.63	4.012	934.289	2.0	2.0	19.2363	7.365	70.0	2.0	Certain	10.9	-5.77	3841.25	Yes		-16.6734693877551				ISIRate	Loss
47.0	2	309.019	0.024	941.678	-3.67	-1.84	18.7775	3.0	70.0	2.8	Outcome2	13.5	-3.67	0.0	No	2.0	-17.1746031746032	1.409	310.428		GetAnswer	Loss
47.0	2	310.457	0.029	943.116	-3.67	-1.84	18.7775	4.0	70.0	2.8	Outcome2	13.5	-3.67	0.0	No		-17.1746031746032				ShowChoice	Loss
47.0	2	314.469	0.012	947.128	-3.67	-1.84	18.7775	1.0	70.0	2.8	Outcome2	13.5	-3.67	0.0	No		-17.1746031746032				ShowResult	Loss
47.0	2	315.489	0.02	948.148	-3.67	-1.84	18.7775	2.0	70.0	2.8	Outcome2	13.5	-3.67	0.0	No		-17.1746031746032				ISITrial	Loss
48.0	2	317.511	0.022	950.17	2.0	2.0	19.0275	3.0	70.0	1.82	Certain	10.7	-6.98	2831.75	Yes	4.0	-17.6757369614512	1.175	318.686		GetAnswer	Loss
48.0	2	318.698	0.012	951.357	2.0	2.0	19.0275	4.0	70.0	1.82	Certain	10.7	-6.98	2831.75	Yes		-17.6757369614512				ShowChoice	Loss
48.0	2	322.71	0.012	955.369	2.0	2.0	19.0275	1.0	70.0	1.82	Certain	10.7	-6.98	2831.75	Yes		-17.6757369614512				ShowResult	Loss
48.0	2	323.73	0.02	956.389	2.0	2.0	19.0275	3.692	70.0	1.82	Certain	10.7	-6.98	2831.75	Yes		-17.6757369614512				ISITrial	Loss
48.0	2	330.3	0.027	962.959	2.0	2.0	19.0275	0.0	70.0	1.82	Certain	10.7	-6.98	2831.75	Yes		-17.6757369614512			512.0	TrialHappiness	Loss
48.0	2	334.312	4.012	966.971	2.0	2.0	19.0275	3.327	70.0	1.82	Certain	10.7	-6.98	2831.75	Yes		-17.6757369614512				ISIRate	Loss
49.0	2	337.655	0.016	970.314	-4.28	-2.14	18.4925	3.0	70.0	3.6	Outcome2	13.9	-4.28	0.0	No	2.0	-18.1768707482993	1.953	339.608		GetAnswer	Loss
49.0	2	339.628	0.02	972.287	-4.28	-2.14	18.4925	4.0	70.0	3.6	Outcome2	13.9	-4.28	0.0	No		-18.1768707482993				ShowChoice	Loss
49.0	2	343.64	0.012	976.299	-4.28	-2.14	18.4925	1.0	70.0	3.6	Outcome2	13.9	-4.28	0.0	No		-18.1768707482993				ShowResult	Loss
49.0	2	344.659	0.019	977.318	-4.28	-2.14	18.4925	8.0	70.0	3.6	Outcome2	13.9	-4.28	0.0	No		-18.1768707482993				ISITrial	Loss
50.0	2	352.683	0.024	985.342	-5.98	-2.99	17.745	3.0	70.0	1.82	Outcome1	-5.98	12.7	3547.25	Yes	2.0	-18.678004535147398	2.22	354.903		GetAnswer	Loss
50.0	2	354.923	0.02	987.582	-5.98	-2.99	17.745	4.0	70.0	1.82	Outcome1	-5.98	12.7	3547.25	Yes		-18.678004535147398				ShowChoice	Loss
50.0	2	358.935	0.012	991.594	-5.98	-2.99	17.745	1.0	70.0	1.82	Outcome1	-5.98	12.7	3547.25	Yes		-18.678004535147398				ShowResult	Loss
50.0	2	359.955	0.02	992.614	-5.98	-2.99	17.745	7.537	70.0	1.82	Outcome1	-5.98	12.7	3547.25	Yes		-18.678004535147398				ISITrial	Loss
50.0	2	371.072	0.014	1003.731	-5.98	-2.99	17.745	1.979	70.0	1.82	Outcome1	-5.98	12.7	3547.25	Yes		-18.678004535147398			448.0	TrialHappiness	Loss
50.0	2	375.084	4.012	1007.743	-5.98	-2.99	17.745	6.189	70.0	1.82	Outcome1	-5.98	12.7	3547.25	Yes		-18.678004535147398				ISIRate	Loss
51.0	2	381.302	0.029	1013.961	-13.59	-4.0	16.0462	3.0	70.0	1.68	Outcome2	4.5	-13.59	0.0	No	2.0	-18.0907029478458	1.954	383.256		GetAnswer	Gain
51.0	2	383.275	0.019	1015.934	-13.59	-4.0	16.0462	4.0	70.0	1.68	Outcome2	4.5	-13.59	0.0	No		-18.0907029478458				ShowChoice	Gain
51.0	2	387.287	0.012	1019.946	-13.59	-4.0	16.0462	1.0	70.0	1.68	Outcome2	4.5	-13.59	0.0	No		-18.0907029478458				ShowResult	Gain
51.0	2	388.307	0.02	1020.966	-13.59	-4.0	16.0462	5.508	70.0	1.68	Outcome2	4.5	-13.59	0.0	No		-18.0907029478458				ISITrial	Gain
52.0	2	393.84	0.025	1026.499	-8.0	-8.0	15.0462	3.0	70.0	0.3	Certain	-17.82	0.7	0.0	No	4.0	-18.519274376417197	2.455	396.295		GetAnswer	Mixed
52.0	2	396.314	0.019	1028.973	-8.0	-8.0	15.0462	4.0	70.0	0.3	Certain	-17.82	0.7	0.0	No		-18.519274376417197				ShowChoice	Mixed
52.0	2	400.326	0.012	1032.985	-8.0	-8.0	15.0462	1.0	70.0	0.3	Certain	-17.82	0.7	0.0	No		-18.519274376417197				ShowResult	Mixed
52.0	2	401.346	0.02	1034.005	-8.0	-8.0	15.0462	5.913	70.0	0.3	Certain	-17.82	0.7	0.0	No		-18.519274376417197				ISITrial	Mixed
53.0	2	407.28	0.021	1039.939	3.22	2.0	15.4487	3.0	70.0	2.0	Outcome1	3.22	0.64	2996.75	Yes	2.0	2.5789871504157205	1.813	409.093		GetAnswer	Loss
53.0	2	409.119	0.026	1041.778	3.22	2.0	15.4487	4.0	70.0	2.0	Outcome1	3.22	0.64	2996.75	Yes		2.5789871504157205				ShowChoice	Loss
53.0	2	413.131	0.012	1045.79	3.22	2.0	15.4487	1.0	70.0	2.0	Outcome1	3.22	0.64	2996.75	Yes		2.5789871504157205				ShowResult	Loss
53.0	2	414.151	0.02	1046.81	3.22	2.0	15.4487	3.66	70.0	2.0	Outcome1	3.22	0.64	2996.75	Yes		2.5789871504157205				ISITrial	Loss
53.0	2	420.854	0.029	1053.513	3.22	2.0	15.4487	0.0	70.0	2.0	Outcome1	3.22	0.64	2996.75	Yes		2.5789871504157205			512.0	TrialHappiness	Loss
53.0	2	424.866	4.012	1057.525	3.22	2.0	15.4487	3.987	70.0	2.0	Outcome1	3.22	0.64	2996.75	Yes		2.5789871504157205				ISIRate	Loss
54.0	2	428.878	0.025	1061.537	-5.0	-5.0	14.8237	3.0	70.0	2.48	Certain	-15.16	5.3	0.0	No	4.0	-20.464852607709698	1.612	430.49		GetAnswer	Gain
54.0	2	430.516	0.026	1063.175	-5.0	-5.0	14.8237	4.0	70.0	2.48	Certain	-15.16	5.3	0.0	No		-20.464852607709698				ShowChoice	Gain
54.0	2	434.528	0.012	1067.187	-5.0	-5.0	14.8237	1.0	70.0	2.48	Certain	-15.16	5.3	0.0	No		-20.464852607709698				ShowResult	Gain
54.0	2	435.548	0.02	1068.207	-5.0	-5.0	14.8237	8.0	70.0	2.48	Certain	-15.16	5.3	0.0	No		-20.464852607709698				ISITrial	Gain
	2	443.572	0.024	1076.231				-0.001								{SPACE}		48.194	491.766		Rest	
	2	491.783	0.017	1124.442				4.0													BlockHappyPreview	
	2	495.795	0.012	1128.454				0.0												512.0	BlockStartHappiness	
	2	510.991	0.025	1143.65				-0.001								5.0		5.038	516.029		ScanWait	
	3	0.027	0.027	1148.715				10.0													GetReady	
55.0	3	10.04	0.013	1158.728	-2.0	-2.0	14.5737	3.0	955.0	1.2	Certain	1.9	-5.63	2533.25	Yes	4.0	7.52548131370328	1.56	11.6		GetAnswer	Mixed
55.0	3	11.611	0.011	1160.299	-2.0	-2.0	14.5737	4.0	955.0	1.2	Certain	1.9	-5.63	2533.25	Yes		7.52548131370328				ShowChoice	Mixed
55.0	3	15.623	0.012	1164.311	-2.0	-2.0	14.5737	1.0	955.0	1.2	Certain	1.9	-5.63	2533.25	Yes		7.52548131370328				ShowResult	Mixed
55.0	3	16.643	0.02	1165.331	-2.0	-2.0	14.5737	7.709	955.0	1.2	Certain	1.9	-5.63	2533.25	Yes		7.52548131370328				ISITrial	Mixed
55.0	3	26.924	0.025	1175.612	-2.0	-2.0	14.5737	0.0	955.0	1.2	Certain	1.9	-5.63	2533.25	Yes		7.52548131370328			512.0	TrialHappiness	Mixed
55.0	3	30.936	4.012	1179.624	-2.0	-2.0	14.5737	2.133	955.0	1.2	Certain	1.9	-5.63	2533.25	Yes		7.52548131370328				ISIRate	Mixed
56.0	3	33.092	0.023	1181.78	-3.0	-3.0	14.1987	3.0	955.0	0.52	Certain	-6.93	1.1	0.0	No	4.0	8.02718006795017	2.274	35.366		GetAnswer	Mixed
56.0	3	35.383	0.017	1184.071	-3.0	-3.0	14.1987	4.0	955.0	0.52	Certain	-6.93	1.1	0.0	No		8.02718006795017				ShowChoice	Mixed
56.0	3	39.395	0.012	1188.083	-3.0	-3.0	14.1987	1.0	955.0	0.52	Certain	-6.93	1.1	0.0	No		8.02718006795017				ShowResult	Mixed
56.0	3	40.414	0.019	1189.102	-3.0	-3.0	14.1987	4.697	955.0	0.52	Certain	-6.93	1.1	0.0	No		8.02718006795017				ISITrial	Mixed
57.0	3	45.128	0.017	1193.816	7.5	-0.52	15.1362	3.0	955.0	2.8	Outcome1	7.5	-1.03	0.0	No	2.0	8.52887882219705	1.455	46.583		GetAnswer	Gain
57.0	3	46.599	0.016	1195.287	7.5	-0.52	15.1362	4.0	955.0	2.8	Outcome1	7.5	-1.03	0.0	No		8.52887882219705				ShowChoice	Gain
57.0	3	50.611	0.012	1199.299	7.5	-0.52	15.1362	1.0	955.0	2.8	Outcome1	7.5	-1.03	0.0	No		8.52887882219705				ShowResult	Gain
57.0	3	51.631	0.02	1200.319	7.5	-0.52	15.1362	4.291	955.0	2.8	Outcome1	7.5	-1.03	0.0	No		8.52887882219705				ISITrial	Gain
58.0	3	55.944	0.022	1204.632	-1.0	-1.0	15.0112	3.0	955.0	0.52	Certain	3.1	-5.93	3045.75	Yes	4.0	9.030577576443939	1.605	57.549		GetAnswer	Mixed
58.0	3	57.566	0.017	1206.254	-1.0	-1.0	15.0112	4.0	955.0	0.52	Certain	3.1	-5.93	3045.75	Yes		9.030577576443939				ShowChoice	Mixed
58.0	3	61.578	0.012	1210.266	-1.0	-1.0	15.0112	1.0	955.0	0.52	Certain	3.1	-5.93	3045.75	Yes		9.030577576443939				ShowResult	Mixed
58.0	3	62.597	0.019	1211.285	-1.0	-1.0	15.0112	2.037	955.0	0.52	Certain	3.1	-5.93	3045.75	Yes		9.030577576443939				ISITrial	Mixed
58.0	3	67.729	0.03	1216.417	-1.0	-1.0	15.0112	1.879	955.0	0.52	Certain	3.1	-5.93	3045.75	Yes		9.030577576443939			584.0	TrialHappiness	Mixed
58.0	3	71.741	4.012	1220.429	-1.0	-1.0	15.0112	4.183	955.0	0.52	Certain	3.1	-5.93	3045.75	Yes		9.030577576443939				ISIRate	Mixed
59.0	3	75.954	0.03	1224.642	11.3	1.5	16.4237	3.0	955.0	2.48	Outcome1	11.3	2.99	0.0	No	2.0	8.30917327293318	0.926	76.88		GetAnswer	Loss
59.0	3	76.907	0.027	1225.595	11.3	1.5	16.4237	4.0	955.0	2.48	Outcome1	11.3	2.99	0.0	No		8.30917327293318				ShowChoice	Loss
59.0	3	80.919	0.012	1229.607	11.3	1.5	16.4237	1.0	955.0	2.48	Outcome1	11.3	2.99	0.0	No		8.30917327293318				ShowResult	Loss
59.0	3	81.939	0.02	1230.627	11.3	1.5	16.4237	5.064	955.0	2.48	Outcome1	11.3	2.99	0.0	No		8.30917327293318				ISITrial	Loss
60.0	3	87.02	0.017	1235.708	-5.0	-5.0	15.7987	3.0	955.0	0.82	Certain	-0.5	-9.23	3562.5	Yes	4.0	8.72933182332956	2.231	89.251		GetAnswer	Mixed
60.0	3	89.277	0.026	1237.965	-5.0	-5.0	15.7987	4.0	955.0	0.82	Certain	-0.5	-9.23	3562.5	Yes		8.72933182332956				ShowChoice	Mixed
60.0	3	93.289	0.012	1241.977	-5.0	-5.0	15.7987	1.0	955.0	0.82	Certain	-0.5	-9.23	3562.5	Yes		8.72933182332956				ShowResult	Mixed
60.0	3	94.309	0.02	1242.997	-5.0	-5.0	15.7987	8.0	955.0	0.82	Certain	-0.5	-9.23	3562.5	Yes		8.72933182332956				ISITrial	Mixed
60.0	3	105.91	0.015	1254.598	-5.0	-5.0	15.7987	0.0	955.0	0.82	Certain	-0.5	-9.23	3562.5	Yes		8.72933182332956			512.0	TrialHappiness	Mixed
60.0	3	109.922	4.012	1258.61	-5.0	-5.0	15.7987	6.25	955.0	0.82	Certain	-0.5	-9.23	3562.5	Yes		8.72933182332956				ISIRate	Mixed
61.0	3	116.191	0.019	1264.879	6.5	1.0	16.6112	3.0	955.0	1.68	Outcome1	6.5	-3.87	0.0	No	2.0	10.372593431483601	1.891	118.082		GetAnswer	Gain
61.0	3	118.097	0.015	1266.785	6.5	1.0	16.6112	4.0	955.0	1.68	Outcome1	6.5	-3.87	0.0	No		10.372593431483601				ShowChoice	Gain
61.0	3	122.109	0.012	1270.797	6.5	1.0	16.6112	1.0	955.0	1.68	Outcome1	6.5	-3.87	0.0	No		10.372593431483601				ShowResult	Gain
61.0	3	123.128	0.019	1271.816	6.5	1.0	16.6112	4.586	955.0	1.68	Outcome1	6.5	-3.87	0.0	No		10.372593431483601				ISITrial	Gain
62.0	3	127.742	0.028	1276.43	10.3	-0.28	17.8987	3.0	955.0	5.0	Outcome2	-0.57	10.3	3748.75	Yes	2.0	10.8742921857305	2.131	129.873		GetAnswer	Gain
62.0	3	129.899	0.026	1278.587	10.3	-0.28	17.8987	4.0	955.0	5.0	Outcome2	-0.57	10.3	3748.75	Yes		10.8742921857305				ShowChoice	Gain
62.0	3	133.911	0.012	1282.599	10.3	-0.28	17.8987	1.0	955.0	5.0	Outcome2	-0.57	10.3	3748.75	Yes		10.8742921857305				ShowResult	Gain
62.0	3	134.93	0.019	1283.618	10.3	-0.28	17.8987	5.212	955.0	5.0	Outcome2	-0.57	10.3	3748.75	Yes		10.8742921857305				ISITrial	Gain
62.0	3	143.941	0.029	1292.629	10.3	-0.28	17.8987	0.0	955.0	5.0	Outcome2	-0.57	10.3	3748.75	Yes		10.8742921857305			512.0	TrialHappiness	Gain
62.0	3	147.953	4.012	1296.641	10.3	-0.28	17.8987	6.995	955.0	5.0	Outcome2	-0.57	10.3	3748.75	Yes		10.8742921857305				ISIRate	Gain
63.0	3	154.974	0.026	1303.662	11.9	0.26	19.3862	3.0	955.0	3.6	Outcome1	11.9	0.52	0.0	No	2.0	11.3759909399773	1.07	156.044		GetAnswer	Loss
63.0	3	156.06	0.016	1304.748	11.9	0.26	19.3862	4.0	955.0	3.6	Outcome1	11.9	0.52	0.0	No		11.3759909399773				ShowChoice	Loss
63.0	3	160.072	0.012	1308.76	11.9	0.26	19.3862	1.0	955.0	3.6	Outcome1	11.9	0.52	0.0	No		11.3759909399773				ShowResult	Loss
63.0	3	161.092	0.02	1309.78	11.9	0.26	19.3862	5.595	955.0	3.6	Outcome1	11.9	0.52	0.0	No		11.3759909399773				ISITrial	Loss
64.0	3	166.709	0.022	1315.397	2.0	2.0	19.6362	3.0	955.0	5.0	Certain	-3.58	8.3	0.0	No	4.0	11.8776896942242	2.195	168.904		GetAnswer	Gain
64.0	3	168.916	0.012	1317.604	2.0	2.0	19.6362	4.0	955.0	5.0	Certain	-3.58	8.3	0.0	No		11.8776896942242				ShowChoice	Gain
64.0	3	172.944	0.028	1321.632	2.0	2.0	19.6362	1.0	955.0	5.0	Certain	-3.58	8.3	0.0	No		11.8776896942242				ShowResult	Gain
64.0	3	173.964	0.02	1322.652	2.0	2.0	19.6362	5.47	955.0	5.0	Certain	-3.58	8.3	0.0	No		11.8776896942242				ISITrial	Gain
65.0	3	179.464	0.03	1328.152	-6.0	-6.0	18.8862	3.0	955.0	1.5	Certain	0.1	-12.28	2996.75	Yes	4.0	12.3793884484711	1.523	180.987		GetAnswer	Mixed
65.0	3	181.002	0.015	1329.69	-6.0	-6.0	18.8862	4.0	955.0	1.5	Certain	0.1	-12.28	2996.75	Yes		12.3793884484711				ShowChoice	Mixed
65.0	3	185.014	0.012	1333.702	-6.0	-6.0	18.8862	1.0	955.0	1.5	Certain	0.1	-12.28	2996.75	Yes		12.3793884484711				ShowResult	Mixed
65.0	3	186.033	0.019	1334.721	-6.0	-6.0	18.8862	3.344	955.0	1.5	Certain	0.1	-12.28	2996.75	Yes		12.3793884484711				ISITrial	Mixed
65.0	3	192.419	0.028	1341.107	-6.0	-6.0	18.8862	0.0	955.0	1.5	Certain	0.1	-12.28	2996.75	Yes		12.3793884484711			512.0	TrialHappiness	Mixed
65.0	3	196.431	4.012	1345.119	-6.0	-6.0	18.8862	3.987	955.0	1.5	Certain	0.1	-12.28	2996.75	Yes		12.3793884484711				ISIRate	Mixed
66.0	3	200.443	0.025	1349.131	5.06	2.53	19.5187	3.0	955.0	2.48	Outcome2	7.3	5.06	0.0	No	2.0	-2.2440543601359	1.058	201.501		GetAnswer	Gain
66.0	3	201.513	0.012	1350.201	5.06	2.53	19.5187	4.0	955.0	2.48	Outcome2	7.3	5.06	0.0	No		-2.2440543601359				ShowChoice	Gain
66.0	3	205.525	0.012	1354.213	5.06	2.53	19.5187	1.0	955.0	2.48	Outcome2	7.3	5.06	0.0	No		-2.2440543601359				ShowResult	Gain
66.0	3	206.545	0.02	1355.233	5.06	2.53	19.5187	3.959	955.0	2.48	Outcome2	7.3	5.06	0.0	No		-2.2440543601359				ISITrial	Gain
67.0	3	210.523	0.019	1359.211	0.0	0.0	19.5187	3.0	955.0	1.82	Certain	-6.68	6.7	2918.5	Yes	4.0	13.3827859569649	2.103	212.626		GetAnswer	Gain
67.0	3	212.646	0.02	1361.334	0.0	0.0	19.5187	4.0	955.0	1.82	Certain	-6.68	6.7	2918.5	Yes		13.3827859569649				ShowChoice	Gain
67.0	3	216.658	0.012	1365.346	0.0	0.0	19.5187	1.0	955.0	1.82	Certain	-6.68	6.7	2918.5	Yes		13.3827859569649				ShowResult	Gain
67.0	3	217.678	0.02	1366.366	0.0	0.0	19.5187	4.199	955.0	1.82	Certain	-6.68	6.7	2918.5	Yes		13.3827859569649				ISITrial	Gain
67.0	3	224.833	0.024	1373.521	0.0	0.0	19.5187	0.0	955.0	1.82	Certain	-6.68	6.7	2918.5	Yes		13.3827859569649			512.0	TrialHappiness	Gain
67.0	3	228.845	4.012	1377.533	0.0	0.0	19.5187	3.674	955.0	1.82	Certain	-6.68	6.7	2918.5	Yes		13.3827859569649				ISIRate	Gain
68.0	3	232.539	0.02	1381.227	-3.0	-3.0	19.1437	3.0	955.0	1.2	Certain	3.9	-9.98	0.0	No	4.0	13.884484711211801	2.459	234.998		GetAnswer	Mixed
68.0	3	235.013	0.015	1383.701	-3.0	-3.0	19.1437	4.0	955.0	1.2	Certain	3.9	-9.98	0.0	No		13.884484711211801				ShowChoice	Mixed
68.0	3	239.025	0.012	1387.713	-3.0	-3.0	19.1437	1.0	955.0	1.2	Certain	3.9	-9.98	0.0	No		13.884484711211801				ShowResult	Mixed
68.0	3	240.045	0.02	1388.733	-3.0	-3.0	19.1437	2.185	955.0	1.2	Certain	3.9	-9.98	0.0	No		13.884484711211801				ISITrial	Mixed
69.0	3	242.252	0.022	1390.94	-3.0	-3.0	18.7687	3.0	955.0	1.0	Certain	3.7	-10.69	0.0	No	4.0	14.386183465458698	1.502	243.754		GetAnswer	Mixed
69.0	3	243.773	0.018	1392.461	-3.0	-3.0	18.7687	4.0	955.0	1.0	Certain	3.7	-10.69	0.0	No		14.386183465458698				ShowChoice	Mixed
69.0	3	247.785	0.012	1396.473	-3.0	-3.0	18.7687	1.0	955.0	1.0	Certain	3.7	-10.69	0.0	No		14.386183465458698				ShowResult	Mixed
69.0	3	248.805	0.02	1397.493	-3.0	-3.0	18.7687	2.0	955.0	1.0	Certain	3.7	-10.69	0.0	No		14.386183465458698				ISITrial	Mixed
70.0	3	250.827	0.022	1399.515	2.0	2.0	19.0187	3.0	955.0	2.8	Certain	9.5	-5.39	3651.25	Yes	4.0	14.887882219705501	1.625	252.452		GetAnswer	Gain
70.0	3	252.466	0.014	1401.154	2.0	2.0	19.0187	4.0	955.0	2.8	Certain	9.5	-5.39	3651.25	Yes		14.887882219705501				ShowChoice	Gain
70.0	3	256.478	0.012	1405.166	2.0	2.0	19.0187	1.0	955.0	2.8	Certain	9.5	-5.39	3651.25	Yes		14.887882219705501				ShowResult	Gain
70.0	3	257.497	0.019	1406.185	2.0	2.0	19.0187	2.623	955.0	2.8	Certain	9.5	-5.39	3651.25	Yes		14.887882219705501				ISITrial	Gain
70.0	3	263.816	0.026	1412.504	2.0	2.0	19.0187	0.0	955.0	2.8	Certain	9.5	-5.39	3651.25	Yes		14.887882219705501			512.0	TrialHappiness	Gain
70.0	3	267.828	4.012	1416.516	2.0	2.0	19.0187	6.605	955.0	2.8	Certain	9.5	-5.39	3651.25	Yes		14.887882219705501				ISIRate	Gain
71.0	3	274.465	0.032	1423.153	-7.0	-7.0	18.1437	3.0	955.0	2.0	Certain	-15.09	0.3	0.0	No	4.0	15.3895809739524	1.816	276.281		GetAnswer	Mixed
71.0	3	276.304	0.023	1424.992	-7.0	-7.0	18.1437	4.0	955.0	2.0	Certain	-15.09	0.3	0.0	No		15.3895809739524				ShowChoice	Mixed
71.0	3	280.316	0.012	1429.004	-7.0	-7.0	18.1437	1.0	955.0	2.0	Certain	-15.09	0.3	0.0	No		15.3895809739524				ShowResult	Mixed
71.0	3	281.335	0.019	1430.023	-7.0	-7.0	18.1437	5.499	955.0	2.0	Certain	-15.09	0.3	0.0	No		15.3895809739524				ISITrial	Mixed
72.0	3	286.852	0.018	1435.54	11.7	-2.1	19.6062	3.0	955.0	3.16	Outcome1	11.7	-4.19	3080.5	Yes	2.0	15.8912797281993	1.438	288.29		GetAnswer	Loss
72.0	3	288.306	0.016	1436.994	11.7	-2.1	19.6062	4.0	955.0	3.16	Outcome1	11.7	-4.19	3080.5	Yes		15.8912797281993				ShowChoice	Loss
72.0	3	292.318	0.012	1441.006	11.7	-2.1	19.6062	1.0	955.0	3.16	Outcome1	11.7	-4.19	3080.5	Yes		15.8912797281993				ShowResult	Loss
72.0	3	293.338	0.02	1442.026	11.7	-2.1	19.6062	5.672	955.0	3.16	Outcome1	11.7	-4.19	3080.5	Yes		15.8912797281993				ISITrial	Loss
72.0	3	302.131	0.029	1450.819	11.7	-2.1	19.6062	0.0	955.0	3.16	Outcome1	11.7	-4.19	3080.5	Yes		15.8912797281993			512.0	TrialHappiness	Loss
72.0	3	306.143	4.012	1454.831	11.7	-2.1	19.6062	4.322	955.0	3.16	Outcome1	11.7	-4.19	3080.5	Yes		15.8912797281993				ISIRate	Loss
73.0	3	310.489	0.024	1459.177	-3.0	-3.0	19.2312	3.0	955.0	1.82	Certain	4.7	-11.69	0.0	No	4.0	16.3929784824462	1.392	311.881		GetAnswer	Gain
73.0	3	311.894	0.013	1460.582	-3.0	-3.0	19.2312	4.0	955.0	1.82	Certain	4.7	-11.69	0.0	No		16.3929784824462				ShowChoice	Gain
73.0	3	315.906	0.012	1464.594	-3.0	-3.0	19.2312	1.0	955.0	1.82	Certain	4.7	-11.69	0.0	No		16.3929784824462				ShowResult	Gain
73.0	3	316.925	0.019	1465.613	-3.0	-3.0	19.2312	4.616	955.0	1.82	Certain	4.7	-11.69	0.0	No		16.3929784824462				ISITrial	Gain
74.0	3	321.572	0.031	1470.26	-0.48	1.0	19.1712	3.0	955.0	1.5	Outcome1	-0.48	2.1	3056.25	Yes	2.0	-2.5785201963004902	1.43	323.002		GetAnswer	Mixed
74.0	3	323.027	0.025	1471.715	-0.48	1.0	19.1712	4.0	955.0	1.5	Outcome1	-0.48	2.1	3056.25	Yes		-2.5785201963004902				ShowChoice	Mixed
74.0	3	327.039	0.012	1475.727	-0.48	1.0	19.1712	1.0	955.0	1.5	Outcome1	-0.48	2.1	3056.25	Yes		-2.5785201963004902				ShowResult	Mixed
74.0	3	328.059	0.02	1476.747	-0.48	1.0	19.1712	3.909	955.0	1.5	Outcome1	-0.48	2.1	3056.25	Yes		-2.5785201963004902				ISITrial	Mixed
74.0	3	335.063	0.02	1483.751	-0.48	1.0	19.1712	0.0	955.0	1.5	Outcome1	-0.48	2.1	3056.25	Yes		-2.5785201963004902			512.0	TrialHappiness	Mixed
74.0	3	339.075	4.012	1487.763	-0.48	1.0	19.1712	4.225	955.0	1.5	Outcome1	-0.48	2.1	3056.25	Yes		-2.5785201963004902				ISIRate	Mixed
75.0	3	343.321	0.021	1492.009	-10.0	-10.0	17.9212	3.0	955.0	0.3	Certain	-18.7	-1.3	0.0	No	4.0	17.396375990939998	2.84	346.161		GetAnswer	Mixed
75.0	3	346.179	0.018	1494.867	-10.0	-10.0	17.9212	4.0	955.0	0.3	Certain	-18.7	-1.3	0.0	No		17.396375990939998				ShowChoice	Mixed
75.0	3	350.191	0.012	1498.879	-10.0	-10.0	17.9212	1.0	955.0	0.3	Certain	-18.7	-1.3	0.0	No		17.396375990939998				ShowResult	Mixed
75.0	3	351.211	0.02	1499.899	-10.0	-10.0	17.9212	4.979	955.0	0.3	Certain	-18.7	-1.3	0.0	No		17.396375990939998				ISITrial	Mixed
76.0	3	356.21	0.02	1504.898	-2.0	-2.0	17.6712	3.0	955.0	2.22	Certain	-10.8	7.1	0.0	No	4.0	17.8980747451869	2.23	358.44		GetAnswer	Gain
76.0	3	358.466	0.026	1507.154	-2.0	-2.0	17.6712	4.0	955.0	2.22	Certain	-10.8	7.1	0.0	No		17.8980747451869				ShowChoice	Gain
76.0	3	362.478	0.012	1511.166	-2.0	-2.0	17.6712	1.0	955.0	2.22	Certain	-10.8	7.1	0.0	No		17.8980747451869				ShowResult	Gain
76.0	3	363.498	0.02	1512.186	-2.0	-2.0	17.6712	3.931	955.0	2.22	Certain	-10.8	7.1	0.0	No		17.8980747451869				ISITrial	Gain
77.0	3	367.46	0.031	1516.148	-1.0	-1.0	17.5462	3.0	955.0	1.2	Certain	-2.8	-0.1	4000.0	Yes	4.0	-2.70394488486221	1.653	369.113		GetAnswer	Mixed
77.0	3	369.132	0.019	1517.82	-1.0	-1.0	17.5462	4.0	955.0	1.2	Certain	-2.8	-0.1	4000.0	Yes		-2.70394488486221				ShowChoice	Mixed
77.0	3	373.144	0.012	1521.832	-1.0	-1.0	17.5462	1.0	955.0	1.2	Certain	-2.8	-0.1	4000.0	Yes		-2.70394488486221				ShowResult	Mixed
77.0	3	374.163	0.019	1522.851	-1.0	-1.0	17.5462	7.022	955.0	1.2	Certain	-2.8	-0.1	4000.0	Yes		-2.70394488486221				ISITrial	Mixed
77.0	3	385.23	0.029	1533.918	-1.0	-1.0	17.5462	1.132	955.0	1.2	Certain	-2.8	-0.1	4000.0	Yes		-2.70394488486221			492.0	TrialHappiness	Mixed
77.0	3	389.242	4.012	1537.93	-1.0	-1.0	17.5462	8.0	955.0	1.2	Certain	-2.8	-0.1	4000.0	Yes		-2.70394488486221				ISIRate	Mixed
78.0	3	397.266	0.024	1545.954	-7.0	-7.0	16.6712	3.0	955.0	0.2	Certain	-16.74	2.5	0.0	No	4.0	19.241223103057802	1.472	398.738		GetAnswer	Mixed
78.0	3	398.754	0.016	1547.442	-7.0	-7.0	16.6712	4.0	955.0	0.2	Certain	-16.74	2.5	0.0	No		19.241223103057802				ShowChoice	Mixed
78.0	3	402.766	0.012	1551.454	-7.0	-7.0	16.6712	1.0	955.0	0.2	Certain	-16.74	2.5	0.0	No		19.241223103057802				ShowResult	Mixed
78.0	3	403.785	0.019	1552.473	-7.0	-7.0	16.6712	2.078	955.0	0.2	Certain	-16.74	2.5	0.0	No		19.241223103057802				ISITrial	Mixed
79.0	3	405.892	0.029	1554.58	-4.0	-4.0	16.1712	3.0	955.0	4.2	Certain	-13.67	6.1	2729.5	Yes	4.0	19.7655719139298	2.104	407.996		GetAnswer	Gain
79.0	3	408.015	0.019	1556.703	-4.0	-4.0	16.1712	4.0	955.0	4.2	Certain	-13.67	6.1	2729.5	Yes		19.7655719139298				ShowChoice	Gain
79.0	3	412.027	0.012	1560.715	-4.0	-4.0	16.1712	1.0	955.0	4.2	Certain	-13.67	6.1	2729.5	Yes		19.7655719139298				ShowResult	Gain
79.0	3	413.046	0.019	1561.734	-4.0	-4.0	16.1712	3.829	955.0	4.2	Certain	-13.67	6.1	2729.5	Yes		19.7655719139298				ISITrial	Gain
79.0	3	419.649	0.028	1568.337	-4.0	-4.0	16.1712	0.0	955.0	4.2	Certain	-13.67	6.1	2729.5	Yes		19.7655719139298			512.0	TrialHappiness	Gain
79.0	3	423.661	4.012	1572.349	-4.0	-4.0	16.1712	2.918	955.0	4.2	Certain	-13.67	6.1	2729.5	Yes		19.7655719139298				ISIRate	Gain
80.0	3	426.604	0.025	1575.292	-11.0	-11.0	14.7962	3.0	955.0	0.52	Certain	-20.85	-0.9	0.0	No	4.0	19.9501698754247	1.355	427.959		GetAnswer	Mixed
80.0	3	427.974	0.015	1576.662	-11.0	-11.0	14.7962	4.0	955.0	0.52	Certain	-20.85	-0.9	0.0	No		19.9501698754247				ShowChoice	Mixed
80.0	3	431.986	0.012	1580.674	-11.0	-11.0	14.7962	1.0	955.0	0.52	Certain	-20.85	-0.9	0.0	No		19.9501698754247				ShowResult	Mixed
80.0	3	433.006	0.02	1581.694	-11.0	-11.0	14.7962	3.336	955.0	0.52	Certain	-20.85	-0.9	0.0	No		19.9501698754247				ISITrial	Mixed
81.0	3	436.366	0.024	1585.054	-5.0	-5.0	14.1712	3.0	955.0	1.82	Certain	4.7	-15.75	3923.75	Yes	4.0	20.4518686296716	1.902	438.268		GetAnswer	Gain
81.0	3	438.289	0.021	1586.977	-5.0	-5.0	14.1712	4.0	955.0	1.82	Certain	4.7	-15.75	3923.75	Yes		20.4518686296716				ShowChoice	Gain
81.0	3	442.301	0.012	1590.989	-5.0	-5.0	14.1712	1.0	955.0	1.82	Certain	4.7	-15.75	3923.75	Yes		20.4518686296716				ShowResult	Gain
81.0	3	443.32	0.019	1592.008	-5.0	-5.0	14.1712	3.919	955.0	1.82	Certain	4.7	-15.75	3923.75	Yes		20.4518686296716				ISITrial	Gain
81.0	3	451.211	0.022	1599.899	-5.0	-5.0	14.1712	0.0	955.0	1.82	Certain	4.7	-15.75	3923.75	Yes		20.4518686296716			512.0	TrialHappiness	Gain
81.0	3	455.223	4.012	1603.911	-5.0	-5.0	14.1712	7.695	955.0	1.82	Certain	4.7	-15.75	3923.75	Yes		20.4518686296716				ISIRate	Gain
	3	462.946	0.028	1611.634				3.0													CurrentEarnings	
	3	465.971	0.025	1614.659				-0.001								{SPACE}		12.54	478.511		Goodbye	
