trial_number	block	onset	onset_delay	onset_unadjusted	amount_change	certain_amount	current_amount	duration	mood_target	multiplier	outcome	outcome1_amount	outcome2_amount	question_duration	rating	response	rpe	rt	rt_time	slider_response	trial_phase	trial_type
	0	-30.143	0.033	13.172				-0.001								{SPACE}		1.496	-28.647		Welcome	
	0	-28.627	0.02	14.688				5.0													LifeHappyPreview	
	0	-23.595	0.032	19.72				1.206												784.0	LifeHappiness	
	0	-13.549	0.026	29.766				4.0													BlockHappyPreview	
	0	-9.534	0.015	33.781				1.438												752.0	BlockStartHappiness	
	0	-3.253	0.019	40.062				-0.001								5.0					ScanWait	
	1	0.013	0.013	43.328				10.0													GetReady	
1.0	1	10.043	0.03	53.358	0.0	0.0	10.0	3.0	955.0	1.5	Certain	-1.35	2.1	0.0	No	4.0	3.4484711211778	1.522	11.565		GetAnswer	Mixed
1.0	1	11.592	0.027	54.907	0.0	0.0	10.0	4.0	955.0	1.5	Certain	-1.35	2.1	0.0	No		3.4484711211778				ShowChoice	Mixed
1.0	1	15.608	0.016	58.923	0.0	0.0	10.0	1.0	955.0	1.5	Certain	-1.35	2.1	0.0	No		3.4484711211778				ShowResult	Mixed
1.0	1	16.624	0.016	59.939	0.0	0.0	10.0	2.431	955.0	1.5	Certain	-1.35	2.1	0.0	No		3.4484711211778				ISITrial	Mixed
2.0	1	19.073	0.018	62.388	13.7	5.01	11.7125	3.0	955.0	3.16	Outcome1	13.7	10.02	0.0	No	2.0	3.6783691959229903	0.736	19.809		GetAnswer	Loss
2.0	1	19.823	0.014	63.138	13.7	5.01	11.7125	4.0	955.0	3.16	Outcome1	13.7	10.02	0.0	No		3.6783691959229903				ShowChoice	Loss
2.0	1	23.838	0.015	67.153	13.7	5.01	11.7125	1.0	955.0	3.16	Outcome1	13.7	10.02	0.0	No		3.6783691959229903				ShowResult	Loss
2.0	1	24.854	0.016	68.169	13.7	5.01	11.7125	4.568	955.0	3.16	Outcome1	13.7	10.02	0.0	No		3.6783691959229903				ISITrial	Loss
3.0	1	29.453	0.031	72.768	12.1	4.1	13.225	3.0	955.0	4.2	Outcome1	12.1	8.19	2868.0	Yes	2.0	3.90826727066818	0.963	30.416		GetAnswer	Loss
3.0	1	30.436	0.02	73.751	12.1	4.1	13.225	4.0	955.0	4.2	Outcome1	12.1	8.19	2868.0	Yes		3.90826727066818				ShowChoice	Loss
3.0	1	34.451	0.015	77.766	12.1	4.1	13.225	1.0	955.0	4.2	Outcome1	12.1	8.19	2868.0	Yes		3.90826727066818				ShowResult	Loss
3.0	1	35.467	0.016	78.782	12.1	4.1	13.225	3.243	955.0	4.2	Outcome1	12.1	8.19	2868.0	Yes		3.90826727066818				ISITrial	Loss
3.0	1	41.632	0.031	84.947	12.1	4.1	13.225	2.289	955.0	4.2	Outcome1	12.1	8.19	2868.0	Yes		3.90826727066818			696.0	TrialHappiness	Loss
3.0	1	45.647	4.015	88.962	12.1	4.1	13.225	3.472	955.0	4.2	Outcome1	12.1	8.19	2868.0	Yes		3.90826727066818				ISIRate	Loss
4.0	1	49.146	0.027	92.461	11.19	5.6	14.6238	3.0	955.0	5.0	Outcome1	11.19	12.3	0.0	No	2.0	-1.1085315213288	0.827	49.973		GetAnswer	Loss
4.0	1	49.996	0.023	93.311	11.19	5.6	14.6238	4.0	955.0	5.0	Outcome1	11.19	12.3	0.0	No		-1.1085315213288				ShowChoice	Loss
4.0	1	54.011	0.015	97.326	11.19	5.6	14.6238	1.0	955.0	5.0	Outcome1	11.19	12.3	0.0	No		-1.1085315213288				ShowResult	Loss
4.0	1	55.027	0.016	98.342	11.19	5.6	14.6238	2.011	955.0	5.0	Outcome1	11.19	12.3	0.0	No		-1.1085315213288				ISITrial	Loss
5.0	1	57.06	0.022	100.375	0.0	0.0	14.6238	3.0	955.0	0.2	Certain	-2.88	2.5	2582.5	Yes	4.0	5.38278595696489	0.85	57.91		GetAnswer	Mixed
5.0	1	57.926	0.016	101.241	0.0	0.0	14.6238	4.0	955.0	0.2	Certain	-2.88	2.5	2582.5	Yes		5.38278595696489				ShowChoice	Mixed
5.0	1	61.941	0.015	105.256	0.0	0.0	14.6238	1.0	955.0	0.2	Certain	-2.88	2.5	2582.5	Yes		5.38278595696489				ShowResult	Mixed
5.0	1	62.958	0.017	106.273	0.0	0.0	14.6238	5.129	955.0	0.2	Certain	-2.88	2.5	2582.5	Yes		5.38278595696489				ISITrial	Mixed
5.0	1	70.705	0.017	114.02	0.0	0.0	14.6238	3.798	955.0	0.2	Certain	-2.88	2.5	2582.5	Yes		5.38278595696489			696.0	TrialHappiness	Mixed
5.0	1	74.737	4.032	118.052	0.0	0.0	14.6238	2.33	955.0	0.2	Certain	-2.88	2.5	2582.5	Yes		5.38278595696489				ISIRate	Mixed
6.0	1	77.086	0.019	120.401	1.0	1.0	14.7488	3.0	955.0	1.0	Certain	-1.98	3.7	0.0	No	4.0	5.676104190260481	0.86	77.946		GetAnswer	Mixed
6.0	1	77.969	0.023	121.284	1.0	1.0	14.7488	4.0	955.0	1.0	Certain	-1.98	3.7	0.0	No		5.676104190260481				ShowChoice	Mixed
6.0	1	81.984	0.015	125.299	1.0	1.0	14.7488	1.0	955.0	1.0	Certain	-1.98	3.7	0.0	No		5.676104190260481				ShowResult	Mixed
6.0	1	83.001	0.017	126.316	1.0	1.0	14.7488	6.232	955.0	1.0	Certain	-1.98	3.7	0.0	No		5.676104190260481				ISITrial	Mixed
7.0	1	89.265	0.032	132.58	11.9	2.96	16.2363	3.0	955.0	3.6	Outcome2	5.93	11.9	0.0	No	2.0	5.969422423556059	0.699	89.964		GetAnswer	Loss
7.0	1	89.982	0.018	133.297	11.9	2.96	16.2363	4.0	955.0	3.6	Outcome2	5.93	11.9	0.0	No		5.969422423556059				ShowChoice	Loss
7.0	1	93.997	0.015	137.312	11.9	2.96	16.2363	1.0	955.0	3.6	Outcome2	5.93	11.9	0.0	No		5.969422423556059				ShowResult	Loss
7.0	1	95.013	0.016	138.328	11.9	2.96	16.2363	2.305	955.0	3.6	Outcome2	5.93	11.9	0.0	No		5.969422423556059				ISITrial	Loss
8.0	1	97.346	0.028	140.661	10.3	2.02	17.5238	3.0	955.0	5.0	Outcome1	10.3	4.04	3112.5	Yes	2.0	6.26274065685164	0.647	97.993		GetAnswer	Gain
8.0	1	98.012	0.019	141.327	10.3	2.02	17.5238	4.0	955.0	5.0	Outcome1	10.3	4.04	3112.5	Yes		6.26274065685164				ShowChoice	Gain
8.0	1	102.027	0.015	145.342	10.3	2.02	17.5238	1.0	955.0	5.0	Outcome1	10.3	4.04	3112.5	Yes		6.26274065685164				ShowResult	Gain
8.0	1	103.044	0.017	146.359	10.3	2.02	17.5238	3.506	955.0	5.0	Outcome1	10.3	4.04	3112.5	Yes		6.26274065685164				ISITrial	Gain
8.0	1	109.708	0.02	153.023	10.3	2.02	17.5238	2.167	955.0	5.0	Outcome1	10.3	4.04	3112.5	Yes		6.26274065685164			752.0	TrialHappiness	Gain
8.0	1	113.723	4.015	157.038	10.3	2.02	17.5238	4.45	955.0	5.0	Outcome1	10.3	4.04	3112.5	Yes		6.26274065685164				ISIRate	Gain
9.0	1	118.205	0.032	161.52	6.1	0.25	18.2863	3.0	955.0	4.2	Outcome2	0.5	6.1	0.0	No	2.0	5.6047565118912805	0.694	118.899		GetAnswer	Gain
9.0	1	118.922	0.023	162.237	6.1	0.25	18.2863	4.0	955.0	4.2	Outcome2	0.5	6.1	0.0	No		5.6047565118912805				ShowChoice	Gain
9.0	1	122.937	0.015	166.252	6.1	0.25	18.2863	1.0	955.0	4.2	Outcome2	0.5	6.1	0.0	No		5.6047565118912805				ShowResult	Gain
9.0	1	123.953	0.016	167.268	6.1	0.25	18.2863	2.0	955.0	4.2	Outcome2	0.5	6.1	0.0	No		5.6047565118912805				ISITrial	Gain
10.0	1	125.986	0.033	169.301	3.94	3.94	18.7788	3.0	955.0	2.0	Certain	8.9	7.88	4000.0	Yes	4.0	-1.02265005662514	0.749	126.735		GetAnswer	Gain
10.0	1	126.752	0.017	170.067	3.94	3.94	18.7788	4.0	955.0	2.0	Certain	8.9	7.88	4000.0	Yes		-1.02265005662514				ShowChoice	Gain
10.0	1	130.767	0.015	174.082	3.94	3.94	18.7788	1.0	955.0	2.0	Certain	8.9	7.88	4000.0	Yes		-1.02265005662514				ShowResult	Gain
10.0	1	131.784	0.017	175.099	3.94	3.94	18.7788	2.0	955.0	2.0	Certain	8.9	7.88	4000.0	Yes		-1.02265005662514				ISITrial	Gain
10.0	1	137.832	0.032	181.147	3.94	3.94	18.7788	3.505	955.0	2.0	Certain	8.9	7.88	4000.0	Yes		-1.02265005662514			664.0	TrialHappiness	Gain
10.0	1	141.847	4.015	185.162	3.94	3.94	18.7788	8.0	955.0	2.0	Certain	8.9	7.88	4000.0	Yes		-1.02265005662514				ISIRate	Gain
11.0	1	149.877	0.03	193.192	7.3	3.65	19.6913	3.0	955.0	1.82	Outcome1	7.3	8.7	0.0	No	2.0	-1.39892412231031	0.703	150.58		GetAnswer	Gain
11.0	1	150.594	0.014	193.909	7.3	3.65	19.6913	4.0	955.0	1.82	Outcome1	7.3	8.7	0.0	No		-1.39892412231031				ShowChoice	Gain
11.0	1	154.609	0.015	197.924	7.3	3.65	19.6913	1.0	955.0	1.82	Outcome1	7.3	8.7	0.0	No		-1.39892412231031				ShowResult	Gain
11.0	1	155.625	0.016	198.94	7.3	3.65	19.6913	3.324	955.0	1.82	Outcome1	7.3	8.7	0.0	No		-1.39892412231031				ISITrial	Gain
12.0	1	158.974	0.025	202.289	10.7	1.4	21.0288	3.0	955.0	1.82	Outcome2	2.81	10.7	2618.75	Yes	2.0	7.8890147225368095	1.09	160.064		GetAnswer	Loss
12.0	1	160.09	0.026	203.405	10.7	1.4	21.0288	4.0	955.0	1.82	Outcome2	2.81	10.7	2618.75	Yes		7.8890147225368095				ShowChoice	Loss
12.0	1	164.106	0.016	207.421	10.7	1.4	21.0288	1.0	955.0	1.82	Outcome2	2.81	10.7	2618.75	Yes		7.8890147225368095				ShowResult	Loss
12.0	1	165.122	0.016	208.437	10.7	1.4	21.0288	6.642	955.0	1.82	Outcome2	2.81	10.7	2618.75	Yes		7.8890147225368095				ISITrial	Loss
12.0	1	174.435	0.03	217.75	10.7	1.4	21.0288	3.925	955.0	1.82	Outcome2	2.81	10.7	2618.75	Yes		7.8890147225368095			716.0	TrialHappiness	Loss
12.0	1	178.451	4.016	221.766	10.7	1.4	21.0288	2.475	955.0	1.82	Outcome2	2.81	10.7	2618.75	Yes		7.8890147225368095				ISIRate	Loss
13.0	1	180.95	0.024	224.265	2.86	1.43	21.3863	3.0	955.0	1.5	Outcome2	4.1	2.86	0.0	No	2.0	-1.24282748206871	0.811	181.761		GetAnswer	Mixed
13.0	1	181.783	0.022	225.098	2.86	1.43	21.3863	4.0	955.0	1.5	Outcome2	4.1	2.86	0.0	No		-1.24282748206871				ShowChoice	Mixed
13.0	1	185.798	0.015	229.113	2.86	1.43	21.3863	1.0	955.0	1.5	Outcome2	4.1	2.86	0.0	No		-1.24282748206871				ShowResult	Mixed
13.0	1	186.814	0.016	230.129	2.86	1.43	21.3863	3.48	955.0	1.5	Outcome2	4.1	2.86	0.0	No		-1.24282748206871				ISITrial	Mixed
14.0	1	190.313	0.019	233.628	9.23	4.62	22.5401	3.0	955.0	1.68	Outcome1	9.23	10.5	0.0	No	2.0	-1.26538316345791	0.684	190.997		GetAnswer	Loss
14.0	1	191.013	0.016	234.328	9.23	4.62	22.5401	4.0	955.0	1.68	Outcome1	9.23	10.5	0.0	No		-1.26538316345791				ShowChoice	Loss
14.0	1	195.028	0.015	238.343	9.23	4.62	22.5401	1.0	955.0	1.68	Outcome1	9.23	10.5	0.0	No		-1.26538316345791				ShowResult	Loss
14.0	1	196.045	0.017	239.36	9.23	4.62	22.5401	5.019	955.0	1.68	Outcome1	9.23	10.5	0.0	No		-1.26538316345791				ISITrial	Loss
15.0	1	201.093	0.029	244.408	5.5	1.0	23.2276	3.0	955.0	2.8	Outcome1	5.5	-2.38	3348.5	Yes	2.0	7.876557191392981	0.657	201.75		GetAnswer	Gain
15.0	1	201.776	0.026	245.091	5.5	1.0	23.2276	4.0	955.0	2.8	Outcome1	5.5	-2.38	3348.5	Yes		7.876557191392981				ShowChoice	Gain
15.0	1	205.791	0.015	249.106	5.5	1.0	23.2276	1.0	955.0	2.8	Outcome1	5.5	-2.38	3348.5	Yes		7.876557191392981				ShowResult	Gain
15.0	1	206.808	0.017	250.123	5.5	1.0	23.2276	7.614	955.0	2.8	Outcome1	5.5	-2.38	3348.5	Yes		7.876557191392981				ISITrial	Gain
15.0	1	217.804	0.018	261.119	5.5	1.0	23.2276	1.454	955.0	2.8	Outcome1	5.5	-2.38	3348.5	Yes		7.876557191392981			736.0	TrialHappiness	Gain
15.0	1	221.819	4.015	265.134	5.5	1.0	23.2276	5.394	955.0	2.8	Outcome1	5.5	-2.38	3348.5	Yes		7.876557191392981				ISIRate	Gain
16.0	1	227.234	0.021	270.549	1.9	-2.0	23.4651	3.0	955.0	1.2	Outcome1	1.9	-5.91	0.0	No	2.0	7.807474518686299	0.786	228.02		GetAnswer	Mixed
16.0	1	228.05	0.03	271.365	1.9	-2.0	23.4651	4.0	955.0	1.2	Outcome1	1.9	-5.91	0.0	No		7.807474518686299				ShowChoice	Mixed
16.0	1	232.065	0.015	275.38	1.9	-2.0	23.4651	1.0	955.0	1.2	Outcome1	1.9	-5.91	0.0	No		7.807474518686299				ShowResult	Mixed
16.0	1	233.082	0.017	276.397	1.9	-2.0	23.4651	3.008	955.0	1.2	Outcome1	1.9	-5.91	0.0	No		7.807474518686299				ISITrial	Mixed
17.0	1	236.114	0.024	279.429	0.0	0.0	23.4651	3.0	955.0	0.66	Certain	-4.76	3.3	3041.5	Yes	4.0	8.0554926387316	0.837	236.951		GetAnswer	Mixed
17.0	1	236.964	0.013	280.279	0.0	0.0	23.4651	4.0	955.0	0.66	Certain	-4.76	3.3	3041.5	Yes		8.0554926387316				ShowChoice	Mixed
17.0	1	240.979	0.015	284.294	0.0	0.0	23.4651	1.0	955.0	0.66	Certain	-4.76	3.3	3041.5	Yes		8.0554926387316				ShowResult	Mixed
17.0	1	241.995	0.016	285.31	0.0	0.0	23.4651	3.566	955.0	0.66	Certain	-4.76	3.3	3041.5	Yes		8.0554926387316				ISITrial	Mixed
17.0	1	248.643	0.024	291.958	0.0	0.0	23.4651	1.645	955.0	0.66	Certain	-4.76	3.3	3041.5	Yes		8.0554926387316			592.0	TrialHappiness	Mixed
17.0	1	252.658	4.015	295.973	0.0	0.0	23.4651	4.166	955.0	0.66	Certain	-4.76	3.3	3041.5	Yes		8.0554926387316				ISIRate	Mixed
18.0	1	256.857	0.033	300.172	2.0	2.0	23.7151	3.0	955.0	3.16	Certain	-3.05	7.7	0.0	No	4.0	10.749716874292199	0.949	257.806		GetAnswer	Gain
18.0	1	257.823	0.017	301.138	2.0	2.0	23.7151	4.0	955.0	3.16	Certain	-3.05	7.7	0.0	No		10.749716874292199				ShowChoice	Gain
18.0	1	261.838	0.015	305.153	2.0	2.0	23.7151	1.0	955.0	3.16	Certain	-3.05	7.7	0.0	No		10.749716874292199				ShowResult	Gain
18.0	1	262.855	0.017	306.17	2.0	2.0	23.7151	6.787	955.0	3.16	Certain	-3.05	7.7	0.0	No		10.749716874292199				ISITrial	Gain
19.0	1	269.669	0.027	312.984	4.7	-1.0	24.3026	3.0	955.0	1.82	Outcome2	-6.46	4.7	0.0	No	2.0	11.1608154020385	0.639	270.308		GetAnswer	Gain
19.0	1	270.335	0.027	313.65	4.7	-1.0	24.3026	4.0	955.0	1.82	Outcome2	-6.46	4.7	0.0	No		11.1608154020385				ShowChoice	Gain
19.0	1	274.351	0.016	317.666	4.7	-1.0	24.3026	1.0	955.0	1.82	Outcome2	-6.46	4.7	0.0	No		11.1608154020385				ShowResult	Gain
19.0	1	275.367	0.016	318.682	4.7	-1.0	24.3026	2.0	955.0	1.82	Outcome2	-6.46	4.7	0.0	No		11.1608154020385				ISITrial	Gain
20.0	1	277.4	0.033	320.715	2.0	2.0	24.5526	3.0	955.0	3.6	Certain	-3.67	7.9	2921.25	Yes	4.0	11.5719139297848	0.917	278.317		GetAnswer	Gain
20.0	1	278.333	0.016	321.648	2.0	2.0	24.5526	4.0	955.0	3.6	Certain	-3.67	7.9	2921.25	Yes		11.5719139297848				ShowChoice	Gain
20.0	1	282.348	0.015	325.663	2.0	2.0	24.5526	1.0	955.0	3.6	Certain	-3.67	7.9	2921.25	Yes		11.5719139297848				ShowResult	Gain
20.0	1	283.364	0.016	326.679	2.0	2.0	24.5526	8.0	955.0	3.6	Certain	-3.67	7.9	2921.25	Yes		11.5719139297848				ISITrial	Gain
20.0	1	294.327	0.028	337.642	2.0	2.0	24.5526	3.847	955.0	3.6	Certain	-3.67	7.9	2921.25	Yes		11.5719139297848			652.0	TrialHappiness	Gain
20.0	1	298.359	4.032	341.674	2.0	2.0	24.5526	3.685	955.0	3.6	Certain	-3.67	7.9	2921.25	Yes		11.5719139297848				ISIRate	Gain
21.0	1	302.074	0.03	345.389	5.1	0.0	25.1901	3.0	955.0	2.22	Outcome1	5.1	-5.86	0.0	No	2.0	10.9637599093998	0.974	303.048		GetAnswer	Gain
21.0	1	303.074	0.026	346.389	5.1	0.0	25.1901	4.0	955.0	2.22	Outcome1	5.1	-5.86	0.0	No		10.9637599093998				ShowChoice	Gain
21.0	1	307.089	0.015	350.404	5.1	0.0	25.1901	1.0	955.0	2.22	Outcome1	5.1	-5.86	0.0	No		10.9637599093998				ShowResult	Gain
21.0	1	308.106	0.017	351.421	5.1	0.0	25.1901	3.555	955.0	2.22	Outcome1	5.1	-5.86	0.0	No		10.9637599093998				ISITrial	Gain
22.0	1	311.688	0.027	355.003	5.16	2.58	25.8351	3.0	955.0	2.0	Outcome1	5.16	6.9	3219.5	Yes	2.0	-1.7429218573046399	1.137	312.825		GetAnswer	Gain
22.0	1	312.854	0.029	356.169	5.16	2.58	25.8351	4.0	955.0	2.0	Outcome1	5.16	6.9	3219.5	Yes		-1.7429218573046399				ShowChoice	Gain
22.0	1	316.869	0.015	360.184	5.16	2.58	25.8351	1.0	955.0	2.0	Outcome1	5.16	6.9	3219.5	Yes		-1.7429218573046399				ShowResult	Gain
22.0	1	317.885	0.016	361.2	5.16	2.58	25.8351	6.793	955.0	2.0	Outcome1	5.16	6.9	3219.5	Yes		-1.7429218573046399				ISITrial	Gain
22.0	1	327.949	0.029	371.264	5.16	2.58	25.8351	2.289	955.0	2.0	Outcome1	5.16	6.9	3219.5	Yes		-1.7429218573046399			696.0	TrialHappiness	Gain
22.0	1	331.964	4.015	375.279	5.16	2.58	25.8351	4.878	955.0	2.0	Outcome1	5.16	6.9	3219.5	Yes		-1.7429218573046399				ISIRate	Gain
23.0	1	336.862	0.02	380.177	13.1	1.1	27.4726	3.0	955.0	2.22	Outcome2	2.2	13.1	0.0	No	2.0	10.9026047565119	0.696	337.558		GetAnswer	Loss
23.0	1	337.579	0.021	380.894	13.1	1.1	27.4726	4.0	955.0	2.22	Outcome2	2.2	13.1	0.0	No		10.9026047565119				ShowChoice	Loss
23.0	1	341.594	0.015	384.909	13.1	1.1	27.4726	1.0	955.0	2.22	Outcome2	2.2	13.1	0.0	No		10.9026047565119				ShowResult	Loss
23.0	1	342.61	0.016	385.925	13.1	1.1	27.4726	8.0	955.0	2.22	Outcome2	2.2	13.1	0.0	No		10.9026047565119				ISITrial	Loss
24.0	1	350.641	0.031	393.956	-6.0	-6.0	26.7226	3.0	955.0	1.0	Certain	-0.3	-11.5	3255.0	Yes	4.0	11.195922989807501	1.203	351.844		GetAnswer	Mixed
24.0	1	351.874	0.03	395.189	-6.0	-6.0	26.7226	4.0	955.0	1.0	Certain	-0.3	-11.5	3255.0	Yes		11.195922989807501				ShowChoice	Mixed
24.0	1	355.889	0.015	399.204	-6.0	-6.0	26.7226	1.0	955.0	1.0	Certain	-0.3	-11.5	3255.0	Yes		11.195922989807501				ShowResult	Mixed
24.0	1	356.905	0.016	400.22	-6.0	-6.0	26.7226	2.0	955.0	1.0	Certain	-0.3	-11.5	3255.0	Yes		11.195922989807501				ISITrial	Mixed
24.0	1	362.203	0.027	405.518	-6.0	-6.0	26.7226	2.092	955.0	1.0	Certain	-0.3	-11.5	3255.0	Yes		11.195922989807501			636.0	TrialHappiness	Mixed
24.0	1	366.219	4.016	409.534	-6.0	-6.0	26.7226	5.02	955.0	1.0	Certain	-0.3	-11.5	3255.0	Yes		11.195922989807501				ISIRate	Mixed
25.0	1	371.267	0.028	414.582	-5.0	-5.0	26.0976	3.0	955.0	0.66	Certain	-11.21	1.3	0.0	No	4.0	12.5084937712344	1.505	372.772		GetAnswer	Mixed
25.0	1	372.8	0.028	416.115	-5.0	-5.0	26.0976	4.0	955.0	0.66	Certain	-11.21	1.3	0.0	No		12.5084937712344				ShowChoice	Mixed
25.0	1	376.815	0.015	420.13	-5.0	-5.0	26.0976	1.0	955.0	0.66	Certain	-11.21	1.3	0.0	No		12.5084937712344				ShowResult	Mixed
25.0	1	377.831	0.016	421.146	-5.0	-5.0	26.0976	3.749	955.0	0.66	Certain	-11.21	1.3	0.0	No		12.5084937712344				ISITrial	Mixed
26.0	1	381.613	0.033	424.928	1.7	-4.0	26.3101	3.0	955.0	1.0	Outcome2	-11.17	1.7	0.0	No	2.0	12.8697621744054	0.889	382.502		GetAnswer	Mixed
26.0	1	382.53	0.028	425.845	1.7	-4.0	26.3101	4.0	955.0	1.0	Outcome2	-11.17	1.7	0.0	No		12.8697621744054				ShowChoice	Mixed
26.0	1	386.545	0.015	429.86	1.7	-4.0	26.3101	1.0	955.0	1.0	Outcome2	-11.17	1.7	0.0	No		12.8697621744054				ShowResult	Mixed
26.0	1	387.561	0.016	430.876	1.7	-4.0	26.3101	7.834	955.0	1.0	Outcome2	-11.17	1.7	0.0	No		12.8697621744054				ISITrial	Mixed
27.0	1	395.425	0.03	438.74	9.3	2.0	27.4726	3.0	955.0	2.48	Outcome2	-3.93	9.3	2549.75	Yes	2.0	13.231030577576401	1.243	396.668		GetAnswer	Gain
27.0	1	396.691	0.023	440.006	9.3	2.0	27.4726	4.0	955.0	2.48	Outcome2	-3.93	9.3	2549.75	Yes		13.231030577576401				ShowChoice	Gain
27.0	1	400.707	0.016	444.022	9.3	2.0	27.4726	1.0	955.0	2.48	Outcome2	-3.93	9.3	2549.75	Yes		13.231030577576401				ShowResult	Gain
27.0	1	401.723	0.016	445.038	9.3	2.0	27.4726	4.225	955.0	2.48	Outcome2	-3.93	9.3	2549.75	Yes		13.231030577576401				ISITrial	Gain
27.0	1	408.537	0.016	451.852	9.3	2.0	27.4726	1.155	955.0	2.48	Outcome2	-3.93	9.3	2549.75	Yes		13.231030577576401			728.0	TrialHappiness	Gain
27.0	1	412.552	4.015	455.867	9.3	2.0	27.4726	2.199	955.0	2.48	Outcome2	-3.93	9.3	2549.75	Yes		13.231030577576401				ISIRate	Gain
	1	414.768	0.017	458.083				-0.001								{SPACE}		30.511	445.279		Rest	
	1	445.308	0.028	488.623				4.0													BlockHappyPreview	
	1	449.323	0.015	492.638				0.0												512.0	BlockStartHappiness	
	1	459.053	0.014	502.368				-0.001								5.0		1.341	460.394		ScanWait	
	2	0.025	0.025	503.734				10.0													GetReady	
28.0	2	10.055	0.03	513.764	1.12	0.0	27.6126	3.0	70.0	1.68	Outcome2	-0.68	1.12	0.0	No	2.0	1.79572940287226	1.137	11.192		GetAnswer	Gain
28.0	2	11.221	0.029	514.93	1.12	0.0	27.6126	4.0	70.0	1.68	Outcome2	-0.68	1.12	0.0	No		1.79572940287226				ShowChoice	Gain
28.0	2	15.236	0.015	518.945	1.12	0.0	27.6126	1.0	70.0	1.68	Outcome2	-0.68	1.12	0.0	No		1.79572940287226				ShowResult	Gain
28.0	2	16.253	0.017	519.962	1.12	0.0	27.6126	3.575	70.0	1.68	Outcome2	-0.68	1.12	0.0	No		1.79572940287226				ISITrial	Gain
29.0	2	19.851	0.023	523.56	2.28	1.0	27.8976	3.0	70.0	2.22	Outcome1	2.28	0.44	3529.0	Yes	2.0	1.83749055177627	0.847	20.698		GetAnswer	Gain
29.0	2	20.718	0.02	524.427	2.28	1.0	27.8976	4.0	70.0	2.22	Outcome1	2.28	0.44	3529.0	Yes		1.83749055177627				ShowChoice	Gain
29.0	2	24.733	0.015	528.442	2.28	1.0	27.8976	1.0	70.0	2.22	Outcome1	2.28	0.44	3529.0	Yes		1.83749055177627				ShowResult	Gain
29.0	2	25.749	0.016	529.458	2.28	1.0	27.8976	3.955	70.0	2.22	Outcome1	2.28	0.44	3529.0	Yes		1.83749055177627				ISITrial	Gain
29.0	2	33.28	0.02	536.989	2.28	1.0	27.8976	1.089	70.0	2.22	Outcome1	2.28	0.44	3529.0	Yes		1.83749055177627			680.0	TrialHappiness	Gain
29.0	2	37.295	4.015	541.004	2.28	1.0	27.8976	6.116	70.0	2.22	Outcome1	2.28	0.44	3529.0	Yes		1.83749055177627				ISIRate	Gain
30.0	2	43.443	0.032	547.152	-1.68	-0.84	27.6876	3.0	70.0	3.16	Outcome1	-1.68	9.7	0.0	No	2.0	-11.3764172335601	1.204	44.647		GetAnswer	Gain
30.0	2	44.676	0.029	548.385	-1.68	-0.84	27.6876	4.0	70.0	3.16	Outcome1	-1.68	9.7	0.0	No		-11.3764172335601				ShowChoice	Gain
30.0	2	48.691	0.015	552.4	-1.68	-0.84	27.6876	1.0	70.0	3.16	Outcome1	-1.68	9.7	0.0	No		-11.3764172335601				ShowResult	Gain
30.0	2	49.708	0.017	553.417	-1.68	-0.84	27.6876	4.453	70.0	3.16	Outcome1	-1.68	9.7	0.0	No		-11.3764172335601				ISITrial	Gain
31.0	2	54.189	0.028	557.898	-6.37	0.0	26.8914	3.0	70.0	3.16	Outcome1	-6.37	5.7	2503.25	Yes	2.0	-12.068027210884399	1.286	55.475		GetAnswer	Gain
31.0	2	55.506	0.031	559.215	-6.37	0.0	26.8914	4.0	70.0	3.16	Outcome1	-6.37	5.7	2503.25	Yes		-12.068027210884399				ShowChoice	Gain
31.0	2	59.521	0.015	563.23	-6.37	0.0	26.8914	1.0	70.0	3.16	Outcome1	-6.37	5.7	2503.25	Yes		-12.068027210884399				ShowResult	Gain
31.0	2	60.537	0.016	564.246	-6.37	0.0	26.8914	4.786	70.0	3.16	Outcome1	-6.37	5.7	2503.25	Yes		-12.068027210884399				ISITrial	Gain
31.0	2	67.885	0.03	571.594	-6.37	0.0	26.8914	0.807	70.0	3.16	Outcome1	-6.37	5.7	2503.25	Yes		-12.068027210884399			544.0	TrialHappiness	Gain
31.0	2	71.9	4.015	575.609	-6.37	0.0	26.8914	2.013	70.0	3.16	Outcome1	-6.37	5.7	2503.25	Yes		-12.068027210884399				ISIRate	Gain
32.0	2	73.933	0.02	577.642	-8.15	-3.0	25.8726	3.0	70.0	2.0	Outcome1	-8.15	2.3	0.0	No	2.0	-10.4467120181406	0.915	74.848		GetAnswer	Mixed
32.0	2	74.866	0.018	578.575	-8.15	-3.0	25.8726	4.0	70.0	2.0	Outcome1	-8.15	2.3	0.0	No		-10.4467120181406				ShowChoice	Mixed
32.0	2	78.881	0.015	582.59	-8.15	-3.0	25.8726	1.0	70.0	2.0	Outcome1	-8.15	2.3	0.0	No		-10.4467120181406				ShowResult	Mixed
32.0	2	79.897	0.016	583.606	-8.15	-3.0	25.8726	2.0	70.0	2.0	Outcome1	-8.15	2.3	0.0	No		-10.4467120181406				ISITrial	Mixed
33.0	2	81.913	0.016	585.622	-5.0	-5.0	25.2476	3.0	70.0	2.0	Certain	0.3	-10.68	0.0	No	4.0	-10.984126984127	1.39	83.303		GetAnswer	Mixed
33.0	2	83.329	0.026	587.038	-5.0	-5.0	25.2476	4.0	70.0	2.0	Certain	0.3	-10.68	0.0	No		-10.984126984127				ShowChoice	Mixed
33.0	2	87.345	0.016	591.054	-5.0	-5.0	25.2476	1.0	70.0	2.0	Certain	0.3	-10.68	0.0	No		-10.984126984127				ShowResult	Mixed
33.0	2	88.361	0.016	592.07	-5.0	-5.0	25.2476	5.099	70.0	2.0	Certain	0.3	-10.68	0.0	No		-10.984126984127				ISITrial	Mixed
34.0	2	93.492	0.032	597.201	0.0	0.0	25.2476	3.0	70.0	1.82	Certain	-0.53	1.68	3231.5	Yes	4.0	2.21409674981104	1.051	94.543		GetAnswer	Gain
34.0	2	94.559	0.016	598.268	0.0	0.0	25.2476	4.0	70.0	1.82	Certain	-0.53	1.68	3231.5	Yes		2.21409674981104				ShowChoice	Gain
34.0	2	98.574	0.015	602.283	0.0	0.0	25.2476	1.0	70.0	1.82	Certain	-0.53	1.68	3231.5	Yes		2.21409674981104				ShowResult	Gain
34.0	2	99.59	0.016	603.299	0.0	0.0	25.2476	4.784	70.0	1.82	Certain	-0.53	1.68	3231.5	Yes		2.21409674981104				ISITrial	Gain
34.0	2	107.637	0.016	611.346	0.0	0.0	25.2476	0.0	70.0	1.82	Certain	-0.53	1.68	3231.5	Yes		2.21409674981104			512.0	TrialHappiness	Gain
34.0	2	111.653	4.016	615.362	0.0	0.0	25.2476	4.926	70.0	1.82	Certain	-0.53	1.68	3231.5	Yes		2.21409674981104				ISIRate	Gain
35.0	2	116.601	0.022	620.31	-3.0	-3.0	24.8726	3.0	70.0	0.4	Certain	-8.61	2.9	0.0	No	4.0	-11.5147392290249	1.82	118.421		GetAnswer	Mixed
35.0	2	118.45	0.029	622.159	-3.0	-3.0	24.8726	4.0	70.0	0.4	Certain	-8.61	2.9	0.0	No		-11.5147392290249				ShowChoice	Mixed
35.0	2	122.466	0.016	626.175	-3.0	-3.0	24.8726	1.0	70.0	0.4	Certain	-8.61	2.9	0.0	No		-11.5147392290249				ShowResult	Mixed
35.0	2	123.482	0.016	627.191	-3.0	-3.0	24.8726	2.098	70.0	0.4	Certain	-8.61	2.9	0.0	No		-11.5147392290249				ISITrial	Mixed
36.0	2	125.615	0.035	629.324	-4.92	1.0	24.2576	3.0	70.0	2.22	Outcome2	7.1	-4.92	3335.75	Yes	2.0	-12.015873015873	1.153	126.768		GetAnswer	Gain
36.0	2	126.797	0.029	630.506	-4.92	1.0	24.2576	4.0	70.0	2.22	Outcome2	7.1	-4.92	3335.75	Yes		-12.015873015873				ShowChoice	Gain
36.0	2	130.813	0.016	634.522	-4.92	1.0	24.2576	1.0	70.0	2.22	Outcome2	7.1	-4.92	3335.75	Yes		-12.015873015873				ShowResult	Gain
36.0	2	131.829	0.016	635.538	-4.92	1.0	24.2576	5.156	70.0	2.22	Outcome2	7.1	-4.92	3335.75	Yes		-12.015873015873				ISITrial	Gain
36.0	2	140.376	0.029	644.085	-4.92	1.0	24.2576	2.522	70.0	2.22	Outcome2	7.1	-4.92	3335.75	Yes		-12.015873015873			496.0	TrialHappiness	Gain
36.0	2	144.391	4.015	648.1	-4.92	1.0	24.2576	5.343	70.0	2.22	Outcome2	7.1	-4.92	3335.75	Yes		-12.015873015873				ISIRate	Gain
37.0	2	149.756	0.022	653.465	2.78	1.0	24.6051	3.0	70.0	2.22	Outcome1	2.78	0.63	0.0	No	2.0	2.14739229024943	0.899	150.655		GetAnswer	Loss
37.0	2	150.672	0.017	654.381	2.78	1.0	24.6051	4.0	70.0	2.22	Outcome1	2.78	0.63	0.0	No		2.14739229024943				ShowChoice	Loss
37.0	2	154.688	0.016	658.397	2.78	1.0	24.6051	1.0	70.0	2.22	Outcome1	2.78	0.63	0.0	No		2.14739229024943				ShowResult	Loss
37.0	2	155.704	0.016	659.413	2.78	1.0	24.6051	3.598	70.0	2.22	Outcome1	2.78	0.63	0.0	No		2.14739229024943				ISITrial	Loss
38.0	2	159.336	0.034	663.045	-6.0	-6.0	23.8551	3.0	70.0	0.2	Certain	0.5	-12.23	0.0	No	4.0	-12.7278911564626	1.449	160.785		GetAnswer	Mixed
38.0	2	160.802	0.017	664.511	-6.0	-6.0	23.8551	4.0	70.0	0.2	Certain	0.5	-12.23	0.0	No		-12.7278911564626				ShowChoice	Mixed
38.0	2	164.818	0.016	668.527	-6.0	-6.0	23.8551	1.0	70.0	0.2	Certain	0.5	-12.23	0.0	No		-12.7278911564626				ShowResult	Mixed
38.0	2	165.834	0.016	669.543	-6.0	-6.0	23.8551	4.787	70.0	0.2	Certain	0.5	-12.23	0.0	No		-12.7278911564626				ISITrial	Mixed
39.0	2	170.649	0.028	674.358	0.0	0.0	23.8551	3.0	70.0	0.3	Certain	-1.55	0.68	2864.25	Yes	4.0	2.2278911564625896	1.255	171.904		GetAnswer	Mixed
39.0	2	171.932	0.028	675.641	0.0	0.0	23.8551	4.0	70.0	0.3	Certain	-1.55	0.68	2864.25	Yes		2.2278911564625896				ShowChoice	Mixed
39.0	2	175.947	0.015	679.656	0.0	0.0	23.8551	1.0	70.0	0.3	Certain	-1.55	0.68	2864.25	Yes		2.2278911564625896				ShowResult	Mixed
39.0	2	176.963	0.016	680.672	0.0	0.0	23.8551	2.348	70.0	0.3	Certain	-1.55	0.68	2864.25	Yes		2.2278911564625896				ISITrial	Mixed
39.0	2	182.211	0.018	685.92	0.0	0.0	23.8551	1.073	70.0	0.3	Certain	-1.55	0.68	2864.25	Yes		2.2278911564625896			672.0	TrialHappiness	Mixed
39.0	2	186.227	4.016	689.936	0.0	0.0	23.8551	3.457	70.0	0.3	Certain	-1.55	0.68	2864.25	Yes		2.2278911564625896				ISIRate	Mixed
40.0	2	189.709	0.025	693.418	-15.59	-7.0	21.9063	3.0	70.0	0.52	Outcome2	1.1	-15.59	0.0	No	2.0	-16.687074829932	0.855	190.564		GetAnswer	Mixed
40.0	2	190.592	0.028	694.301	-15.59	-7.0	21.9063	4.0	70.0	0.52	Outcome2	1.1	-15.59	0.0	No		-16.687074829932				ShowChoice	Mixed
40.0	2	194.607	0.015	698.316	-15.59	-7.0	21.9063	1.0	70.0	0.52	Outcome2	1.1	-15.59	0.0	No		-16.687074829932				ShowResult	Mixed
40.0	2	195.623	0.016	699.332	-15.59	-7.0	21.9063	3.158	70.0	0.52	Outcome2	1.1	-15.59	0.0	No		-16.687074829932				ISITrial	Mixed
41.0	2	198.806	0.025	702.515	-5.0	-5.0	21.2813	3.0	70.0	0.82	Certain	3.5	-13.87	4000.0	Yes	4.0	-17.3696145124717	1.232	200.038		GetAnswer	Mixed
41.0	2	200.055	0.017	703.764	-5.0	-5.0	21.2813	4.0	70.0	0.82	Certain	3.5	-13.87	4000.0	Yes		-17.3696145124717				ShowChoice	Mixed
41.0	2	204.071	0.016	707.78	-5.0	-5.0	21.2813	1.0	70.0	0.82	Certain	3.5	-13.87	4000.0	Yes		-17.3696145124717				ShowResult	Mixed
41.0	2	205.087	0.016	708.796	-5.0	-5.0	21.2813	4.506	70.0	0.82	Certain	3.5	-13.87	4000.0	Yes		-17.3696145124717				ISITrial	Mixed
41.0	2	213.651	0.032	717.36	-5.0	-5.0	21.2813	2.539	70.0	0.82	Certain	3.5	-13.87	4000.0	Yes		-17.3696145124717			456.0	TrialHappiness	Mixed
41.0	2	217.666	4.015	721.375	-5.0	-5.0	21.2813	8.0	70.0	0.82	Certain	3.5	-13.87	4000.0	Yes		-17.3696145124717				ISIRate	Mixed
42.0	2	225.696	0.03	729.405	-7.0	-7.0	20.4063	3.0	70.0	1.5	Certain	0.1	-14.28	0.0	No	4.0	-14.3786848072562	1.254	226.95		GetAnswer	Mixed
42.0	2	226.979	0.029	730.688	-7.0	-7.0	20.4063	4.0	70.0	1.5	Certain	0.1	-14.28	0.0	No		-14.3786848072562				ShowChoice	Mixed
42.0	2	230.994	0.015	734.703	-7.0	-7.0	20.4063	1.0	70.0	1.5	Certain	0.1	-14.28	0.0	No		-14.3786848072562				ShowResult	Mixed
42.0	2	232.011	0.017	735.72	-7.0	-7.0	20.4063	6.248	70.0	1.5	Certain	0.1	-14.28	0.0	No		-14.3786848072562				ISITrial	Mixed
43.0	2	238.292	0.033	742.001	-3.12	-1.56	20.0163	3.0	70.0	3.16	Outcome2	11.7	-3.12	2775.75	Yes	2.0	-14.8163265306122	1.179	239.471		GetAnswer	Loss
43.0	2	239.491	0.02	743.2	-3.12	-1.56	20.0163	4.0	70.0	3.16	Outcome2	11.7	-3.12	2775.75	Yes		-14.8163265306122				ShowChoice	Loss
43.0	2	243.507	0.016	747.216	-3.12	-1.56	20.0163	1.0	70.0	3.16	Outcome2	11.7	-3.12	2775.75	Yes		-14.8163265306122				ShowResult	Loss
43.0	2	244.523	0.016	748.232	-3.12	-1.56	20.0163	4.596	70.0	3.16	Outcome2	11.7	-3.12	2775.75	Yes		-14.8163265306122				ISITrial	Loss
43.0	2	251.937	0.023	755.646	-3.12	-1.56	20.0163	1.855	70.0	3.16	Outcome2	11.7	-3.12	2775.75	Yes		-14.8163265306122			504.0	TrialHappiness	Loss
43.0	2	255.952	4.015	759.661	-3.12	-1.56	20.0163	3.103	70.0	3.16	Outcome2	11.7	-3.12	2775.75	Yes		-14.8163265306122				ISIRate	Loss
44.0	2	259.085	0.03	762.794	-4.77	-2.38	19.42	3.0	70.0	2.48	Outcome1	-4.77	11.3	0.0	No	2.0	-16.0702947845805	1.355	260.44		GetAnswer	Loss
44.0	2	260.468	0.028	764.177	-4.77	-2.38	19.42	4.0	70.0	2.48	Outcome1	-4.77	11.3	0.0	No		-16.0702947845805				ShowChoice	Loss
44.0	2	264.483	0.015	768.192	-4.77	-2.38	19.42	1.0	70.0	2.48	Outcome1	-4.77	11.3	0.0	No		-16.0702947845805				ShowResult	Loss
44.0	2	265.499	0.016	769.208	-4.77	-2.38	19.42	2.42	70.0	2.48	Outcome1	-4.77	11.3	0.0	No		-16.0702947845805				ISITrial	Loss
45.0	2	267.948	0.029	771.657	-0.28	-1.0	19.385	3.0	70.0	0.4	Outcome2	-2.81	-0.28	0.0	No	2.0	2.52834467120181	1.621	269.569		GetAnswer	Mixed
45.0	2	269.598	0.029	773.307	-0.28	-1.0	19.385	4.0	70.0	0.4	Outcome2	-2.81	-0.28	0.0	No		2.52834467120181				ShowChoice	Mixed
45.0	2	273.613	0.015	777.322	-0.28	-1.0	19.385	1.0	70.0	0.4	Outcome2	-2.81	-0.28	0.0	No		2.52834467120181				ShowResult	Mixed
45.0	2	274.629	0.016	778.338	-0.28	-1.0	19.385	3.144	70.0	0.4	Outcome2	-2.81	-0.28	0.0	No		2.52834467120181				ISITrial	Mixed
46.0	2	277.795	0.022	781.504	-4.35	-2.17	18.8412	3.0	70.0	1.82	Outcome1	-4.35	12.7	3841.25	Yes	2.0	-17.0544217687075	1.056	278.851		GetAnswer	Loss
46.0	2	278.878	0.027	782.587	-4.35	-2.17	18.8412	4.0	70.0	1.82	Outcome1	-4.35	12.7	3841.25	Yes		-17.0544217687075				ShowChoice	Loss
46.0	2	282.893	0.015	786.602	-4.35	-2.17	18.8412	1.0	70.0	1.82	Outcome1	-4.35	12.7	3841.25	Yes		-17.0544217687075				ShowResult	Loss
46.0	2	283.909	0.016	787.618	-4.35	-2.17	18.8412	2.246	70.0	1.82	Outcome1	-4.35	12.7	3841.25	Yes		-17.0544217687075				ISITrial	Loss
46.0	2	290.041	0.025	793.75	-4.35	-2.17	18.8412	2.274	70.0	1.82	Outcome1	-4.35	12.7	3841.25	Yes		-17.0544217687075			404.0	TrialHappiness	Loss
46.0	2	294.056	4.015	797.765	-4.35	-2.17	18.8412	7.365	70.0	1.82	Outcome1	-4.35	12.7	3841.25	Yes		-17.0544217687075				ISIRate	Loss
47.0	2	301.453	0.032	805.162	-8.0	-8.0	17.8412	3.0	70.0	0.66	Certain	-0.7	-16.55	0.0	No	4.0	-15.845804988662099	1.251	302.704		GetAnswer	Mixed
47.0	2	302.719	0.015	806.428	-8.0	-8.0	17.8412	4.0	70.0	0.66	Certain	-0.7	-16.55	0.0	No		-15.845804988662099				ShowChoice	Mixed
47.0	2	306.735	0.016	810.444	-8.0	-8.0	17.8412	1.0	70.0	0.66	Certain	-0.7	-16.55	0.0	No		-15.845804988662099				ShowResult	Mixed
47.0	2	307.751	0.016	811.46	-8.0	-8.0	17.8412	2.0	70.0	0.66	Certain	-0.7	-16.55	0.0	No		-15.845804988662099				ISITrial	Mixed
48.0	2	309.767	0.016	813.476	3.12	2.0	18.2312	3.0	70.0	1.68	Outcome2	0.88	3.12	2831.75	Yes	2.0	2.2356386999244102	1.303	311.07		GetAnswer	Loss
48.0	2	311.083	0.013	814.792	3.12	2.0	18.2312	4.0	70.0	1.68	Outcome2	0.88	3.12	2831.75	Yes		2.2356386999244102				ShowChoice	Loss
48.0	2	315.098	0.015	818.807	3.12	2.0	18.2312	1.0	70.0	1.68	Outcome2	0.88	3.12	2831.75	Yes		2.2356386999244102				ShowResult	Loss
48.0	2	316.115	0.017	819.824	3.12	2.0	18.2312	3.692	70.0	1.68	Outcome2	0.88	3.12	2831.75	Yes		2.2356386999244102				ISITrial	Loss
48.0	2	322.679	0.017	826.388	3.12	2.0	18.2312	3.539	70.0	1.68	Outcome2	0.88	3.12	2831.75	Yes		2.2356386999244102			568.0	TrialHappiness	Loss
48.0	2	326.694	4.015	830.403	3.12	2.0	18.2312	3.327	70.0	1.68	Outcome2	0.88	3.12	2831.75	Yes		2.2356386999244102				ISIRate	Loss
49.0	2	330.043	0.022	833.752	-6.09	-3.04	17.47	3.0	70.0	2.48	Outcome2	13.3	-6.09	0.0	No	2.0	-19.392290249433103	2.817	332.86		GetAnswer	Loss
49.0	2	332.876	0.016	836.585	-6.09	-3.04	17.47	4.0	70.0	2.48	Outcome2	13.3	-6.09	0.0	No		-19.392290249433103				ShowChoice	Loss
49.0	2	336.891	0.015	840.6	-6.09	-3.04	17.47	1.0	70.0	2.48	Outcome2	13.3	-6.09	0.0	No		-19.392290249433103				ShowResult	Loss
49.0	2	337.907	0.016	841.616	-6.09	-3.04	17.47	8.0	70.0	2.48	Outcome2	13.3	-6.09	0.0	No		-19.392290249433103				ISITrial	Loss
50.0	2	345.938	0.031	849.647	-6.46	-3.23	16.6625	3.0	70.0	2.8	Outcome1	-6.46	13.5	3547.25	Yes	2.0	-19.9569160997732	2.548	348.486		GetAnswer	Loss
50.0	2	348.503	0.017	852.212	-6.46	-3.23	16.6625	4.0	70.0	2.8	Outcome1	-6.46	13.5	3547.25	Yes		-19.9569160997732				ShowChoice	Loss
50.0	2	352.519	0.016	856.228	-6.46	-3.23	16.6625	1.0	70.0	2.8	Outcome1	-6.46	13.5	3547.25	Yes		-19.9569160997732				ShowResult	Loss
50.0	2	353.535	0.016	857.244	-6.46	-3.23	16.6625	7.537	70.0	2.8	Outcome1	-6.46	13.5	3547.25	Yes		-19.9569160997732				ISITrial	Loss
50.0	2	364.648	0.019	868.357	-6.46	-3.23	16.6625	3.539	70.0	2.8	Outcome1	-6.46	13.5	3547.25	Yes		-19.9569160997732			456.0	TrialHappiness	Loss
50.0	2	368.663	4.015	872.372	-6.46	-3.23	16.6625	6.189	70.0	2.8	Outcome1	-6.46	13.5	3547.25	Yes		-19.9569160997732				ISIRate	Loss
51.0	2	374.878	0.026	878.587	1.62	0.0	16.865	3.0	70.0	1.68	Outcome2	-0.95	1.62	0.0	No	2.0	2.5725623582766404	1.32	376.198		GetAnswer	Gain
51.0	2	376.21	0.012	879.919	1.62	0.0	16.865	4.0	70.0	1.68	Outcome2	-0.95	1.62	0.0	No		2.5725623582766404				ShowChoice	Gain
51.0	2	380.226	0.016	883.935	1.62	0.0	16.865	1.0	70.0	1.68	Outcome2	-0.95	1.62	0.0	No		2.5725623582766404				ShowResult	Gain
51.0	2	381.242	0.016	884.951	1.62	0.0	16.865	5.508	70.0	1.68	Outcome2	-0.95	1.62	0.0	No		2.5725623582766404				ISITrial	Gain
52.0	2	386.773	0.023	890.482	-1.0	-1.0	16.74	3.0	70.0	0.2	Certain	-2.99	-0.38	0.0	No	4.0	2.60903250188964	1.772	388.545		GetAnswer	Mixed
52.0	2	388.556	0.011	892.265	-1.0	-1.0	16.74	4.0	70.0	0.2	Certain	-2.99	-0.38	0.0	No		2.60903250188964				ShowChoice	Mixed
52.0	2	392.571	0.015	896.28	-1.0	-1.0	16.74	1.0	70.0	0.2	Certain	-2.99	-0.38	0.0	No		2.60903250188964				ShowResult	Mixed
52.0	2	393.588	0.017	897.297	-1.0	-1.0	16.74	5.913	70.0	0.2	Certain	-2.99	-0.38	0.0	No		2.60903250188964				ISITrial	Mixed
53.0	2	399.519	0.018	903.228	-14.59	-5.0	14.9162	3.0	70.0	2.0	Outcome2	4.9	-14.59	2996.75	Yes		-19.4920634920635				GetAnswer	Gain
53.0	2	402.535	0.016	906.244	-14.59	-5.0	14.9162	4.0	70.0	2.0	Outcome2	4.9	-14.59	2996.75	Yes		-19.4920634920635				ShowChoice	Gain
53.0	2	406.55	0.015	910.259	-14.59	-5.0	14.9162	1.0	70.0	2.0	Outcome2	4.9	-14.59	2996.75	Yes		-19.4920634920635				ShowResult	Gain
53.0	2	407.566	0.016	911.275	-14.59	-5.0	14.9162	3.66	70.0	2.0	Outcome2	4.9	-14.59	2996.75	Yes		-19.4920634920635				ISITrial	Gain
53.0	2	414.264	0.019	917.973	-14.59	-5.0	14.9162	3.306	70.0	2.0	Outcome2	4.9	-14.59	2996.75	Yes		-19.4920634920635			416.0	TrialHappiness	Gain
53.0	2	418.279	4.015	921.988	-14.59	-5.0	14.9162	3.987	70.0	2.0	Outcome2	4.9	-14.59	2996.75	Yes		-19.4920634920635				ISIRate	Gain
54.0	2	422.294	0.028	926.003	-11.15	-1.0	13.5224	3.0	70.0	4.2	Outcome2	8.1	-11.15	0.0	No	2.0	-19.249433106576	1.279	423.573		GetAnswer	Gain
54.0	2	423.594	0.021	927.303	-11.15	-1.0	13.5224	4.0	70.0	4.2	Outcome2	8.1	-11.15	0.0	No		-19.249433106576				ShowChoice	Gain
54.0	2	427.609	0.015	931.318	-11.15	-1.0	13.5224	1.0	70.0	4.2	Outcome2	8.1	-11.15	0.0	No		-19.249433106576				ShowResult	Gain
54.0	2	428.626	0.017	932.335	-11.15	-1.0	13.5224	8.0	70.0	4.2	Outcome2	8.1	-11.15	0.0	No		-19.249433106576				ISITrial	Gain
	2	436.656	0.03	940.365				-0.001								{SPACE}		29.068	465.724		Rest	
	2	465.746	0.022	969.455				4.0													BlockHappyPreview	
	2	469.761	0.015	973.47				2.806												480.0	BlockStartHappiness	
	2	477.475	0.023	981.184				-0.001								5.0		1.193	478.668		ScanWait	
	3	0.023	0.023	982.4				10.0													GetReady	
55.0	3	10.037	0.014	992.414	-1.0	-1.0	13.3974	3.0	955.0	0.82	Certain	-0.5	-2.43	2533.25	Yes	4.0	-1.9276141940354898	1.972	12.009		GetAnswer	Mixed
55.0	3	12.036	0.026	994.413	-1.0	-1.0	13.3974	4.0	955.0	0.82	Certain	-0.5	-2.43	2533.25	Yes		-1.9276141940354898				ShowChoice	Mixed
55.0	3	16.051	0.015	998.428	-1.0	-1.0	13.3974	1.0	955.0	0.82	Certain	-0.5	-2.43	2533.25	Yes		-1.9276141940354898				ShowResult	Mixed
55.0	3	17.067	0.016	999.444	-1.0	-1.0	13.3974	7.709	955.0	0.82	Certain	-0.5	-2.43	2533.25	Yes		-1.9276141940354898				ISITrial	Mixed
55.0	3	27.347	0.016	1009.724	-1.0	-1.0	13.3974	2.839	955.0	0.82	Certain	-0.5	-2.43	2533.25	Yes	2{-2}4{-4}	-1.9276141940354898	2.839	30.186	528.0	TrialHappiness	Mixed
55.0	3	31.362	4.015	1013.739	-1.0	-1.0	13.3974	2.133	955.0	0.82	Certain	-0.5	-2.43	2533.25	Yes		-1.9276141940354898				ISIRate	Mixed
56.0	3	33.528	0.033	1015.905	1.32	2.0	13.5624	3.0	955.0	0.52	Outcome1	1.32	3.1	0.0	No	2.0	-1.7776519441298602	1.284	34.812		GetAnswer	Mixed
56.0	3	34.828	0.016	1017.205	1.32	2.0	13.5624	4.0	955.0	0.52	Outcome1	1.32	3.1	0.0	No		-1.7776519441298602				ShowChoice	Mixed
56.0	3	38.843	0.015	1021.22	1.32	2.0	13.5624	1.0	955.0	0.52	Outcome1	1.32	3.1	0.0	No		-1.7776519441298602				ShowResult	Mixed
56.0	3	39.859	0.016	1022.236	1.32	2.0	13.5624	4.697	955.0	0.52	Outcome1	1.32	3.1	0.0	No		-1.7776519441298602				ISITrial	Mixed
57.0	3	44.575	0.019	1026.952	10.1	0.91	14.8249	3.0	955.0	4.2	Outcome1	10.1	1.82	0.0	No	2.0	8.27519818799547	1.167	45.742		GetAnswer	Gain
57.0	3	45.757	0.015	1028.134	10.1	0.91	14.8249	4.0	955.0	4.2	Outcome1	10.1	1.82	0.0	No		8.27519818799547				ShowChoice	Gain
57.0	3	49.773	0.016	1032.15	10.1	0.91	14.8249	1.0	955.0	4.2	Outcome1	10.1	1.82	0.0	No		8.27519818799547				ShowResult	Gain
57.0	3	50.789	0.016	1033.166	10.1	0.91	14.8249	4.291	955.0	4.2	Outcome1	10.1	1.82	0.0	No		8.27519818799547				ISITrial	Gain
58.0	3	55.104	0.024	1037.481	7.3	-0.73	15.7374	3.0	955.0	2.48	Outcome2	-1.46	7.3	3045.75	Yes	2.0	8.75877689694224	2.817	57.921		GetAnswer	Gain
58.0	3	57.937	0.016	1040.314	7.3	-0.73	15.7374	4.0	955.0	2.48	Outcome2	-1.46	7.3	3045.75	Yes		8.75877689694224				ShowChoice	Gain
58.0	3	61.952	0.015	1044.329	7.3	-0.73	15.7374	1.0	955.0	2.48	Outcome2	-1.46	7.3	3045.75	Yes		8.75877689694224				ShowResult	Gain
58.0	3	62.968	0.016	1045.345	7.3	-0.73	15.7374	2.037	955.0	2.48	Outcome2	-1.46	7.3	3045.75	Yes		8.75877689694224				ISITrial	Gain
58.0	3	68.083	0.02	1050.46	7.3	-0.73	15.7374	2.098	955.0	2.48	Outcome2	-1.46	7.3	3045.75	Yes		8.75877689694224			604.0	TrialHappiness	Gain
58.0	3	72.098	4.015	1054.475	7.3	-0.73	15.7374	4.183	955.0	2.48	Outcome2	-1.46	7.3	3045.75	Yes		8.75877689694224				ISIRate	Gain
59.0	3	76.297	0.016	1058.674	7.5	-0.22	16.6749	3.0	955.0	2.8	Outcome2	-0.45	7.5	0.0	No	2.0	7.95130237825595	0.921	77.218		GetAnswer	Gain
59.0	3	77.23	0.012	1059.607	7.5	-0.22	16.6749	4.0	955.0	2.8	Outcome2	-0.45	7.5	0.0	No		7.95130237825595				ShowChoice	Gain
59.0	3	81.245	0.015	1063.622	7.5	-0.22	16.6749	1.0	955.0	2.8	Outcome2	-0.45	7.5	0.0	No		7.95130237825595				ShowResult	Gain
59.0	3	82.261	0.016	1064.638	7.5	-0.22	16.6749	5.064	955.0	2.8	Outcome2	-0.45	7.5	0.0	No		7.95130237825595				ISITrial	Gain
60.0	3	87.343	0.018	1069.72	9.5	0.57	17.8624	3.0	955.0	2.8	Outcome2	1.15	9.5	3562.5	Yes	2.0	8.34881087202718	0.905	88.248		GetAnswer	Gain
60.0	3	88.259	0.011	1070.636	9.5	0.57	17.8624	4.0	955.0	2.8	Outcome2	1.15	9.5	3562.5	Yes		8.34881087202718				ShowChoice	Gain
60.0	3	92.275	0.016	1074.652	9.5	0.57	17.8624	1.0	955.0	2.8	Outcome2	1.15	9.5	3562.5	Yes		8.34881087202718				ShowResult	Gain
60.0	3	93.291	0.016	1075.668	9.5	0.57	17.8624	8.0	955.0	2.8	Outcome2	1.15	9.5	3562.5	Yes		8.34881087202718				ISITrial	Gain
60.0	3	104.887	0.02	1087.264	9.5	0.57	17.8624	1.823	955.0	2.8	Outcome2	1.15	9.5	3562.5	Yes		8.34881087202718			568.0	TrialHappiness	Gain
60.0	3	108.902	4.015	1091.279	9.5	0.57	17.8624	6.25	955.0	2.8	Outcome2	1.15	9.5	3562.5	Yes		8.34881087202718				ISIRate	Gain
61.0	3	115.183	0.031	1097.56	-2.0	-2.0	17.6124	3.0	955.0	0.3	Certain	-3.1	-1.3	0.0	No	4.0	-1.8024726311815802	1.256	116.439		GetAnswer	Mixed
61.0	3	116.466	0.027	1098.843	-2.0	-2.0	17.6124	4.0	955.0	0.3	Certain	-3.1	-1.3	0.0	No		-1.8024726311815802				ShowChoice	Mixed
61.0	3	120.481	0.015	1102.858	-2.0	-2.0	17.6124	1.0	955.0	0.3	Certain	-3.1	-1.3	0.0	No		-1.8024726311815802				ShowResult	Mixed
61.0	3	121.498	0.017	1103.875	-2.0	-2.0	17.6124	4.586	955.0	0.3	Certain	-3.1	-1.3	0.0	No		-1.8024726311815802				ISITrial	Mixed
62.0	3	126.113	0.029	1108.49	6.3	1.0	18.3999	3.0	955.0	5.0	Outcome2	-3.5	6.3	3748.75	Yes	2.0	9.79614949037373	1.108	127.221		GetAnswer	Gain
62.0	3	127.246	0.025	1109.623	6.3	1.0	18.3999	4.0	955.0	5.0	Outcome2	-3.5	6.3	3748.75	Yes		9.79614949037373				ShowChoice	Gain
62.0	3	131.261	0.015	1113.638	6.3	1.0	18.3999	1.0	955.0	5.0	Outcome2	-3.5	6.3	3748.75	Yes		9.79614949037373				ShowResult	Gain
62.0	3	132.277	0.016	1114.654	6.3	1.0	18.3999	5.212	955.0	5.0	Outcome2	-3.5	6.3	3748.75	Yes		9.79614949037373				ISITrial	Gain
62.0	3	141.274	0.016	1123.651	6.3	1.0	18.3999	3.017	955.0	5.0	Outcome2	-3.5	6.3	3748.75	Yes		9.79614949037373			580.0	TrialHappiness	Gain
62.0	3	145.289	4.015	1127.666	6.3	1.0	18.3999	6.995	955.0	5.0	Outcome2	-3.5	6.3	3748.75	Yes		9.79614949037373				ISIRate	Gain
63.0	3	152.304	0.02	1134.681	11.5	0.74	19.8374	3.0	955.0	2.8	Outcome1	11.5	1.47	0.0	No	2.0	10.0305775764439	0.764	153.068		GetAnswer	Loss
63.0	3	153.087	0.019	1135.464	11.5	0.74	19.8374	4.0	955.0	2.8	Outcome1	11.5	1.47	0.0	No		10.0305775764439				ShowChoice	Loss
63.0	3	157.102	0.015	1139.479	11.5	0.74	19.8374	1.0	955.0	2.8	Outcome1	11.5	1.47	0.0	No		10.0305775764439				ShowResult	Loss
63.0	3	158.118	0.016	1140.495	11.5	0.74	19.8374	5.595	955.0	2.8	Outcome1	11.5	1.47	0.0	No		10.0305775764439				ISITrial	Loss
64.0	3	163.733	0.02	1146.11	5.3	0.0	20.4999	3.0	955.0	2.48	Outcome1	5.3	-5.16	0.0	No	2.0	10.455266138165301	0.918	164.651		GetAnswer	Gain
64.0	3	164.666	0.015	1147.043	5.3	0.0	20.4999	4.0	955.0	2.48	Outcome1	5.3	-5.16	0.0	No		10.455266138165301				ShowChoice	Gain
64.0	3	168.681	0.015	1151.058	5.3	0.0	20.4999	1.0	955.0	2.48	Outcome1	5.3	-5.16	0.0	No		10.455266138165301				ShowResult	Gain
64.0	3	169.698	0.017	1152.075	5.3	0.0	20.4999	5.47	955.0	2.48	Outcome1	5.3	-5.16	0.0	No		10.455266138165301				ISITrial	Gain
65.0	3	175.196	0.028	1157.573	13.9	1.51	22.2374	3.0	955.0	3.6	Outcome2	3.02	13.9	2996.75	Yes	2.0	10.8799546998867	2.691	177.887		GetAnswer	Loss
65.0	3	177.911	0.024	1160.288	13.9	1.51	22.2374	4.0	955.0	3.6	Outcome2	3.02	13.9	2996.75	Yes		10.8799546998867				ShowChoice	Loss
65.0	3	181.927	0.016	1164.304	13.9	1.51	22.2374	1.0	955.0	3.6	Outcome2	3.02	13.9	2996.75	Yes		10.8799546998867				ShowResult	Loss
65.0	3	182.943	0.016	1165.32	13.9	1.51	22.2374	3.344	955.0	3.6	Outcome2	3.02	13.9	2996.75	Yes		10.8799546998867				ISITrial	Loss
65.0	3	189.324	0.019	1171.701	13.9	1.51	22.2374	2.13	955.0	3.6	Outcome2	3.02	13.9	2996.75	Yes		10.8799546998867			588.0	TrialHappiness	Loss
65.0	3	193.339	4.015	1175.716	13.9	1.51	22.2374	3.987	955.0	3.6	Outcome2	3.02	13.9	2996.75	Yes		10.8799546998867				ISIRate	Loss
66.0	3	197.355	0.029	1179.732	12.9	0.86	23.8499	3.0	955.0	2.0	Outcome2	1.73	12.9	0.0	No	2.0	11.1687429218573	2.435	199.79		GetAnswer	Loss
66.0	3	199.804	0.014	1182.181	12.9	0.86	23.8499	4.0	955.0	2.0	Outcome2	1.73	12.9	0.0	No		11.1687429218573				ShowChoice	Loss
66.0	3	203.819	0.015	1186.196	12.9	0.86	23.8499	1.0	955.0	2.0	Outcome2	1.73	12.9	0.0	No		11.1687429218573				ShowResult	Loss
66.0	3	204.835	0.016	1187.212	12.9	0.86	23.8499	3.959	955.0	2.0	Outcome2	1.73	12.9	0.0	No		11.1687429218573				ISITrial	Loss
67.0	3	208.817	0.023	1191.194	5.9	0.0	24.5874	3.0	955.0	3.6	Outcome1	5.9	-5.68	2918.5	Yes	2.0	11.5843714609287	1.526	210.343		GetAnswer	Gain
67.0	3	210.367	0.024	1192.744	5.9	0.0	24.5874	4.0	955.0	3.6	Outcome1	5.9	-5.68	2918.5	Yes		11.5843714609287				ShowChoice	Gain
67.0	3	214.382	0.015	1196.759	5.9	0.0	24.5874	1.0	955.0	3.6	Outcome1	5.9	-5.68	2918.5	Yes		11.5843714609287				ShowResult	Gain
67.0	3	215.398	0.016	1197.775	5.9	0.0	24.5874	4.199	955.0	3.6	Outcome1	5.9	-5.68	2918.5	Yes		11.5843714609287				ISITrial	Gain
67.0	3	222.546	0.015	1204.923	5.9	0.0	24.5874	1.823	955.0	3.6	Outcome1	5.9	-5.68	2918.5	Yes		11.5843714609287			560.0	TrialHappiness	Gain
67.0	3	226.561	4.015	1208.938	5.9	0.0	24.5874	3.674	955.0	3.6	Outcome1	5.9	-5.68	2918.5	Yes		11.5843714609287				ISIRate	Gain
68.0	3	230.26	0.025	1212.637	-2.18	-1.0	24.3149	3.0	955.0	1.2	Outcome1	-2.18	-0.1	0.0	No	2.0	-2.0834277085692703	1.483	231.743		GetAnswer	Mixed
68.0	3	231.759	0.016	1214.136	-2.18	-1.0	24.3149	4.0	955.0	1.2	Outcome1	-2.18	-0.1	0.0	No		-2.0834277085692703				ShowChoice	Mixed
68.0	3	235.774	0.015	1218.151	-2.18	-1.0	24.3149	1.0	955.0	1.2	Outcome1	-2.18	-0.1	0.0	No		-2.0834277085692703				ShowResult	Mixed
68.0	3	236.791	0.017	1219.168	-2.18	-1.0	24.3149	2.185	955.0	1.2	Outcome1	-2.18	-0.1	0.0	No		-2.0834277085692703				ISITrial	Mixed
69.0	3	239.007	0.031	1221.384	6.38	3.19	25.1124	3.0	955.0	1.68	Outcome2	8.5	6.38	0.0	No	2.0	-2.12070592676482	0.999	240.006		GetAnswer	Gain
69.0	3	240.023	0.017	1222.4	6.38	3.19	25.1124	4.0	955.0	1.68	Outcome2	8.5	6.38	0.0	No		-2.12070592676482				ShowChoice	Gain
69.0	3	244.038	0.015	1226.415	6.38	3.19	25.1124	1.0	955.0	1.68	Outcome2	8.5	6.38	0.0	No		-2.12070592676482				ShowResult	Gain
69.0	3	245.055	0.017	1227.432	6.38	3.19	25.1124	2.0	955.0	1.68	Outcome2	8.5	6.38	0.0	No		-2.12070592676482				ISITrial	Gain
70.0	3	247.087	0.032	1229.464	-1.26	0.0	24.9549	3.0	955.0	0.4	Outcome1	-1.26	0.9	3651.25	Yes		-2.15798414496036				GetAnswer	Mixed
70.0	3	250.103	0.016	1232.48	-1.26	0.0	24.9549	4.0	955.0	0.4	Outcome1	-1.26	0.9	3651.25	Yes		-2.15798414496036				ShowChoice	Mixed
70.0	3	254.118	0.015	1236.495	-1.26	0.0	24.9549	1.0	955.0	0.4	Outcome1	-1.26	0.9	3651.25	Yes		-2.15798414496036				ShowResult	Mixed
70.0	3	255.134	0.016	1237.511	-1.26	0.0	24.9549	2.623	955.0	0.4	Outcome1	-1.26	0.9	3651.25	Yes		-2.15798414496036				ISITrial	Mixed
70.0	3	261.449	0.015	1243.826	-1.26	0.0	24.9549	3.739	955.0	0.4	Outcome1	-1.26	0.9	3651.25	Yes		-2.15798414496036			640.0	TrialHappiness	Mixed
70.0	3	265.464	4.015	1247.841	-1.26	0.0	24.9549	6.605	955.0	0.4	Outcome1	-1.26	0.9	3651.25	Yes		-2.15798414496036				ISIRate	Mixed
71.0	3	272.095	0.026	1254.472	-2.0	-2.0	24.7049	3.0	955.0	1.2	Certain	-8.56	3.9	0.0	No	4.0	12.4586636466591	1.913	274.008		GetAnswer	Mixed
71.0	3	274.028	0.02	1256.405	-2.0	-2.0	24.7049	4.0	955.0	1.2	Certain	-8.56	3.9	0.0	No		12.4586636466591				ShowChoice	Mixed
71.0	3	278.043	0.015	1260.42	-2.0	-2.0	24.7049	1.0	955.0	1.2	Certain	-8.56	3.9	0.0	No		12.4586636466591				ShowResult	Mixed
71.0	3	279.059	0.016	1261.436	-2.0	-2.0	24.7049	5.499	955.0	1.2	Certain	-8.56	3.9	0.0	No		12.4586636466591				ISITrial	Mixed
72.0	3	284.574	0.016	1266.951	-5.0	-5.0	24.0799	3.0	955.0	0.82	Certain	1.5	-11.32	3080.5	Yes	4.0	12.815402038505098	1.584	286.158		GetAnswer	Mixed
72.0	3	286.174	0.016	1268.551	-5.0	-5.0	24.0799	4.0	955.0	0.82	Certain	1.5	-11.32	3080.5	Yes		12.815402038505098				ShowChoice	Mixed
72.0	3	290.189	0.015	1272.566	-5.0	-5.0	24.0799	1.0	955.0	0.82	Certain	1.5	-11.32	3080.5	Yes		12.815402038505098				ShowResult	Mixed
72.0	3	291.205	0.016	1273.582	-5.0	-5.0	24.0799	5.672	955.0	0.82	Certain	1.5	-11.32	3080.5	Yes		12.815402038505098				ISITrial	Mixed
72.0	3	300.002	0.019	1282.379	-5.0	-5.0	24.0799	1.04	955.0	0.82	Certain	1.5	-11.32	3080.5	Yes		12.815402038505098			560.0	TrialHappiness	Mixed
72.0	3	304.017	4.015	1286.394	-5.0	-5.0	24.0799	4.322	955.0	0.82	Certain	1.5	-11.32	3080.5	Yes		12.815402038505098				ISIRate	Mixed
73.0	3	308.366	0.027	1290.743	10.9	-1.82	25.4424	3.0	955.0	2.0	Outcome2	-3.63	10.9	0.0	No		14.5311438278596				GetAnswer	Loss
73.0	3	311.381	0.015	1293.758	10.9	-1.82	25.4424	4.0	955.0	2.0	Outcome2	-3.63	10.9	0.0	No		14.5311438278596				ShowChoice	Loss
73.0	3	315.397	0.016	1297.774	10.9	-1.82	25.4424	1.0	955.0	2.0	Outcome2	-3.63	10.9	0.0	No		14.5311438278596				ShowResult	Loss
73.0	3	316.413	0.016	1298.79	10.9	-1.82	25.4424	4.616	955.0	2.0	Outcome2	-3.63	10.9	0.0	No		14.5311438278596				ISITrial	Loss
74.0	3	321.045	0.016	1303.422	-8.0	-8.0	24.4424	3.0	955.0	0.52	Certain	-0.9	-15.88	3056.25	Yes	4.0	14.9784824462061	1.344	322.389		GetAnswer	Mixed
74.0	3	322.411	0.022	1304.788	-8.0	-8.0	24.4424	4.0	955.0	0.52	Certain	-0.9	-15.88	3056.25	Yes		14.9784824462061				ShowChoice	Mixed
74.0	3	326.426	0.015	1308.803	-8.0	-8.0	24.4424	1.0	955.0	0.52	Certain	-0.9	-15.88	3056.25	Yes		14.9784824462061				ShowResult	Mixed
74.0	3	327.442	0.016	1309.819	-8.0	-8.0	24.4424	3.909	955.0	0.52	Certain	-0.9	-15.88	3056.25	Yes		14.9784824462061				ISITrial	Mixed
74.0	3	334.457	0.027	1316.834	-8.0	-8.0	24.4424	3.505	955.0	0.52	Certain	-0.9	-15.88	3056.25	Yes		14.9784824462061			564.0	TrialHappiness	Mixed
74.0	3	338.472	4.015	1320.849	-8.0	-8.0	24.4424	4.225	955.0	0.52	Certain	-0.9	-15.88	3056.25	Yes		14.9784824462061				ISIRate	Mixed
75.0	3	342.721	0.024	1325.098	5.99	3.0	25.1912	3.0	955.0	5.0	Outcome2	8.3	5.99	0.0	No	2.0	-2.31304265760664	0.98	343.701		GetAnswer	Gain
75.0	3	343.72	0.019	1326.097	5.99	3.0	25.1912	4.0	955.0	5.0	Outcome2	8.3	5.99	0.0	No		-2.31304265760664				ShowChoice	Gain
75.0	3	347.735	0.015	1330.112	5.99	3.0	25.1912	1.0	955.0	5.0	Outcome2	8.3	5.99	0.0	No		-2.31304265760664				ShowResult	Gain
75.0	3	348.752	0.017	1331.129	5.99	3.0	25.1912	4.979	955.0	5.0	Outcome2	8.3	5.99	0.0	No		-2.31304265760664				ISITrial	Gain
76.0	3	353.75	0.019	1336.127	7.55	3.78	26.135	3.0	955.0	3.6	Outcome2	9.9	7.55	0.0	No		-2.34994337485844				GetAnswer	Gain
76.0	3	356.766	0.016	1339.143	7.55	3.78	26.135	4.0	955.0	3.6	Outcome2	9.9	7.55	0.0	No		-2.34994337485844				ShowChoice	Gain
76.0	3	360.781	0.015	1343.158	7.55	3.78	26.135	1.0	955.0	3.6	Outcome2	9.9	7.55	0.0	No		-2.34994337485844				ShowResult	Gain
76.0	3	361.797	0.016	1344.174	7.55	3.78	26.135	3.931	955.0	3.6	Outcome2	9.9	7.55	0.0	No		-2.34994337485844				ISITrial	Gain
77.0	3	365.746	0.018	1348.123	4.3	-4.0	26.6725	3.0	955.0	2.0	Outcome1	4.3	-11.94	4000.0	Yes	2.0	16.2434881087203	1.637	367.383		GetAnswer	Mixed
77.0	3	367.395	0.012	1349.772	4.3	-4.0	26.6725	4.0	955.0	2.0	Outcome1	4.3	-11.94	4000.0	Yes		16.2434881087203				ShowChoice	Mixed
77.0	3	371.41	0.015	1353.787	4.3	-4.0	26.6725	1.0	955.0	2.0	Outcome1	4.3	-11.94	4000.0	Yes		16.2434881087203				ShowResult	Mixed
77.0	3	372.427	0.017	1354.804	4.3	-4.0	26.6725	7.022	955.0	2.0	Outcome1	4.3	-11.94	4000.0	Yes		16.2434881087203				ISITrial	Mixed
77.0	3	383.49	0.016	1365.867	4.3	-4.0	26.6725	3.605	955.0	2.0	Outcome1	4.3	-11.94	4000.0	Yes		16.2434881087203			552.0	TrialHappiness	Mixed
77.0	3	387.505	4.015	1369.882	4.3	-4.0	26.6725	8.0	955.0	2.0	Outcome1	4.3	-11.94	4000.0	Yes		16.2434881087203				ISIRate	Mixed
78.0	3	395.535	0.03	1377.912	0.7	-7.0	26.76	3.0	955.0	0.3	Outcome2	-16.19	0.7	0.0	No		16.8901472253681				GetAnswer	Mixed
78.0	3	398.551	0.016	1380.928	0.7	-7.0	26.76	4.0	955.0	0.3	Outcome2	-16.19	0.7	0.0	No		16.8901472253681				ShowChoice	Mixed
78.0	3	402.566	0.015	1384.943	0.7	-7.0	26.76	1.0	955.0	0.3	Outcome2	-16.19	0.7	0.0	No		16.8901472253681				ShowResult	Mixed
78.0	3	403.583	0.017	1385.96	0.7	-7.0	26.76	2.078	955.0	0.3	Outcome2	-16.19	0.7	0.0	No		16.8901472253681				ISITrial	Mixed
79.0	3	405.682	0.021	1388.059	4.39	2.19	27.3088	3.0	955.0	2.0	Outcome2	6.9	4.39	2729.5	Yes	2.0	-2.5104756511891297	0.887	406.569		GetAnswer	Gain
79.0	3	406.582	0.013	1388.959	4.39	2.19	27.3088	4.0	955.0	2.0	Outcome2	6.9	4.39	2729.5	Yes		-2.5104756511891297				ShowChoice	Gain
79.0	3	410.597	0.015	1392.974	4.39	2.19	27.3088	1.0	955.0	2.0	Outcome2	6.9	4.39	2729.5	Yes		-2.5104756511891297				ShowResult	Gain
79.0	3	411.613	0.016	1393.99	4.39	2.19	27.3088	3.829	955.0	2.0	Outcome2	6.9	4.39	2729.5	Yes		-2.5104756511891297				ISITrial	Gain
79.0	3	418.211	0.019	1400.588	4.39	2.19	27.3088	3.985	955.0	2.0	Outcome2	6.9	4.39	2729.5	Yes		-2.5104756511891297			436.0	TrialHappiness	Gain
79.0	3	422.226	4.015	1404.603	4.39	2.19	27.3088	2.918	955.0	2.0	Outcome2	6.9	4.39	2729.5	Yes		-2.5104756511891297				ISIRate	Gain
80.0	3	425.175	0.031	1407.552	-9.0	-9.0	26.1838	3.0	955.0	0.3	Certain	-19.07	0.7	0.0	No	4.0	19.7734994337486	1.152	426.327		GetAnswer	Mixed
80.0	3	426.341	0.014	1408.718	-9.0	-9.0	26.1838	4.0	955.0	0.3	Certain	-19.07	0.7	0.0	No		19.7734994337486				ShowChoice	Mixed
80.0	3	430.357	0.016	1412.734	-9.0	-9.0	26.1838	1.0	955.0	0.3	Certain	-19.07	0.7	0.0	No		19.7734994337486				ShowResult	Mixed
80.0	3	431.373	0.016	1413.75	-9.0	-9.0	26.1838	3.336	955.0	0.3	Certain	-19.07	0.7	0.0	No		19.7734994337486				ISITrial	Mixed
81.0	3	434.738	0.029	1417.115	8.43	4.22	27.2376	3.0	955.0	2.8	Outcome2	11.5	8.43	3923.75	Yes	2.0	-3.0682332955832403	0.762	435.5		GetAnswer	Loss
81.0	3	435.521	0.021	1417.898	8.43	4.22	27.2376	4.0	955.0	2.8	Outcome2	11.5	8.43	3923.75	Yes		-3.0682332955832403				ShowChoice	Loss
81.0	3	439.537	0.016	1421.914	8.43	4.22	27.2376	1.0	955.0	2.8	Outcome2	11.5	8.43	3923.75	Yes		-3.0682332955832403				ShowResult	Loss
81.0	3	440.553	0.016	1422.93	8.43	4.22	27.2376	3.919	955.0	2.8	Outcome2	11.5	8.43	3923.75	Yes		-3.0682332955832403				ISITrial	Loss
81.0	3	448.434	0.025	1430.811	8.43	4.22	27.2376	1.89	955.0	2.8	Outcome2	11.5	8.43	3923.75	Yes		-3.0682332955832403			568.0	TrialHappiness	Loss
81.0	3	452.449	4.015	1434.826	8.43	4.22	27.2376	7.695	955.0	2.8	Outcome2	11.5	8.43	3923.75	Yes		-3.0682332955832403				ISIRate	Loss
	3	460.163	0.019	1442.54				3.0													CurrentEarnings	
	3	463.178	0.015	1445.555				-0.001								{SPACE}		3.548	466.726		Goodbye	
