trial_number	block	onset	onset_delay	onset_unadjusted	amount_change	certain_amount	current_amount	duration	mood_target	multiplier	outcome	outcome1_amount	outcome2_amount	question_duration	rating	response	rpe	rt	rt_time	slider_response	trial_phase	trial_type
	0	-35.528	0.05	23.905				-0.001								{SPACE}		3.606	-31.922		Welcome	
	0	-31.897	0.025	27.536				5.0													LifeHappyPreview	
	0	-26.865	0.032	32.568				1.729												952.0	LifeHappiness	
	0	-15.264	0.019	44.169				4.0													BlockHappyPreview	
	0	-11.252	0.012	48.181				2.674												952.0	BlockStartHappiness	
	0	-4.013	0.022	55.42				-0.001								5.0					ScanWait	
	1	0.015	0.015	59.448				10.0													GetReady	
1.0	1	10.046	0.031	69.479	2.5	2.0	10.3125	3.0	955.0	0.2	Outcome2	2.45	2.5	0.0	No	2.0	0.0509626274065685	1.337	11.383		GetAnswer	Mixed
1.0	1	11.4	0.017	70.833	2.5	2.0	10.3125	4.0	955.0	0.2	Outcome2	2.45	2.5	0.0	No		0.0509626274065685				ShowChoice	Mixed
1.0	1	15.428	0.028	74.861	2.5	2.0	10.3125	1.0	955.0	0.2	Outcome2	2.45	2.5	0.0	No		0.0509626274065685				ShowResult	Mixed
1.0	1	16.448	0.02	75.881	2.5	2.0	10.3125	2.431	955.0	0.2	Outcome2	2.45	2.5	0.0	No		0.0509626274065685				ISITrial	Mixed
2.0	1	18.905	0.026	78.338	3.89	1.94	10.7987	3.0	955.0	1.2	Outcome2	3.9	3.89	0.0	No	2.0	-0.0124575311438279	1.097	20.002		GetAnswer	Mixed
2.0	1	20.025	0.023	79.458	3.89	1.94	10.7987	4.0	955.0	1.2	Outcome2	3.9	3.89	0.0	No		-0.0124575311438279				ShowChoice	Mixed
2.0	1	24.037	0.012	83.47	3.89	1.94	10.7987	1.0	955.0	1.2	Outcome2	3.9	3.89	0.0	No		-0.0124575311438279				ShowResult	Mixed
2.0	1	25.057	0.02	84.49	3.89	1.94	10.7987	4.568	955.0	1.2	Outcome2	3.9	3.89	0.0	No		-0.0124575311438279				ISITrial	Mixed
3.0	1	29.654	0.029	89.087	12.1	6.02	12.3112	3.0	955.0	4.2	Outcome1	12.1	12.04	2868.0	Yes	2.0	0.05775764439411099	1.026	30.68		GetAnswer	Loss
3.0	1	30.707	0.027	90.14	12.1	6.02	12.3112	4.0	955.0	4.2	Outcome1	12.1	12.04	2868.0	Yes		0.05775764439411099				ShowChoice	Loss
3.0	1	34.719	0.012	94.152	12.1	6.02	12.3112	1.0	955.0	4.2	Outcome1	12.1	12.04	2868.0	Yes		0.05775764439411099				ShowResult	Loss
3.0	1	35.739	0.02	95.172	12.1	6.02	12.3112	3.243	955.0	4.2	Outcome1	12.1	12.04	2868.0	Yes		0.05775764439411099				ISITrial	Loss
3.0	1	41.891	0.024	101.324	12.1	6.02	12.3112	1.577	955.0	4.2	Outcome1	12.1	12.04	2868.0	Yes		0.05775764439411099			952.0	TrialHappiness	Loss
3.0	1	45.92	4.029	105.353	12.1	6.02	12.3112	3.472	955.0	4.2	Outcome1	12.1	12.04	2868.0	Yes		0.05775764439411099				ISIRate	Loss
4.0	1	49.413	0.021	108.846	3.69	1.84	12.7725	3.0	955.0	1.0	Outcome1	3.69	3.7	0.0	No	2.0	-0.0130237825594564	1.068	50.481		GetAnswer	Mixed
4.0	1	50.5	0.019	109.933	3.69	1.84	12.7725	4.0	955.0	1.0	Outcome1	3.69	3.7	0.0	No		-0.0130237825594564				ShowChoice	Mixed
4.0	1	54.512	0.012	113.945	3.69	1.84	12.7725	1.0	955.0	1.0	Outcome1	3.69	3.7	0.0	No		-0.0130237825594564				ShowResult	Mixed
4.0	1	55.532	0.02	114.965	3.69	1.84	12.7725	2.011	955.0	1.0	Outcome1	3.69	3.7	0.0	No		-0.0130237825594564				ISITrial	Mixed
5.0	1	57.571	0.028	117.004	6.5	3.22	13.585	3.0	955.0	1.68	Outcome1	6.5	6.44	2582.5	Yes	2.0	0.0645526613816535	0.765	58.336		GetAnswer	Gain
5.0	1	58.357	0.021	117.79	6.5	3.22	13.585	4.0	955.0	1.68	Outcome1	6.5	6.44	2582.5	Yes		0.0645526613816535				ShowChoice	Gain
5.0	1	62.386	0.029	121.819	6.5	3.22	13.585	1.0	955.0	1.68	Outcome1	6.5	6.44	2582.5	Yes		0.0645526613816535				ShowResult	Gain
5.0	1	63.405	0.019	122.838	6.5	3.22	13.585	5.129	955.0	1.68	Outcome1	6.5	6.44	2582.5	Yes		0.0645526613816535				ISITrial	Gain
5.0	1	71.162	0.026	130.595	6.5	3.22	13.585	1.46	955.0	1.68	Outcome1	6.5	6.44	2582.5	Yes		0.0645526613816535			952.0	TrialHappiness	Gain
5.0	1	75.191	4.029	134.624	6.5	3.22	13.585	2.33	955.0	1.68	Outcome1	6.5	6.44	2582.5	Yes		0.0645526613816535				ISIRate	Gain
6.0	1	77.548	0.027	136.981	2.29	2.0	13.8712	3.0	955.0	2.0	Outcome1	2.29	2.3	0.0	No	2.0	-0.0135900339750849	0.801	78.349		GetAnswer	Mixed
6.0	1	78.367	0.018	137.8	2.29	2.0	13.8712	4.0	955.0	2.0	Outcome1	2.29	2.3	0.0	No		-0.0135900339750849				ShowChoice	Mixed
6.0	1	82.396	0.029	141.829	2.29	2.0	13.8712	1.0	955.0	2.0	Outcome1	2.29	2.3	0.0	No		-0.0135900339750849				ShowResult	Mixed
6.0	1	83.415	0.019	142.848	2.29	2.0	13.8712	6.232	955.0	2.0	Outcome1	2.29	2.3	0.0	No		-0.0135900339750849				ISITrial	Mixed
7.0	1	89.667	0.02	149.1	7.7	3.82	14.8337	3.0	955.0	3.16	Outcome1	7.7	7.63	0.0	No	2.0	0.0713476783691959	0.879	90.546		GetAnswer	Gain
7.0	1	90.57	0.024	150.003	7.7	3.82	14.8337	4.0	955.0	3.16	Outcome1	7.7	7.63	0.0	No		0.0713476783691959				ShowChoice	Gain
7.0	1	94.599	0.029	154.032	7.7	3.82	14.8337	1.0	955.0	3.16	Outcome1	7.7	7.63	0.0	No		0.0713476783691959				ShowResult	Gain
7.0	1	95.619	0.02	155.052	7.7	3.82	14.8337	2.305	955.0	3.16	Outcome1	7.7	7.63	0.0	No		0.0713476783691959				ISITrial	Gain
8.0	1	97.942	0.018	157.375	12.69	6.34	16.42	3.0	955.0	1.82	Outcome2	12.7	12.69	3112.5	Yes	2.0	-0.0141562853907135	0.998	98.94		GetAnswer	Loss
8.0	1	98.962	0.022	158.395	12.69	6.34	16.42	4.0	955.0	1.82	Outcome2	12.7	12.69	3112.5	Yes		-0.0141562853907135				ShowChoice	Loss
8.0	1	102.991	0.029	162.424	12.69	6.34	16.42	1.0	955.0	1.82	Outcome2	12.7	12.69	3112.5	Yes		-0.0141562853907135				ShowResult	Loss
8.0	1	104.01	0.019	163.443	12.69	6.34	16.42	3.506	955.0	1.82	Outcome2	12.7	12.69	3112.5	Yes		-0.0141562853907135				ISITrial	Loss
8.0	1	110.68	0.03	170.113	12.69	6.34	16.42	1.544	955.0	1.82	Outcome2	12.7	12.69	3112.5	Yes		-0.0141562853907135			952.0	TrialHappiness	Loss
8.0	1	114.709	4.029	174.142	12.69	6.34	16.42	4.45	955.0	1.82	Outcome2	12.7	12.69	3112.5	Yes		-0.0141562853907135				ISIRate	Loss
9.0	1	119.189	0.03	178.622	9.49	4.74	17.6062	3.0	955.0	2.8	Outcome2	9.5	9.49	0.0	No	2.0	-0.0144394110985277	0.873	120.062		GetAnswer	Gain
9.0	1	120.092	0.03	179.525	9.49	4.74	17.6062	4.0	955.0	2.8	Outcome2	9.5	9.49	0.0	No		-0.0144394110985277				ShowChoice	Gain
9.0	1	124.121	0.029	183.554	9.49	4.74	17.6062	1.0	955.0	2.8	Outcome2	9.5	9.49	0.0	No		-0.0144394110985277				ShowResult	Gain
9.0	1	125.14	0.019	184.573	9.49	4.74	17.6062	2.0	955.0	2.8	Outcome2	9.5	9.49	0.0	No		-0.0144394110985277				ISITrial	Gain
10.0	1	127.163	0.023	186.596	1.69	1.0	17.8174	3.0	955.0	1.0	Outcome2	1.7	1.69	4000.0	Yes	2.0	-0.014722536806341998	1.184	128.347		GetAnswer	Mixed
10.0	1	128.367	0.02	187.8	1.69	1.0	17.8174	4.0	955.0	1.0	Outcome2	1.7	1.69	4000.0	Yes		-0.014722536806341998				ShowChoice	Mixed
10.0	1	132.395	0.028	191.828	1.69	1.0	17.8174	1.0	955.0	1.0	Outcome2	1.7	1.69	4000.0	Yes		-0.014722536806341998				ShowResult	Mixed
10.0	1	133.415	0.02	192.848	1.69	1.0	17.8174	2.0	955.0	1.0	Outcome2	1.7	1.69	4000.0	Yes		-0.014722536806341998				ISITrial	Mixed
10.0	1	139.467	0.029	198.9	1.69	1.0	17.8174	2.864	955.0	1.0	Outcome2	1.7	1.69	4000.0	Yes		-0.014722536806341998			952.0	TrialHappiness	Mixed
10.0	1	143.495	4.028	202.928	1.69	1.0	17.8174	8.0	955.0	1.0	Outcome2	1.7	1.69	4000.0	Yes		-0.014722536806341998				ISIRate	Mixed
11.0	1	151.519	0.024	210.952	5.3	2.61	18.4799	3.0	955.0	2.48	Outcome2	5.22	5.3	0.0	No	2.0	0.0849377123442809	0.936	152.455		GetAnswer	Gain
11.0	1	152.472	0.017	211.905	5.3	2.61	18.4799	4.0	955.0	2.48	Outcome2	5.22	5.3	0.0	No		0.0849377123442809				ShowChoice	Gain
11.0	1	156.501	0.029	215.934	5.3	2.61	18.4799	1.0	955.0	2.48	Outcome2	5.22	5.3	0.0	No		0.0849377123442809				ShowResult	Gain
11.0	1	157.521	0.02	216.954	5.3	2.61	18.4799	3.324	955.0	2.48	Outcome2	5.22	5.3	0.0	No		0.0849377123442809				ISITrial	Gain
12.0	1	160.864	0.019	220.297	3.48	1.74	18.9149	3.0	955.0	0.82	Outcome2	3.5	3.48	2618.75	Yes	2.0	-0.0152887882219706	0.987	161.851		GetAnswer	Mixed
12.0	1	161.867	0.016	221.3	3.48	1.74	18.9149	4.0	955.0	0.82	Outcome2	3.5	3.48	2618.75	Yes		-0.0152887882219706				ShowChoice	Mixed
12.0	1	165.896	0.029	225.329	3.48	1.74	18.9149	1.0	955.0	0.82	Outcome2	3.5	3.48	2618.75	Yes		-0.0152887882219706				ShowResult	Mixed
12.0	1	166.916	0.02	226.349	3.48	1.74	18.9149	6.642	955.0	0.82	Outcome2	3.5	3.48	2618.75	Yes		-0.0152887882219706				ISITrial	Mixed
12.0	1	176.227	0.022	235.66	3.48	1.74	18.9149	2.028	955.0	0.82	Outcome2	3.5	3.48	2618.75	Yes		-0.0152887882219706			952.0	TrialHappiness	Mixed
12.0	1	180.256	4.029	239.689	3.48	1.74	18.9149	2.475	955.0	0.82	Outcome2	3.5	3.48	2618.75	Yes		-0.0152887882219706				ISIRate	Mixed
13.0	1	182.763	0.032	242.196	13.1	6.5	20.5524	3.0	955.0	2.22	Outcome2	13.01	13.1	0.0	No	2.0	0.0917327293318233	1.028	183.791		GetAnswer	Loss
13.0	1	183.816	0.025	243.249	13.1	6.5	20.5524	4.0	955.0	2.22	Outcome2	13.01	13.1	0.0	No		0.0917327293318233				ShowChoice	Loss
13.0	1	187.845	0.029	247.278	13.1	6.5	20.5524	1.0	955.0	2.22	Outcome2	13.01	13.1	0.0	No		0.0917327293318233				ShowResult	Loss
13.0	1	188.865	0.02	248.298	13.1	6.5	20.5524	3.48	955.0	2.22	Outcome2	13.01	13.1	0.0	No		0.0917327293318233				ISITrial	Loss
14.0	1	192.375	0.03	251.808	13.68	6.84	22.2624	3.0	955.0	3.16	Outcome2	13.7	13.68	0.0	No	2.0	-0.0158550396375991	0.739	193.114		GetAnswer	Loss
14.0	1	193.144	0.03	252.577	13.68	6.84	22.2624	4.0	955.0	3.16	Outcome2	13.7	13.68	0.0	No		-0.0158550396375991				ShowChoice	Loss
14.0	1	197.156	0.012	256.589	13.68	6.84	22.2624	1.0	955.0	3.16	Outcome2	13.7	13.68	0.0	No		-0.0158550396375991				ShowResult	Loss
14.0	1	198.176	0.02	257.609	13.68	6.84	22.2624	5.019	955.0	3.16	Outcome2	13.7	13.68	0.0	No		-0.0158550396375991				ISITrial	Loss
15.0	1	203.224	0.029	262.657	11.1	5.5	23.6499	3.0	955.0	2.22	Outcome2	11.0	11.1	3348.5	Yes	2.0	0.0985277463193658	0.719	203.943		GetAnswer	Loss
15.0	1	203.96	0.017	263.393	11.1	5.5	23.6499	4.0	955.0	2.22	Outcome2	11.0	11.1	3348.5	Yes		0.0985277463193658				ShowChoice	Loss
15.0	1	207.972	0.012	267.405	11.1	5.5	23.6499	1.0	955.0	2.22	Outcome2	11.0	11.1	3348.5	Yes		0.0985277463193658				ShowResult	Loss
15.0	1	208.992	0.02	268.425	11.1	5.5	23.6499	7.614	955.0	2.22	Outcome2	11.0	11.1	3348.5	Yes		0.0985277463193658				ISITrial	Loss
15.0	1	220.008	0.029	279.441	11.1	5.5	23.6499	2.112	955.0	2.22	Outcome2	11.0	11.1	3348.5	Yes		0.0985277463193658			952.0	TrialHappiness	Loss
15.0	1	224.037	4.029	283.47	11.1	5.5	23.6499	5.394	955.0	2.22	Outcome2	11.0	11.1	3348.5	Yes		0.0985277463193658				ISIRate	Loss
16.0	1	229.453	0.022	288.886	4.1	2.0	24.1624	3.0	955.0	1.5	Outcome1	4.1	4.0	0.0	No	2.0	0.101925254813137	0.776	230.229		GetAnswer	Mixed
16.0	1	230.255	0.026	289.688	4.1	2.0	24.1624	4.0	955.0	1.5	Outcome1	4.1	4.0	0.0	No		0.101925254813137				ShowChoice	Mixed
16.0	1	234.267	0.012	293.7	4.1	2.0	24.1624	1.0	955.0	1.5	Outcome1	4.1	4.0	0.0	No		0.101925254813137				ShowResult	Mixed
16.0	1	235.287	0.02	294.72	4.1	2.0	24.1624	3.008	955.0	1.5	Outcome1	4.1	4.0	0.0	No		0.101925254813137				ISITrial	Mixed
17.0	1	238.313	0.018	297.746	0.0	0.0	24.1624	3.0	955.0	1.0	Certain	-0.3	-0.32	3041.5	Yes	4.0	-0.0167044167610419	1.392	239.705		GetAnswer	Mixed
17.0	1	239.734	0.029	299.167	0.0	0.0	24.1624	4.0	955.0	1.0	Certain	-0.3	-0.32	3041.5	Yes		-0.0167044167610419				ShowChoice	Mixed
17.0	1	243.762	0.028	303.195	0.0	0.0	24.1624	1.0	955.0	1.0	Certain	-0.3	-0.32	3041.5	Yes		-0.0167044167610419				ShowResult	Mixed
17.0	1	244.782	0.02	304.215	0.0	0.0	24.1624	3.566	955.0	1.0	Certain	-0.3	-0.32	3041.5	Yes		-0.0167044167610419				ISITrial	Mixed
17.0	1	251.435	0.017	310.868	0.0	0.0	24.1624	1.594	955.0	1.0	Certain	-0.3	-0.32	3041.5	Yes		-0.0167044167610419			952.0	TrialHappiness	Mixed
17.0	1	255.464	4.029	314.897	0.0	0.0	24.1624	4.166	955.0	1.0	Certain	-0.3	-0.32	3041.5	Yes		-0.0167044167610419				ISIRate	Mixed
18.0	1	259.66	0.03	319.093	7.3	3.6	25.0749	3.0	955.0	2.48	Outcome1	7.3	7.19	0.0	No	2.0	0.108720271800679	0.78	260.44		GetAnswer	Gain
18.0	1	260.463	0.023	319.896	7.3	3.6	25.0749	4.0	955.0	2.48	Outcome1	7.3	7.19	0.0	No		0.108720271800679				ShowChoice	Gain
18.0	1	264.491	0.028	323.924	7.3	3.6	25.0749	1.0	955.0	2.48	Outcome1	7.3	7.19	0.0	No		0.108720271800679				ShowResult	Gain
18.0	1	265.511	0.02	324.944	7.3	3.6	25.0749	6.787	955.0	2.48	Outcome1	7.3	7.19	0.0	No		0.108720271800679				ISITrial	Gain
19.0	1	272.331	0.033	331.764	8.1	4.0	26.0874	3.0	955.0	4.2	Outcome2	7.99	8.1	0.0	No	2.0	0.11211778029445099	0.929	273.26		GetAnswer	Gain
19.0	1	273.284	0.023	332.717	8.1	4.0	26.0874	4.0	955.0	4.2	Outcome2	7.99	8.1	0.0	No		0.11211778029445099				ShowChoice	Gain
19.0	1	277.296	0.012	336.729	8.1	4.0	26.0874	1.0	955.0	4.2	Outcome2	7.99	8.1	0.0	No		0.11211778029445099				ShowResult	Gain
19.0	1	278.316	0.02	337.749	8.1	4.0	26.0874	2.0	955.0	4.2	Outcome2	7.99	8.1	0.0	No		0.11211778029445099				ISITrial	Gain
20.0	1	280.339	0.023	339.772	9.7	4.79	27.2999	3.0	955.0	3.16	Outcome1	9.7	9.58	2921.25	Yes	2.0	0.11551528878822198	1.167	281.506		GetAnswer	Gain
20.0	1	281.526	0.02	340.959	9.7	4.79	27.2999	4.0	955.0	3.16	Outcome1	9.7	9.58	2921.25	Yes		0.11551528878822198				ShowChoice	Gain
20.0	1	285.554	0.028	344.987	9.7	4.79	27.2999	1.0	955.0	3.16	Outcome1	9.7	9.58	2921.25	Yes		0.11551528878822198				ShowResult	Gain
20.0	1	286.574	0.02	346.007	9.7	4.79	27.2999	8.0	955.0	3.16	Outcome1	9.7	9.58	2921.25	Yes		0.11551528878822198				ISITrial	Gain
20.0	1	297.54	0.021	356.973	9.7	4.79	27.2999	1.544	955.0	3.16	Outcome1	9.7	9.58	2921.25	Yes		0.11551528878822198			952.0	TrialHappiness	Gain
20.0	1	301.569	4.029	361.002	9.7	4.79	27.2999	3.685	955.0	3.16	Outcome1	9.7	9.58	2921.25	Yes		0.11551528878822198				ISIRate	Gain
21.0	1	305.28	0.026	364.713	0.1	0.0	27.3124	3.0	955.0	1.5	Outcome1	0.1	-0.02	0.0	No	2.0	0.11891279728199301	1.867	307.147		GetAnswer	Mixed
21.0	1	307.169	0.022	366.602	0.1	0.0	27.3124	4.0	955.0	1.5	Outcome1	0.1	-0.02	0.0	No		0.11891279728199301				ShowChoice	Mixed
21.0	1	311.198	0.029	370.631	0.1	0.0	27.3124	1.0	955.0	1.5	Outcome1	0.1	-0.02	0.0	No		0.11891279728199301				ShowResult	Mixed
21.0	1	312.218	0.02	371.651	0.1	0.0	27.3124	3.555	955.0	1.5	Outcome1	0.1	-0.02	0.0	No		0.11891279728199301				ISITrial	Mixed
22.0	1	315.795	0.022	375.228	10.3	5.09	28.5999	3.0	955.0	5.0	Outcome1	10.3	10.18	3219.5	Yes	2.0	0.122310305775764	1.266	317.061		GetAnswer	Gain
22.0	1	317.082	0.021	376.515	10.3	5.09	28.5999	4.0	955.0	5.0	Outcome1	10.3	10.18	3219.5	Yes		0.122310305775764				ShowChoice	Gain
22.0	1	321.111	0.029	380.544	10.3	5.09	28.5999	1.0	955.0	5.0	Outcome1	10.3	10.18	3219.5	Yes		0.122310305775764				ShowResult	Gain
22.0	1	322.131	0.02	381.564	10.3	5.09	28.5999	6.793	955.0	5.0	Outcome1	10.3	10.18	3219.5	Yes		0.122310305775764				ISITrial	Gain
22.0	1	332.194	0.023	391.627	10.3	5.09	28.5999	1.561	955.0	5.0	Outcome1	10.3	10.18	3219.5	Yes		0.122310305775764			952.0	TrialHappiness	Gain
22.0	1	336.223	4.029	395.656	10.3	5.09	28.5999	4.878	955.0	5.0	Outcome1	10.3	10.18	3219.5	Yes		0.122310305775764				ISIRate	Gain
23.0	1	341.121	0.02	400.554	8.9	4.38	29.7124	3.0	955.0	2.0	Outcome2	8.77	8.9	0.0	No	2.0	0.12570781426953598	1.085	342.206		GetAnswer	Gain
23.0	1	342.224	0.018	401.657	8.9	4.38	29.7124	4.0	955.0	2.0	Outcome2	8.77	8.9	0.0	No		0.12570781426953598				ShowChoice	Gain
23.0	1	346.253	0.029	405.686	8.9	4.38	29.7124	1.0	955.0	2.0	Outcome2	8.77	8.9	0.0	No		0.12570781426953598				ShowResult	Gain
23.0	1	347.273	0.02	406.706	8.9	4.38	29.7124	8.0	955.0	2.0	Outcome2	8.77	8.9	0.0	No		0.12570781426953598				ISITrial	Gain
24.0	1	355.297	0.024	414.73	13.3	6.58	31.3749	3.0	955.0	2.48	Outcome1	13.3	13.17	3255.0	Yes	2.0	0.129105322763307	0.999	356.296		GetAnswer	Loss
24.0	1	356.316	0.02	415.749	13.3	6.58	31.3749	4.0	955.0	2.48	Outcome1	13.3	13.17	3255.0	Yes		0.129105322763307				ShowChoice	Loss
24.0	1	360.345	0.029	419.778	13.3	6.58	31.3749	1.0	955.0	2.48	Outcome1	13.3	13.17	3255.0	Yes		0.129105322763307				ShowResult	Loss
24.0	1	361.365	0.02	420.798	13.3	6.58	31.3749	2.0	955.0	2.48	Outcome1	13.3	13.17	3255.0	Yes		0.129105322763307				ISITrial	Loss
24.0	1	366.664	0.021	426.097	13.3	6.58	31.3749	1.945	955.0	2.48	Outcome1	13.3	13.17	3255.0	Yes		0.129105322763307			952.0	TrialHappiness	Loss
24.0	1	370.693	4.029	430.126	13.3	6.58	31.3749	5.02	955.0	2.48	Outcome1	13.3	13.17	3255.0	Yes		0.129105322763307				ISIRate	Loss
25.0	1	375.741	0.028	435.174	1.0	1.0	31.4999	3.0	955.0	0.4	Certain	0.77	0.9	0.0	No	4.0	0.13250283125707799	2.097	377.838		GetAnswer	Mixed
25.0	1	377.864	0.026	437.297	1.0	1.0	31.4999	4.0	955.0	0.4	Certain	0.77	0.9	0.0	No		0.13250283125707799				ShowChoice	Mixed
25.0	1	381.893	0.029	441.326	1.0	1.0	31.4999	1.0	955.0	0.4	Certain	0.77	0.9	0.0	No		0.13250283125707799				ShowResult	Mixed
25.0	1	382.913	0.02	442.346	1.0	1.0	31.4999	3.749	955.0	0.4	Certain	0.77	0.9	0.0	No		0.13250283125707799				ISITrial	Mixed
26.0	1	386.691	0.029	446.124	-0.7	-1.0	31.4124	3.0	955.0	0.66	Outcome1	-0.7	-0.84	0.0	No	2.0	0.135900339750849	1.854	388.545		GetAnswer	Mixed
26.0	1	388.563	0.018	447.996	-0.7	-1.0	31.4124	4.0	955.0	0.66	Outcome1	-0.7	-0.84	0.0	No		0.135900339750849				ShowChoice	Mixed
26.0	1	392.592	0.029	452.025	-0.7	-1.0	31.4124	1.0	955.0	0.66	Outcome1	-0.7	-0.84	0.0	No		0.135900339750849				ShowResult	Mixed
26.0	1	393.611	0.019	453.044	-0.7	-1.0	31.4124	7.834	955.0	0.66	Outcome1	-0.7	-0.84	0.0	No		0.135900339750849				ISITrial	Mixed
27.0	1	401.468	0.023	460.901	7.5	3.68	32.3499	3.0	955.0	2.8	Outcome1	7.5	7.36	2549.75	Yes	2.0	0.13929784824462102	0.893	402.361		GetAnswer	Gain
27.0	1	402.388	0.027	461.821	7.5	3.68	32.3499	4.0	955.0	2.8	Outcome1	7.5	7.36	2549.75	Yes		0.13929784824462102				ShowChoice	Gain
27.0	1	406.417	0.029	465.85	7.5	3.68	32.3499	1.0	955.0	2.8	Outcome1	7.5	7.36	2549.75	Yes		0.13929784824462102				ShowResult	Gain
27.0	1	407.436	0.019	466.869	7.5	3.68	32.3499	4.225	955.0	2.8	Outcome1	7.5	7.36	2549.75	Yes		0.13929784824462102				ISITrial	Gain
27.0	1	414.257	0.025	473.69	7.5	3.68	32.3499	1.827	955.0	2.8	Outcome1	7.5	7.36	2549.75	Yes		0.13929784824462102			952.0	TrialHappiness	Gain
27.0	1	418.285	4.028	477.718	7.5	3.68	32.3499	2.199	955.0	2.8	Outcome1	7.5	7.36	2549.75	Yes		0.13929784824462102				ISIRate	Gain
	1	420.509	0.025	479.942				-0.001								{SPACE}		79.8	500.309		Rest	
	1	500.331	0.022	559.764				4.0													BlockHappyPreview	
	1	504.343	0.012	563.776				1.93												952.0	BlockStartHappiness	
	1	509.776	0.027	569.209				-0.001								5.0		2.381	512.157		ScanWait	
	2	0.025	0.025	571.616				10.0													GetReady	
28.0	2	10.056	0.031	581.647	-9.0	-9.0	31.2249	3.0	70.0	0.2	Certain	-16.5	-1.5	0.0	No	4.0	-15.0	2.957	13.013		GetAnswer	Mixed
28.0	2	13.031	0.018	584.622	-9.0	-9.0	31.2249	4.0	70.0	0.2	Certain	-16.5	-1.5	0.0	No		-15.0				ShowChoice	Mixed
28.0	2	17.06	0.029	588.651	-9.0	-9.0	31.2249	1.0	70.0	0.2	Certain	-16.5	-1.5	0.0	No		-15.0				ShowResult	Mixed
28.0	2	18.08	0.02	589.671	-9.0	-9.0	31.2249	3.575	70.0	0.2	Certain	-16.5	-1.5	0.0	No		-15.0				ISITrial	Mixed
29.0	2	21.674	0.019	593.265	-10.9	-3.0	29.8624	3.0	70.0	2.22	Outcome1	-10.9	5.1	3529.0	Yes	2.0	-16.0	2.01	23.684		GetAnswer	Gain
29.0	2	23.713	0.029	595.304	-10.9	-3.0	29.8624	4.0	70.0	2.22	Outcome1	-10.9	5.1	3529.0	Yes		-16.0				ShowChoice	Gain
29.0	2	27.725	0.012	599.316	-10.9	-3.0	29.8624	1.0	70.0	2.22	Outcome1	-10.9	5.1	3529.0	Yes		-16.0				ShowResult	Gain
29.0	2	28.745	0.02	600.336	-10.9	-3.0	29.8624	3.955	70.0	2.22	Outcome1	-10.9	5.1	3529.0	Yes		-16.0				ISITrial	Gain
29.0	2	36.284	0.032	607.875	-10.9	-3.0	29.8624	2.439	70.0	2.22	Outcome1	-10.9	5.1	3529.0	Yes		-16.0			924.0	TrialHappiness	Gain
29.0	2	40.313	4.029	611.904	-10.9	-3.0	29.8624	6.116	70.0	2.22	Outcome1	-10.9	5.1	3529.0	Yes		-16.0				ISIRate	Gain
30.0	2	46.448	0.019	618.039	-17.02	-9.0	27.7349	3.0	70.0	0.82	Outcome2	-0.5	-17.02	0.0	No		-16.5238095238095				GetAnswer	Mixed
30.0	2	49.474	0.026	621.065	-17.02	-9.0	27.7349	4.0	70.0	0.82	Outcome2	-0.5	-17.02	0.0	No		-16.5238095238095				ShowChoice	Mixed
30.0	2	53.502	0.028	625.093	-17.02	-9.0	27.7349	1.0	70.0	0.82	Outcome2	-0.5	-17.02	0.0	No		-16.5238095238095				ShowResult	Mixed
30.0	2	54.522	0.02	626.113	-17.02	-9.0	27.7349	4.453	70.0	0.82	Outcome2	-0.5	-17.02	0.0	No		-16.5238095238095				ISITrial	Mixed
31.0	2	59.002	0.027	630.593	0.0	0.0	27.7349	3.0	70.0	2.0	Certain	-2.49	1.23	2503.25	Yes	4.0	3.7169312169312203	1.763	60.765		GetAnswer	Gain
31.0	2	60.791	0.026	632.382	0.0	0.0	27.7349	4.0	70.0	2.0	Certain	-2.49	1.23	2503.25	Yes		3.7169312169312203				ShowChoice	Gain
31.0	2	64.82	0.029	636.411	0.0	0.0	27.7349	1.0	70.0	2.0	Certain	-2.49	1.23	2503.25	Yes		3.7169312169312203				ShowResult	Gain
31.0	2	65.839	0.019	637.43	0.0	0.0	27.7349	4.786	70.0	2.0	Certain	-2.49	1.23	2503.25	Yes		3.7169312169312203				ISITrial	Gain
31.0	2	73.178	0.021	644.769	0.0	0.0	27.7349	1.695	70.0	2.0	Certain	-2.49	1.23	2503.25	Yes		3.7169312169312203			912.0	TrialHappiness	Gain
31.0	2	77.19	4.012	648.781	0.0	0.0	27.7349	2.013	70.0	2.0	Certain	-2.49	1.23	2503.25	Yes		3.7169312169312203				ISIRate	Gain
32.0	2	79.229	0.026	650.82	-8.96	0.0	26.6149	3.0	70.0	2.48	Outcome2	9.3	-8.96	0.0	No		-18.256235827664398				GetAnswer	Gain
32.0	2	82.255	0.026	653.846	-8.96	0.0	26.6149	4.0	70.0	2.48	Outcome2	9.3	-8.96	0.0	No		-18.256235827664398				ShowChoice	Gain
32.0	2	86.267	0.012	657.858	-8.96	0.0	26.6149	1.0	70.0	2.48	Outcome2	9.3	-8.96	0.0	No		-18.256235827664398				ShowResult	Gain
32.0	2	87.287	0.02	658.878	-8.96	0.0	26.6149	2.0	70.0	2.48	Outcome2	9.3	-8.96	0.0	No		-18.256235827664398				ISITrial	Gain
33.0	2	89.31	0.023	660.901	-7.0	-7.0	25.7399	3.0	70.0	0.3	Certain	2.7	-16.51	0.0	No	4.0	-19.210884353741502	1.641	90.951		GetAnswer	Mixed
33.0	2	90.965	0.014	662.556	-7.0	-7.0	25.7399	4.0	70.0	0.3	Certain	2.7	-16.51	0.0	No		-19.210884353741502				ShowChoice	Mixed
33.0	2	94.977	0.012	666.568	-7.0	-7.0	25.7399	1.0	70.0	0.3	Certain	2.7	-16.51	0.0	No		-19.210884353741502				ShowResult	Mixed
33.0	2	95.996	0.019	667.587	-7.0	-7.0	25.7399	5.099	70.0	0.3	Certain	2.7	-16.51	0.0	No		-19.210884353741502				ISITrial	Mixed
34.0	2	101.112	0.017	672.703	-4.0	-4.0	25.2399	3.0	70.0	4.2	Certain	6.1	-14.07	3231.5	Yes	4.0	-20.165532879818603	2.196	103.308		GetAnswer	Gain
34.0	2	103.318	0.01	674.909	-4.0	-4.0	25.2399	4.0	70.0	4.2	Certain	6.1	-14.07	3231.5	Yes		-20.165532879818603				ShowChoice	Gain
34.0	2	107.33	0.012	678.921	-4.0	-4.0	25.2399	1.0	70.0	4.2	Certain	6.1	-14.07	3231.5	Yes		-20.165532879818603				ShowResult	Gain
34.0	2	108.35	0.02	679.941	-4.0	-4.0	25.2399	4.784	70.0	4.2	Certain	6.1	-14.07	3231.5	Yes		-20.165532879818603				ISITrial	Gain
34.0	2	116.408	0.028	687.999	-4.0	-4.0	25.2399	2.388	70.0	4.2	Certain	6.1	-14.07	3231.5	Yes		-20.165532879818603			912.0	TrialHappiness	Gain
34.0	2	120.42	4.012	692.011	-4.0	-4.0	25.2399	4.926	70.0	4.2	Certain	6.1	-14.07	3231.5	Yes		-20.165532879818603				ISIRate	Gain
35.0	2	125.368	0.022	696.959	2.98	1.0	25.6124	3.0	70.0	3.6	Outcome1	2.98	-1.01	0.0	No	2.0	3.9875283446711998	2.048	127.416		GetAnswer	Loss
35.0	2	127.441	0.025	699.032	2.98	1.0	25.6124	4.0	70.0	3.6	Outcome1	2.98	-1.01	0.0	No		3.9875283446711998				ShowChoice	Loss
35.0	2	131.453	0.012	703.044	2.98	1.0	25.6124	1.0	70.0	3.6	Outcome1	2.98	-1.01	0.0	No		3.9875283446711998				ShowResult	Loss
35.0	2	132.472	0.019	704.063	2.98	1.0	25.6124	2.098	70.0	3.6	Outcome1	2.98	-1.01	0.0	No		3.9875283446711998				ISITrial	Loss
36.0	2	134.595	0.025	706.186	2.12	0.0	25.8774	3.0	70.0	1.68	Outcome2	-1.95	2.12	3335.75	Yes	2.0	4.0670823885109595	2.959	137.554		GetAnswer	Gain
36.0	2	137.571	0.017	709.162	2.12	0.0	25.8774	4.0	70.0	1.68	Outcome2	-1.95	2.12	3335.75	Yes		4.0670823885109595				ShowChoice	Gain
36.0	2	141.583	0.012	713.174	2.12	0.0	25.8774	1.0	70.0	1.68	Outcome2	-1.95	2.12	3335.75	Yes		4.0670823885109595				ShowResult	Gain
36.0	2	142.603	0.02	714.194	2.12	0.0	25.8774	5.156	70.0	1.68	Outcome2	-1.95	2.12	3335.75	Yes		4.0670823885109595				ISITrial	Gain
36.0	2	151.145	0.024	722.736	2.12	0.0	25.8774	1.747	70.0	1.68	Outcome2	-1.95	2.12	3335.75	Yes		4.0670823885109595			940.0	TrialHappiness	Gain
36.0	2	155.157	4.012	726.748	2.12	0.0	25.8774	5.343	70.0	1.68	Outcome2	-1.95	2.12	3335.75	Yes		4.0670823885109595				ISIRate	Gain
37.0	2	160.523	0.023	732.114	-4.0	-4.0	25.3774	3.0	70.0	2.22	Certain	-16.41	7.1	0.0	No	4.0	-23.505668934240397	1.905	162.428		GetAnswer	Gain
37.0	2	162.445	0.017	734.036	-4.0	-4.0	25.3774	4.0	70.0	2.22	Certain	-16.41	7.1	0.0	No		-23.505668934240397				ShowChoice	Gain
37.0	2	166.457	0.012	738.048	-4.0	-4.0	25.3774	1.0	70.0	2.22	Certain	-16.41	7.1	0.0	No		-23.505668934240397				ShowResult	Gain
37.0	2	167.477	0.02	739.068	-4.0	-4.0	25.3774	3.598	70.0	2.22	Certain	-16.41	7.1	0.0	No		-23.505668934240397				ISITrial	Gain
38.0	2	171.105	0.03	742.696	-10.0	-10.0	24.1274	3.0	70.0	1.5	Certain	2.1	-22.39	0.0	No	4.0	-24.492063492063497	1.612	172.717		GetAnswer	Mixed
38.0	2	172.743	0.026	744.334	-10.0	-10.0	24.1274	4.0	70.0	1.5	Certain	2.1	-22.39	0.0	No		-24.492063492063497				ShowChoice	Mixed
38.0	2	176.755	0.012	748.346	-10.0	-10.0	24.1274	1.0	70.0	1.5	Certain	2.1	-22.39	0.0	No		-24.492063492063497				ShowResult	Mixed
38.0	2	177.775	0.02	749.366	-10.0	-10.0	24.1274	4.787	70.0	1.5	Certain	2.1	-22.39	0.0	No		-24.492063492063497				ISITrial	Mixed
39.0	2	182.589	0.027	754.18	2.48	0.0	24.4374	3.0	70.0	3.6	Outcome1	2.48	-1.94	2864.25	Yes	2.0	4.42479213907785	1.877	184.466		GetAnswer	Gain
39.0	2	184.478	0.012	756.069	2.48	0.0	24.4374	4.0	70.0	3.6	Outcome1	2.48	-1.94	2864.25	Yes		4.42479213907785				ShowChoice	Gain
39.0	2	188.49	0.012	760.081	2.48	0.0	24.4374	1.0	70.0	3.6	Outcome1	2.48	-1.94	2864.25	Yes		4.42479213907785				ShowResult	Gain
39.0	2	189.51	0.02	761.101	2.48	0.0	24.4374	2.348	70.0	3.6	Outcome1	2.48	-1.94	2864.25	Yes		4.42479213907785				ISITrial	Gain
39.0	2	194.776	0.028	766.367	2.48	0.0	24.4374	2.387	70.0	3.6	Outcome1	2.48	-1.94	2864.25	Yes		4.42479213907785			952.0	TrialHappiness	Gain
39.0	2	198.788	4.012	770.379	2.48	0.0	24.4374	3.457	70.0	3.6	Outcome1	2.48	-1.94	2864.25	Yes		4.42479213907785				ISIRate	Gain
40.0	2	202.265	0.02	773.856	-14.0	-14.0	22.6874	3.0	70.0	0.3	Certain	-27.97	-1.3	0.0	No	4.0	-26.668934240362802	1.68	203.945		GetAnswer	Mixed
40.0	2	203.97	0.025	775.561	-14.0	-14.0	22.6874	4.0	70.0	0.3	Certain	-27.97	-1.3	0.0	No		-26.668934240362802				ShowChoice	Mixed
40.0	2	207.982	0.012	779.573	-14.0	-14.0	22.6874	1.0	70.0	0.3	Certain	-27.97	-1.3	0.0	No		-26.668934240362802				ShowResult	Mixed
40.0	2	209.002	0.02	780.593	-14.0	-14.0	22.6874	3.158	70.0	0.3	Certain	-27.97	-1.3	0.0	No		-26.668934240362802				ISITrial	Mixed
41.0	2	212.178	0.018	783.769	-7.0	-7.0	21.8124	3.0	70.0	1.82	Certain	6.7	-20.97	4000.0	Yes	4.0	-27.668934240362802	2.679	214.857		GetAnswer	Gain
41.0	2	214.869	0.012	786.46	-7.0	-7.0	21.8124	4.0	70.0	1.82	Certain	6.7	-20.97	4000.0	Yes		-27.668934240362802				ShowChoice	Gain
41.0	2	218.881	0.012	790.472	-7.0	-7.0	21.8124	1.0	70.0	1.82	Certain	6.7	-20.97	4000.0	Yes		-27.668934240362802				ShowResult	Gain
41.0	2	219.901	0.02	791.492	-7.0	-7.0	21.8124	4.506	70.0	1.82	Certain	6.7	-20.97	4000.0	Yes		-27.668934240362802				ISITrial	Gain
41.0	2	228.46	0.029	800.051	-7.0	-7.0	21.8124	2.859	70.0	1.82	Certain	6.7	-20.97	4000.0	Yes		-27.668934240362802			952.0	TrialHappiness	Gain
41.0	2	232.472	4.012	804.063	-7.0	-7.0	21.8124	8.0	70.0	1.82	Certain	6.7	-20.97	4000.0	Yes		-27.668934240362802				ISIRate	Gain
42.0	2	240.496	0.024	812.087	-18.17	-4.0	19.5411	3.0	70.0	1.68	Outcome1	-18.17	10.5	0.0	No	2.0	-28.668934240362802	2.524	243.02		GetAnswer	Loss
42.0	2	243.037	0.017	814.628	-18.17	-4.0	19.5411	4.0	70.0	1.68	Outcome1	-18.17	10.5	0.0	No		-28.668934240362802				ShowChoice	Loss
42.0	2	247.049	0.012	818.64	-18.17	-4.0	19.5411	1.0	70.0	1.68	Outcome1	-18.17	10.5	0.0	No		-28.668934240362802				ShowResult	Loss
42.0	2	248.069	0.02	819.66	-18.17	-4.0	19.5411	6.248	70.0	1.68	Outcome1	-18.17	10.5	0.0	No		-28.668934240362802				ISITrial	Loss
43.0	2	254.337	0.02	825.928	-4.0	-4.0	19.0411	3.0	70.0	2.0	Certain	-18.77	10.9	2775.75	Yes	4.0	-29.668934240362802	2.222	256.559		GetAnswer	Loss
43.0	2	256.578	0.019	828.169	-4.0	-4.0	19.0411	4.0	70.0	2.0	Certain	-18.77	10.9	2775.75	Yes		-29.668934240362802				ShowChoice	Loss
43.0	2	260.59	0.012	832.181	-4.0	-4.0	19.0411	1.0	70.0	2.0	Certain	-18.77	10.9	2775.75	Yes		-29.668934240362802				ShowResult	Loss
43.0	2	261.609	0.019	833.2	-4.0	-4.0	19.0411	4.596	70.0	2.0	Certain	-18.77	10.9	2775.75	Yes		-29.668934240362802				ISITrial	Loss
43.0	2	269.015	0.016	840.606	-4.0	-4.0	19.0411	3.353	70.0	2.0	Certain	-18.77	10.9	2775.75	Yes		-29.668934240362802			948.0	TrialHappiness	Loss
43.0	2	273.027	4.012	844.618	-4.0	-4.0	19.0411	3.103	70.0	2.0	Certain	-18.77	10.9	2775.75	Yes		-29.668934240362802				ISIRate	Loss
44.0	2	276.153	0.023	847.744	-9.0	-9.0	17.9161	3.0	70.0	3.16	Certain	5.7	-24.9	0.0	No	4.0	-30.600907029478503	2.141	278.294		GetAnswer	Gain
44.0	2	278.309	0.015	849.9	-9.0	-9.0	17.9161	4.0	70.0	3.16	Certain	5.7	-24.9	0.0	No		-30.600907029478503				ShowChoice	Gain
44.0	2	282.321	0.012	853.912	-9.0	-9.0	17.9161	1.0	70.0	3.16	Certain	5.7	-24.9	0.0	No		-30.600907029478503				ShowResult	Gain
44.0	2	283.341	0.02	854.932	-9.0	-9.0	17.9161	2.42	70.0	3.16	Certain	5.7	-24.9	0.0	No		-30.600907029478503				ISITrial	Gain
45.0	2	285.782	0.021	857.373	-17.0	-17.0	15.7911	3.0	70.0	0.4	Certain	-1.1	-32.7	0.0	No	4.0	-31.5963718820862	2.663	288.445		GetAnswer	Mixed
45.0	2	288.456	0.011	860.047	-17.0	-17.0	15.7911	4.0	70.0	0.4	Certain	-1.1	-32.7	0.0	No		-31.5963718820862				ShowChoice	Mixed
45.0	2	292.468	0.012	864.059	-17.0	-17.0	15.7911	1.0	70.0	0.4	Certain	-1.1	-32.7	0.0	No		-31.5963718820862				ShowResult	Mixed
45.0	2	293.488	0.02	865.079	-17.0	-17.0	15.7911	3.144	70.0	0.4	Certain	-1.1	-32.7	0.0	No		-31.5963718820862				ISITrial	Mixed
46.0	2	296.648	0.016	868.239	-12.0	-12.0	14.2911	3.0	70.0	1.68	Certain	4.5	-28.09	3841.25	Yes	4.0	-32.5918367346939	1.946	298.594		GetAnswer	Gain
46.0	2	298.62	0.025	870.211	-12.0	-12.0	14.2911	4.0	70.0	1.68	Certain	4.5	-28.09	3841.25	Yes		-32.5918367346939				ShowChoice	Gain
46.0	2	302.632	0.012	874.223	-12.0	-12.0	14.2911	1.0	70.0	1.68	Certain	4.5	-28.09	3841.25	Yes		-32.5918367346939				ShowResult	Gain
46.0	2	303.652	0.02	875.243	-12.0	-12.0	14.2911	2.246	70.0	1.68	Certain	4.5	-28.09	3841.25	Yes		-32.5918367346939				ISITrial	Gain
46.0	2	309.77	0.02	881.361	-12.0	-12.0	14.2911	1.21	70.0	1.68	Certain	4.5	-28.09	3841.25	Yes	2{-2}	-32.5918367346939	1.21	310.98	912.0	TrialHappiness	Gain
46.0	2	313.782	4.012	885.373	-12.0	-12.0	14.2911	7.365	70.0	1.68	Certain	4.5	-28.09	3841.25	Yes		-32.5918367346939				ISIRate	Gain
47.0	2	321.171	0.024	892.762	-32.48	-16.0	10.2311	3.0	70.0	0.2	Outcome1	-32.48	0.5	0.0	No	2.0	-32.9750566893424	1.965	323.136		GetAnswer	Mixed
47.0	2	323.16	0.024	894.751	-32.48	-16.0	10.2311	4.0	70.0	0.2	Outcome1	-32.48	0.5	0.0	No		-32.9750566893424				ShowChoice	Mixed
47.0	2	327.172	0.012	898.763	-32.48	-16.0	10.2311	1.0	70.0	0.2	Outcome1	-32.48	0.5	0.0	No		-32.9750566893424				ShowResult	Mixed
47.0	2	328.192	0.02	899.783	-32.48	-16.0	10.2311	2.0	70.0	0.2	Outcome1	-32.48	0.5	0.0	No		-32.9750566893424				ISITrial	Mixed
48.0	2	330.215	0.023	901.806	-21.03	-4.0	7.6023	3.0	70.0	2.0	Outcome2	12.9	-21.03	2831.75	Yes	2.0	-33.9297052154195	1.673	331.888		GetAnswer	Loss
48.0	2	331.903	0.015	903.494	-21.03	-4.0	7.6023	4.0	70.0	2.0	Outcome2	12.9	-21.03	2831.75	Yes		-33.9297052154195				ShowChoice	Loss
48.0	2	335.915	0.012	907.506	-21.03	-4.0	7.6023	1.0	70.0	2.0	Outcome2	12.9	-21.03	2831.75	Yes		-33.9297052154195				ShowResult	Loss
48.0	2	336.935	0.02	908.526	-21.03	-4.0	7.6023	3.692	70.0	2.0	Outcome2	12.9	-21.03	2831.75	Yes		-33.9297052154195				ISITrial	Loss
48.0	2	343.505	0.027	915.096	-21.03	-4.0	7.6023	2.123	70.0	2.0	Outcome2	12.9	-21.03	2831.75	Yes		-33.9297052154195			904.0	TrialHappiness	Loss
48.0	2	347.517	4.012	919.108	-21.03	-4.0	7.6023	3.327	70.0	2.0	Outcome2	12.9	-21.03	2831.75	Yes		-33.9297052154195				ISIRate	Loss
49.0	2	350.86	0.016	922.451	-12.0	-12.0	6.1023	3.0	70.0	2.8	Certain	-29.25	5.5	0.0	No	4.0	-34.7482993197279	1.364	352.224		GetAnswer	Gain
49.0	2	352.248	0.024	923.839	-12.0	-12.0	6.1023	4.0	70.0	2.8	Certain	-29.25	5.5	0.0	No		-34.7482993197279				ShowChoice	Gain
49.0	2	356.26	0.012	927.851	-12.0	-12.0	6.1023	1.0	70.0	2.8	Certain	-29.25	5.5	0.0	No		-34.7482993197279				ShowResult	Gain
49.0	2	357.279	0.019	928.87	-12.0	-12.0	6.1023	8.0	70.0	2.8	Certain	-29.25	5.5	0.0	No		-34.7482993197279				ISITrial	Gain
50.0	2	365.303	0.024	936.894	3.12	0.0	6.4923	3.0	70.0	1.68	Outcome2	-2.06	3.12	3547.25	Yes	2.0	5.180839002267571	1.642	366.945		GetAnswer	Loss
50.0	2	366.958	0.013	938.549	3.12	0.0	6.4923	4.0	70.0	1.68	Outcome2	-2.06	3.12	3547.25	Yes		5.180839002267571				ShowChoice	Loss
50.0	2	370.97	0.012	942.561	3.12	0.0	6.4923	1.0	70.0	1.68	Outcome2	-2.06	3.12	3547.25	Yes		5.180839002267571				ShowResult	Loss
50.0	2	371.99	0.02	943.581	3.12	0.0	6.4923	7.537	70.0	1.68	Outcome2	-2.06	3.12	3547.25	Yes		5.180839002267571				ISITrial	Loss
50.0	2	383.123	0.03	954.714	3.12	0.0	6.4923	2.661	70.0	1.68	Outcome2	-2.06	3.12	3547.25	Yes		5.180839002267571			928.0	TrialHappiness	Loss
50.0	2	387.135	4.012	958.726	3.12	0.0	6.4923	6.189	70.0	1.68	Outcome2	-2.06	3.12	3547.25	Yes		5.180839002267571				ISIRate	Loss
51.0	2	393.354	0.03	964.945	-25.55	-7.0	3.2985	3.0	70.0	2.8	Outcome1	-25.55	11.5	0.0	No	2.0	-37.0476190476191	2.294	395.648		GetAnswer	Loss
51.0	2	395.661	0.013	967.252	-25.55	-7.0	3.2985	4.0	70.0	2.8	Outcome1	-25.55	11.5	0.0	No		-37.0476190476191				ShowChoice	Loss
51.0	2	399.673	0.012	971.264	-25.55	-7.0	3.2985	1.0	70.0	2.8	Outcome1	-25.55	11.5	0.0	No		-37.0476190476191				ShowResult	Loss
51.0	2	400.693	0.02	972.284	-25.55	-7.0	3.2985	5.508	70.0	2.8	Outcome1	-25.55	11.5	0.0	No		-37.0476190476191				ISITrial	Loss
52.0	2	406.226	0.025	977.817	-31.72	-12.0	-0.6665	3.0	70.0	5.0	Outcome1	-31.72	6.3	0.0	No	2.0	-38.020408163265294	2.034	408.26		GetAnswer	Gain
52.0	2	408.282	0.022	979.873	-31.72	-12.0	-0.6665	4.0	70.0	5.0	Outcome1	-31.72	6.3	0.0	No		-38.020408163265294				ShowChoice	Gain
52.0	2	412.294	0.012	983.885	-31.72	-12.0	-0.6665	1.0	70.0	5.0	Outcome1	-31.72	6.3	0.0	No		-38.020408163265294				ShowResult	Gain
52.0	2	413.314	0.02	984.905	-31.72	-12.0	-0.6665	5.913	70.0	5.0	Outcome1	-31.72	6.3	0.0	No		-38.020408163265294				ISITrial	Gain
53.0	2	419.248	0.021	990.839	-26.69	-7.0	-4.0027	3.0	70.0	5.0	Outcome2	12.3	-26.69	2996.75	Yes	2.0	-38.9931972789116	1.907	421.155		GetAnswer	Loss
53.0	2	421.171	0.016	992.762	-26.69	-7.0	-4.0027	4.0	70.0	5.0	Outcome2	12.3	-26.69	2996.75	Yes		-38.9931972789116				ShowChoice	Loss
53.0	2	425.183	0.012	996.774	-26.69	-7.0	-4.0027	1.0	70.0	5.0	Outcome2	12.3	-26.69	2996.75	Yes		-38.9931972789116				ShowResult	Loss
53.0	2	426.202	0.019	997.793	-26.69	-7.0	-4.0027	3.66	70.0	5.0	Outcome2	12.3	-26.69	2996.75	Yes		-38.9931972789116				ISITrial	Loss
53.0	2	432.906	0.029	1004.497	-26.69	-7.0	-4.0027	3.284	70.0	5.0	Outcome2	12.3	-26.69	2996.75	Yes		-38.9931972789116			896.0	TrialHappiness	Loss
53.0	2	436.918	4.012	1008.509	-26.69	-7.0	-4.0027	3.987	70.0	5.0	Outcome2	12.3	-26.69	2996.75	Yes		-38.9931972789116				ISIRate	Loss
54.0	2	440.93	0.025	1012.521	-37.52	-18.0	-8.6927	3.0	70.0	1.2	Outcome1	-37.52	1.9	0.0	No	2.0	-39.421768707483004	1.518	442.448		GetAnswer	Mixed
54.0	2	442.468	0.02	1014.059	-37.52	-18.0	-8.6927	4.0	70.0	1.2	Outcome1	-37.52	1.9	0.0	No		-39.421768707483004				ShowChoice	Mixed
54.0	2	446.48	0.012	1018.071	-37.52	-18.0	-8.6927	1.0	70.0	1.2	Outcome1	-37.52	1.9	0.0	No		-39.421768707483004				ShowResult	Mixed
54.0	2	447.5	0.02	1019.091	-37.52	-18.0	-8.6927	8.0	70.0	1.2	Outcome1	-37.52	1.9	0.0	No		-39.421768707483004				ISITrial	Mixed
	2	455.524	0.024	1027.115				-0.001								{SPACE}		43.914	499.438		Rest	
	2	499.455	0.017	1071.046				4.0													BlockHappyPreview	
	2	503.467	0.012	1075.058				1.929								2{-2}		1.929	505.396	920.0	BlockStartHappiness	
	2	508.934	0.024	1080.525				-0.001								5.0		1.998	510.932		ScanWait	
	3	0.024	0.024	1082.547				10.0													GetReady	
55.0	3	10.038	0.014	1092.561	1.5	1.0	-8.5052	3.0	955.0	0.82	Outcome1	1.5	0.91	2533.25	Yes	2.0	0.5945639864099661	1.132	11.17		GetAnswer	Mixed
55.0	3	11.191	0.021	1093.714	1.5	1.0	-8.5052	4.0	955.0	0.82	Outcome1	1.5	0.91	2533.25	Yes		0.5945639864099661				ShowChoice	Mixed
55.0	3	15.203	0.012	1097.726	1.5	1.0	-8.5052	1.0	955.0	0.82	Outcome1	1.5	0.91	2533.25	Yes		0.5945639864099661				ShowResult	Mixed
55.0	3	16.223	0.02	1098.746	1.5	1.0	-8.5052	7.709	955.0	0.82	Outcome1	1.5	0.91	2533.25	Yes		0.5945639864099661				ISITrial	Mixed
55.0	3	26.504	0.025	1109.027	1.5	1.0	-8.5052	2.581	955.0	0.82	Outcome1	1.5	0.91	2533.25	Yes		0.5945639864099661			932.0	TrialHappiness	Mixed
55.0	3	30.516	4.012	1113.039	1.5	1.0	-8.5052	2.133	955.0	0.82	Outcome1	1.5	0.91	2533.25	Yes		0.5945639864099661				ISIRate	Mixed
56.0	3	32.672	0.023	1115.195	5.9	2.74	-7.7677	3.0	955.0	3.6	Outcome1	5.9	5.47	0.0	No	2.0	0.43035107587769	1.014	33.686		GetAnswer	Gain
56.0	3	33.709	0.023	1116.232	5.9	2.74	-7.7677	4.0	955.0	3.6	Outcome1	5.9	5.47	0.0	No		0.43035107587769				ShowChoice	Gain
56.0	3	37.721	0.012	1120.244	5.9	2.74	-7.7677	1.0	955.0	3.6	Outcome1	5.9	5.47	0.0	No		0.43035107587769				ShowResult	Gain
56.0	3	38.74	0.019	1121.263	5.9	2.74	-7.7677	4.697	955.0	3.6	Outcome1	5.9	5.47	0.0	No		0.43035107587769				ISITrial	Gain
57.0	3	43.455	0.018	1125.978	0.3	0.0	-7.7302	3.0	955.0	2.0	Outcome1	0.3	-0.16	0.0	No	2.0	0.456398640996603	1.511	44.966		GetAnswer	Mixed
57.0	3	44.992	0.026	1127.515	0.3	0.0	-7.7302	4.0	955.0	2.0	Outcome1	0.3	-0.16	0.0	No		0.456398640996603				ShowChoice	Mixed
57.0	3	49.004	0.012	1131.527	0.3	0.0	-7.7302	1.0	955.0	2.0	Outcome1	0.3	-0.16	0.0	No		0.456398640996603				ShowResult	Mixed
57.0	3	50.024	0.02	1132.547	0.3	0.0	-7.7302	4.291	955.0	2.0	Outcome1	0.3	-0.16	0.0	No		0.456398640996603				ISITrial	Mixed
58.0	3	54.337	0.022	1136.86	1.0	1.0	-7.6052	3.0	955.0	0.66	Certain	0.82	1.3	3045.75	Yes	4.0	0.48244620611551503	1.527	55.864		GetAnswer	Mixed
58.0	3	55.875	0.011	1138.398	1.0	1.0	-7.6052	4.0	955.0	0.66	Certain	0.82	1.3	3045.75	Yes		0.48244620611551503				ShowChoice	Mixed
58.0	3	59.887	0.012	1142.41	1.0	1.0	-7.6052	1.0	955.0	0.66	Certain	0.82	1.3	3045.75	Yes		0.48244620611551503				ShowResult	Mixed
58.0	3	60.907	0.02	1143.43	1.0	1.0	-7.6052	2.037	955.0	0.66	Certain	0.82	1.3	3045.75	Yes		0.48244620611551503				ISITrial	Mixed
58.0	3	66.039	0.03	1148.562	1.0	1.0	-7.6052	1.678	955.0	0.66	Certain	0.82	1.3	3045.75	Yes		0.48244620611551503			952.0	TrialHappiness	Mixed
58.0	3	70.051	4.012	1152.574	1.0	1.0	-7.6052	4.183	955.0	0.66	Certain	0.82	1.3	3045.75	Yes		0.48244620611551503				ISIRate	Mixed
59.0	3	74.264	0.03	1156.787	0.68	0.0	-7.5202	3.0	955.0	0.3	Outcome2	0.7	0.68	0.0	No	2.0	-0.0219894299735749	1.046	75.31		GetAnswer	Mixed
59.0	3	75.333	0.023	1157.856	0.68	0.0	-7.5202	4.0	955.0	0.3	Outcome2	0.7	0.68	0.0	No		-0.0219894299735749				ShowChoice	Mixed
59.0	3	79.345	0.012	1161.868	0.68	0.0	-7.5202	1.0	955.0	0.3	Outcome2	0.7	0.68	0.0	No		-0.0219894299735749				ShowResult	Mixed
59.0	3	80.365	0.02	1162.888	0.68	0.0	-7.5202	5.064	955.0	0.3	Outcome2	0.7	0.68	0.0	No		-0.0219894299735749				ISITrial	Mixed
60.0	3	85.447	0.018	1167.97	8.7	4.26	-6.4327	3.0	955.0	1.82	Outcome1	8.7	8.53	3562.5	Yes	2.0	0.17214043035107598	0.97	86.417		GetAnswer	Gain
60.0	3	86.433	0.016	1168.956	8.7	4.26	-6.4327	4.0	955.0	1.82	Outcome1	8.7	8.53	3562.5	Yes		0.17214043035107598				ShowChoice	Gain
60.0	3	90.445	0.012	1172.968	8.7	4.26	-6.4327	1.0	955.0	1.82	Outcome1	8.7	8.53	3562.5	Yes		0.17214043035107598				ShowResult	Gain
60.0	3	91.465	0.02	1173.988	8.7	4.26	-6.4327	8.0	955.0	1.82	Outcome1	8.7	8.53	3562.5	Yes		0.17214043035107598				ISITrial	Gain
60.0	3	103.066	0.015	1185.589	8.7	4.26	-6.4327	1.628	955.0	1.82	Outcome1	8.7	8.53	3562.5	Yes		0.17214043035107598			952.0	TrialHappiness	Gain
60.0	3	107.079	4.013	1189.602	8.7	4.26	-6.4327	6.25	955.0	1.82	Outcome1	8.7	8.53	3562.5	Yes		0.17214043035107598				ISIRate	Gain
61.0	3	113.347	0.018	1195.87	6.88	3.44	-5.5727	3.0	955.0	2.0	Outcome1	6.88	6.9	0.0	No	2.0	-0.0225556813892035	0.928	114.275		GetAnswer	Gain
61.0	3	114.3	0.025	1196.823	6.88	3.44	-5.5727	4.0	955.0	2.0	Outcome1	6.88	6.9	0.0	No		-0.0225556813892035				ShowChoice	Gain
61.0	3	118.312	0.012	1200.835	6.88	3.44	-5.5727	1.0	955.0	2.0	Outcome1	6.88	6.9	0.0	No		-0.0225556813892035				ShowResult	Gain
61.0	3	119.332	0.02	1201.855	6.88	3.44	-5.5727	4.586	955.0	2.0	Outcome1	6.88	6.9	0.0	No		-0.0225556813892035				ISITrial	Gain
62.0	3	123.946	0.028	1206.469	2.9	1.36	-5.2102	3.0	955.0	0.4	Outcome1	2.9	2.72	3748.75	Yes	2.0	0.178935447338618	0.701	124.647		GetAnswer	Mixed
62.0	3	124.665	0.018	1207.188	2.9	1.36	-5.2102	4.0	955.0	0.4	Outcome1	2.9	2.72	3748.75	Yes		0.178935447338618				ShowChoice	Mixed
62.0	3	128.677	0.012	1211.2	2.9	1.36	-5.2102	1.0	955.0	0.4	Outcome1	2.9	2.72	3748.75	Yes		0.178935447338618				ShowResult	Mixed
62.0	3	129.696	0.019	1212.219	2.9	1.36	-5.2102	5.212	955.0	0.4	Outcome1	2.9	2.72	3748.75	Yes		0.178935447338618				ISITrial	Mixed
62.0	3	138.707	0.029	1221.23	2.9	1.36	-5.2102	1.611	955.0	0.4	Outcome1	2.9	2.72	3748.75	Yes		0.178935447338618			952.0	TrialHappiness	Mixed
62.0	3	142.719	4.012	1225.242	2.9	1.36	-5.2102	6.995	955.0	0.4	Outcome1	2.9	2.72	3748.75	Yes		0.178935447338618				ISIRate	Mixed
63.0	3	149.74	0.026	1232.263	4.28	2.14	-4.6752	3.0	955.0	2.0	Outcome2	4.3	4.28	0.0	No	2.0	-0.023121932804832	0.906	150.646		GetAnswer	Mixed
63.0	3	150.659	0.013	1233.182	4.28	2.14	-4.6752	4.0	955.0	2.0	Outcome2	4.3	4.28	0.0	No		-0.023121932804832				ShowChoice	Mixed
63.0	3	154.671	0.012	1237.194	4.28	2.14	-4.6752	1.0	955.0	2.0	Outcome2	4.3	4.28	0.0	No		-0.023121932804832				ShowResult	Mixed
63.0	3	155.691	0.02	1238.214	4.28	2.14	-4.6752	5.595	955.0	2.0	Outcome2	4.3	4.28	0.0	No		-0.023121932804832				ISITrial	Mixed
64.0	3	161.308	0.022	1243.831	11.28	5.64	-3.2652	3.0	955.0	2.48	Outcome1	11.28	11.3	0.0	No	2.0	-0.0234050585126463	0.821	162.129		GetAnswer	Loss
64.0	3	162.144	0.015	1244.667	11.28	5.64	-3.2652	4.0	955.0	2.48	Outcome1	11.28	11.3	0.0	No		-0.0234050585126463				ShowChoice	Loss
64.0	3	166.156	0.012	1248.679	11.28	5.64	-3.2652	1.0	955.0	2.48	Outcome1	11.28	11.3	0.0	No		-0.0234050585126463				ShowResult	Loss
64.0	3	167.175	0.019	1249.698	11.28	5.64	-3.2652	5.47	955.0	2.48	Outcome1	11.28	11.3	0.0	No		-0.0234050585126463				ISITrial	Loss
65.0	3	172.675	0.03	1255.198	8.3	4.06	-2.2277	3.0	955.0	5.0	Outcome1	8.3	8.11	2996.75	Yes	2.0	0.189127972819932	0.827	173.502		GetAnswer	Gain
65.0	3	173.528	0.026	1256.051	8.3	4.06	-2.2277	4.0	955.0	5.0	Outcome1	8.3	8.11	2996.75	Yes		0.189127972819932				ShowChoice	Gain
65.0	3	177.54	0.012	1260.063	8.3	4.06	-2.2277	1.0	955.0	5.0	Outcome1	8.3	8.11	2996.75	Yes		0.189127972819932				ShowResult	Gain
65.0	3	178.559	0.019	1261.082	8.3	4.06	-2.2277	3.344	955.0	5.0	Outcome1	8.3	8.11	2996.75	Yes		0.189127972819932				ISITrial	Gain
65.0	3	184.945	0.029	1267.468	8.3	4.06	-2.2277	1.78	955.0	5.0	Outcome1	8.3	8.11	2996.75	Yes		0.189127972819932			952.0	TrialHappiness	Gain
65.0	3	188.957	4.012	1271.48	8.3	4.06	-2.2277	3.987	955.0	5.0	Outcome1	8.3	8.11	2996.75	Yes		0.189127972819932				ISIRate	Gain
66.0	3	192.969	0.025	1275.492	0.0	0.0	-2.2277	3.0	955.0	1.2	Certain	-0.29	-0.1	0.0	No	4.0	0.19252548131370298	1.254	194.223		GetAnswer	Mixed
66.0	3	194.24	0.017	1276.763	0.0	0.0	-2.2277	4.0	955.0	1.2	Certain	-0.29	-0.1	0.0	No		0.19252548131370298				ShowChoice	Mixed
66.0	3	198.252	0.012	1280.775	0.0	0.0	-2.2277	1.0	955.0	1.2	Certain	-0.29	-0.1	0.0	No		0.19252548131370298				ShowResult	Mixed
66.0	3	199.271	0.019	1281.794	0.0	0.0	-2.2277	3.959	955.0	1.2	Certain	-0.29	-0.1	0.0	No		0.19252548131370298				ISITrial	Mixed
67.0	3	203.25	0.02	1285.773	-0.92	-1.0	-2.3427	3.0	955.0	0.52	Outcome2	-0.9	-0.92	2918.5	Yes	2.0	-0.0242544356360891	1.905	205.155		GetAnswer	Mixed
67.0	3	205.172	0.017	1287.695	-0.92	-1.0	-2.3427	4.0	955.0	0.52	Outcome2	-0.9	-0.92	2918.5	Yes		-0.0242544356360891				ShowChoice	Mixed
67.0	3	209.184	0.012	1291.707	-0.92	-1.0	-2.3427	1.0	955.0	0.52	Outcome2	-0.9	-0.92	2918.5	Yes		-0.0242544356360891				ShowResult	Mixed
67.0	3	210.204	0.02	1292.727	-0.92	-1.0	-2.3427	4.199	955.0	0.52	Outcome2	-0.9	-0.92	2918.5	Yes		-0.0242544356360891				ISITrial	Mixed
67.0	3	217.359	0.024	1299.882	-0.92	-1.0	-2.3427	1.762	955.0	0.52	Outcome2	-0.9	-0.92	2918.5	Yes		-0.0242544356360891			952.0	TrialHappiness	Mixed
67.0	3	221.371	4.012	1303.894	-0.92	-1.0	-2.3427	3.674	955.0	0.52	Outcome2	-0.9	-0.92	2918.5	Yes		-0.0242544356360891				ISIRate	Mixed
68.0	3	225.065	0.02	1307.588	13.48	6.74	-0.6577	3.0	955.0	2.8	Outcome2	13.5	13.48	0.0	No	2.0	-0.0245375613439034	0.965	226.03		GetAnswer	Loss
68.0	3	226.052	0.022	1308.575	13.48	6.74	-0.6577	4.0	955.0	2.8	Outcome2	13.5	13.48	0.0	No		-0.0245375613439034				ShowChoice	Loss
68.0	3	230.064	0.012	1312.587	13.48	6.74	-0.6577	1.0	955.0	2.8	Outcome2	13.5	13.48	0.0	No		-0.0245375613439034				ShowResult	Loss
68.0	3	231.083	0.019	1313.606	13.48	6.74	-0.6577	2.185	955.0	2.8	Outcome2	13.5	13.48	0.0	No		-0.0245375613439034				ISITrial	Loss
69.0	3	233.29	0.022	1315.813	4.7	2.25	-0.0702	3.0	955.0	1.82	Outcome2	4.5	4.7	0.0	No	2.0	0.202718006795017	1.044	234.334		GetAnswer	Gain
69.0	3	234.36	0.026	1316.883	4.7	2.25	-0.0702	4.0	955.0	1.82	Outcome2	4.5	4.7	0.0	No		0.202718006795017				ShowChoice	Gain
69.0	3	238.372	0.012	1320.895	4.7	2.25	-0.0702	1.0	955.0	1.82	Outcome2	4.5	4.7	0.0	No		0.202718006795017				ShowResult	Gain
69.0	3	239.392	0.02	1321.915	4.7	2.25	-0.0702	2.0	955.0	1.82	Outcome2	4.5	4.7	0.0	No		0.202718006795017				ISITrial	Gain
70.0	3	241.414	0.022	1323.937	9.1	4.44	1.0673	3.0	955.0	2.22	Outcome2	8.89	9.1	3651.25	Yes	2.0	0.206115515288788	0.765	242.179		GetAnswer	Gain
70.0	3	242.2	0.021	1324.723	9.1	4.44	1.0673	4.0	955.0	2.22	Outcome2	8.89	9.1	3651.25	Yes		0.206115515288788				ShowChoice	Gain
70.0	3	246.212	0.012	1328.735	9.1	4.44	1.0673	1.0	955.0	2.22	Outcome2	8.89	9.1	3651.25	Yes		0.206115515288788				ShowResult	Gain
70.0	3	247.232	0.02	1329.755	9.1	4.44	1.0673	2.623	955.0	2.22	Outcome2	8.89	9.1	3651.25	Yes		0.206115515288788				ISITrial	Gain
70.0	3	253.551	0.027	1336.074	9.1	4.44	1.0673	2.33	955.0	2.22	Outcome2	8.89	9.1	3651.25	Yes	2{-2}2{-2}	0.206115515288788	2.33	255.881	952.0	TrialHappiness	Gain
70.0	3	257.563	4.012	1340.086	9.1	4.44	1.0673	6.605	955.0	2.22	Outcome2	8.89	9.1	3651.25	Yes		0.206115515288788				ISIRate	Gain
71.0	3	264.199	0.031	1346.722	11.7	5.74	2.5298	3.0	955.0	3.16	Outcome1	11.7	11.49	0.0	No	2.0	0.20951302378256	0.977	265.176		GetAnswer	Loss
71.0	3	265.202	0.026	1347.725	11.7	5.74	2.5298	4.0	955.0	3.16	Outcome1	11.7	11.49	0.0	No		0.20951302378256				ShowChoice	Loss
71.0	3	269.214	0.012	1351.737	11.7	5.74	2.5298	1.0	955.0	3.16	Outcome1	11.7	11.49	0.0	No		0.20951302378256				ShowResult	Loss
71.0	3	270.234	0.02	1352.757	11.7	5.74	2.5298	5.499	955.0	3.16	Outcome1	11.7	11.49	0.0	No		0.20951302378256				ISITrial	Loss
72.0	3	275.751	0.018	1358.274	10.07	5.04	3.7886	3.0	955.0	4.2	Outcome2	10.1	10.07	3080.5	Yes	2.0	-0.0256700641751604	0.878	276.629		GetAnswer	Gain
72.0	3	276.653	0.024	1359.176	10.07	5.04	3.7886	4.0	955.0	4.2	Outcome2	10.1	10.07	3080.5	Yes		-0.0256700641751604				ShowChoice	Gain
72.0	3	280.665	0.012	1363.188	10.07	5.04	3.7886	1.0	955.0	4.2	Outcome2	10.1	10.07	3080.5	Yes		-0.0256700641751604				ShowResult	Gain
72.0	3	281.685	0.02	1364.208	10.07	5.04	3.7886	5.672	955.0	4.2	Outcome2	10.1	10.07	3080.5	Yes		-0.0256700641751604				ISITrial	Gain
72.0	3	290.478	0.029	1373.001	10.07	5.04	3.7886	1.495	955.0	4.2	Outcome2	10.1	10.07	3080.5	Yes		-0.0256700641751604			952.0	TrialHappiness	Gain
72.0	3	294.49	4.012	1377.013	10.07	5.04	3.7886	4.322	955.0	4.2	Outcome2	10.1	10.07	3080.5	Yes		-0.0256700641751604				ISIRate	Gain
73.0	3	298.836	0.024	1381.359	1.07	1.0	3.9224	3.0	955.0	0.52	Outcome2	1.1	1.07	0.0	No	2.0	-0.0259531898829747	1.467	300.303		GetAnswer	Mixed
73.0	3	300.324	0.021	1382.847	1.07	1.0	3.9224	4.0	955.0	0.52	Outcome2	1.1	1.07	0.0	No		-0.0259531898829747				ShowChoice	Mixed
73.0	3	304.336	0.012	1386.859	1.07	1.0	3.9224	1.0	955.0	0.52	Outcome2	1.1	1.07	0.0	No		-0.0259531898829747				ShowResult	Mixed
73.0	3	305.356	0.02	1387.879	1.07	1.0	3.9224	4.616	955.0	0.52	Outcome2	1.1	1.07	0.0	No		-0.0259531898829747				ISITrial	Mixed
74.0	3	310.003	0.031	1392.526	3.3	1.54	4.3349	3.0	955.0	0.66	Outcome2	3.08	3.3	3056.25	Yes	2.0	0.21970554926387303	1.112	311.115		GetAnswer	Mixed
74.0	3	311.14	0.025	1393.663	3.3	1.54	4.3349	4.0	955.0	0.66	Outcome2	3.08	3.3	3056.25	Yes		0.21970554926387303				ShowChoice	Mixed
74.0	3	315.152	0.012	1397.675	3.3	1.54	4.3349	1.0	955.0	0.66	Outcome2	3.08	3.3	3056.25	Yes		0.21970554926387303				ShowResult	Mixed
74.0	3	316.172	0.02	1398.695	3.3	1.54	4.3349	3.909	955.0	0.66	Outcome2	3.08	3.3	3056.25	Yes		0.21970554926387303				ISITrial	Mixed
74.0	3	323.176	0.02	1405.699	3.3	1.54	4.3349	2.398	955.0	0.66	Outcome2	3.08	3.3	3056.25	Yes		0.21970554926387303			952.0	TrialHappiness	Mixed
74.0	3	327.188	4.012	1409.711	3.3	1.54	4.3349	4.225	955.0	0.66	Outcome2	3.08	3.3	3056.25	Yes		0.21970554926387303				ISIRate	Mixed
75.0	3	331.434	0.021	1413.957	10.7	5.24	5.6724	3.0	955.0	1.82	Outcome1	10.7	10.48	0.0	No	2.0	0.223103057757645	0.847	332.281		GetAnswer	Loss
75.0	3	332.303	0.022	1414.826	10.7	5.24	5.6724	4.0	955.0	1.82	Outcome1	10.7	10.48	0.0	No		0.223103057757645				ShowChoice	Loss
75.0	3	336.315	0.012	1418.838	10.7	5.24	5.6724	1.0	955.0	1.82	Outcome1	10.7	10.48	0.0	No		0.223103057757645				ShowResult	Loss
75.0	3	337.335	0.02	1419.858	10.7	5.24	5.6724	4.979	955.0	1.82	Outcome1	10.7	10.48	0.0	No		0.223103057757645				ISITrial	Loss
76.0	3	342.333	0.019	1424.856	3.1	1.44	6.0599	3.0	955.0	0.52	Outcome2	2.87	3.1	0.0	No	2.0	0.226500566251416	1.109	343.442		GetAnswer	Mixed
76.0	3	343.453	0.011	1425.976	3.1	1.44	6.0599	4.0	955.0	0.52	Outcome2	2.87	3.1	0.0	No		0.226500566251416				ShowChoice	Mixed
76.0	3	347.465	0.012	1429.988	3.1	1.44	6.0599	1.0	955.0	0.52	Outcome2	2.87	3.1	0.0	No		0.226500566251416				ShowResult	Mixed
76.0	3	348.485	0.02	1431.008	3.1	1.44	6.0599	3.931	955.0	0.52	Outcome2	2.87	3.1	0.0	No		0.226500566251416				ISITrial	Mixed
77.0	3	352.447	0.031	1434.97	7.9	3.84	7.0474	3.0	955.0	3.6	Outcome2	7.67	7.9	4000.0	Yes	2.0	0.22989807474518698	1.013	353.46		GetAnswer	Gain
77.0	3	353.483	0.023	1436.006	7.9	3.84	7.0474	4.0	955.0	3.6	Outcome2	7.67	7.9	4000.0	Yes		0.22989807474518698				ShowChoice	Gain
77.0	3	357.496	0.013	1440.019	7.9	3.84	7.0474	1.0	955.0	3.6	Outcome2	7.67	7.9	4000.0	Yes		0.22989807474518698				ShowResult	Gain
77.0	3	358.515	0.019	1441.038	7.9	3.84	7.0474	7.022	955.0	3.6	Outcome2	7.67	7.9	4000.0	Yes		0.22989807474518698				ISITrial	Gain
77.0	3	369.582	0.029	1452.105	7.9	3.84	7.0474	1.444	955.0	3.6	Outcome2	7.67	7.9	4000.0	Yes		0.22989807474518698			952.0	TrialHappiness	Gain
77.0	3	373.594	4.012	1456.117	7.9	3.84	7.0474	8.0	955.0	3.6	Outcome2	7.67	7.9	4000.0	Yes		0.22989807474518698				ISIRate	Gain
78.0	3	381.618	0.024	1464.141	13.87	6.94	8.7812	3.0	955.0	3.6	Outcome2	13.9	13.87	0.0	No	2.0	-0.0273688184220461	0.694	382.312		GetAnswer	Loss
78.0	3	382.337	0.024	1464.86	13.87	6.94	8.7812	4.0	955.0	3.6	Outcome2	13.9	13.87	0.0	No		-0.0273688184220461				ShowChoice	Loss
78.0	3	386.349	0.012	1468.872	13.87	6.94	8.7812	1.0	955.0	3.6	Outcome2	13.9	13.87	0.0	No		-0.0273688184220461				ShowResult	Loss
78.0	3	387.368	0.019	1469.891	13.87	6.94	8.7812	2.078	955.0	3.6	Outcome2	13.9	13.87	0.0	No		-0.0273688184220461				ISITrial	Loss
79.0	3	389.475	0.029	1471.998	3.47	1.74	9.215	3.0	955.0	0.82	Outcome1	3.47	3.5	2729.5	Yes	2.0	-0.0276519441298603	1.172	390.647		GetAnswer	Mixed
79.0	3	390.662	0.015	1473.185	3.47	1.74	9.215	4.0	955.0	0.82	Outcome1	3.47	3.5	2729.5	Yes		-0.0276519441298603				ShowChoice	Mixed
79.0	3	394.674	0.012	1477.197	3.47	1.74	9.215	1.0	955.0	0.82	Outcome1	3.47	3.5	2729.5	Yes		-0.0276519441298603				ShowResult	Mixed
79.0	3	395.693	0.019	1478.216	3.47	1.74	9.215	3.829	955.0	0.82	Outcome1	3.47	3.5	2729.5	Yes		-0.0276519441298603				ISITrial	Mixed
79.0	3	402.296	0.028	1484.819	3.47	1.74	9.215	1.662	955.0	0.82	Outcome1	3.47	3.5	2729.5	Yes		-0.0276519441298603			952.0	TrialHappiness	Mixed
79.0	3	406.308	4.012	1488.831	3.47	1.74	9.215	2.918	955.0	0.82	Outcome1	3.47	3.5	2729.5	Yes		-0.0276519441298603				ISIRate	Mixed
80.0	3	409.251	0.025	1491.774	4.27	2.13	9.7488	3.0	955.0	2.0	Outcome2	4.3	4.27	0.0	No	2.0	-0.0279350698376746	0.799	410.05		GetAnswer	Mixed
80.0	3	410.07	0.02	1492.593	4.27	2.13	9.7488	4.0	955.0	2.0	Outcome2	4.3	4.27	0.0	No		-0.0279350698376746				ShowChoice	Mixed
80.0	3	414.082	0.012	1496.605	4.27	2.13	9.7488	1.0	955.0	2.0	Outcome2	4.3	4.27	0.0	No		-0.0279350698376746				ShowResult	Mixed
80.0	3	415.101	0.019	1497.624	4.27	2.13	9.7488	3.336	955.0	2.0	Outcome2	4.3	4.27	0.0	No		-0.0279350698376746				ISITrial	Mixed
81.0	3	418.462	0.025	1500.985	1.5	1.0	9.9363	3.0	955.0	0.82	Outcome1	1.5	1.26	3923.75	Yes	2.0	0.243488108720272	1.507	419.969		GetAnswer	Mixed
81.0	3	419.983	0.014	1502.506	1.5	1.0	9.9363	4.0	955.0	0.82	Outcome1	1.5	1.26	3923.75	Yes		0.243488108720272				ShowChoice	Mixed
81.0	3	423.995	0.012	1506.518	1.5	1.0	9.9363	1.0	955.0	0.82	Outcome1	1.5	1.26	3923.75	Yes		0.243488108720272				ShowResult	Mixed
81.0	3	425.014	0.019	1507.537	1.5	1.0	9.9363	3.919	955.0	0.82	Outcome1	1.5	1.26	3923.75	Yes		0.243488108720272				ISITrial	Mixed
81.0	3	432.888	0.021	1515.411	1.5	1.0	9.9363	2.03	955.0	0.82	Outcome1	1.5	1.26	3923.75	Yes		0.243488108720272			952.0	TrialHappiness	Mixed
81.0	3	436.9	4.012	1519.423	1.5	1.0	9.9363	7.695	955.0	0.82	Outcome1	1.5	1.26	3923.75	Yes		0.243488108720272				ISIRate	Mixed
	3	444.623	0.028	1527.146				3.0													CurrentEarnings	
	3	447.649	0.026	1530.172				-0.001								{SPACE}		46.273	493.922		Goodbye	
