trial_number	block	onset	onset_delay	onset_unadjusted	amount_change	certain_amount	current_amount	duration	mood_target	multiplier	outcome	outcome1_amount	outcome2_amount	question_duration	rating	response	rpe	rt	rt_time	slider_response	trial_phase	trial_type
	0	-51.681	0.033	34.838				-0.001								{SPACE}		7.265	-44.416		Welcome	
	0	-44.386	0.03	42.133				5.0													LifeHappyPreview	
	0	-39.355	0.031	47.164				4.037												736.0	LifeHappiness	
	0	-18.509	0.019	68.01				4.0													BlockHappyPreview	
	0	-14.497	0.012	72.022				1.647												532.0	BlockStartHappiness	
	0	-2.862	0.019	83.657				-0.001								5.0					ScanWait	
	1	0.013	0.013	86.532				10.0													GetReady	
1.0	1	10.043	0.03	96.562	5.18	2.59	10.6475	3.0	955.0	2.0	Outcome2	6.9	5.18	0.0	No	2.0	-1.7165911664779199	1.411	11.454		GetAnswer	Gain
1.0	1	11.481	0.027	98.0	5.18	2.59	10.6475	4.0	955.0	2.0	Outcome2	6.9	5.18	0.0	No		-1.7165911664779199				ShowChoice	Gain
1.0	1	15.493	0.012	102.012	5.18	2.59	10.6475	1.0	955.0	2.0	Outcome2	6.9	5.18	0.0	No		-1.7165911664779199				ShowResult	Gain
1.0	1	16.513	0.02	103.032	5.18	2.59	10.6475	2.431	955.0	2.0	Outcome2	6.9	5.18	0.0	No		-1.7165911664779199				ISITrial	Gain
2.0	1	18.97	0.026	105.489	-1.0	-1.0	10.5225	3.0	955.0	1.0	Certain	-2.06	-0.3	0.0	No	4.0	-1.75651189127973	2.086	21.056		GetAnswer	Mixed
2.0	1	21.076	0.02	107.595	-1.0	-1.0	10.5225	4.0	955.0	1.0	Certain	-2.06	-0.3	0.0	No		-1.75651189127973				ShowChoice	Mixed
2.0	1	25.088	0.012	111.607	-1.0	-1.0	10.5225	1.0	955.0	1.0	Certain	-2.06	-0.3	0.0	No		-1.75651189127973				ShowResult	Mixed
2.0	1	26.108	0.02	112.627	-1.0	-1.0	10.5225	4.568	955.0	1.0	Certain	-2.06	-0.3	0.0	No		-1.75651189127973				ISITrial	Mixed
3.0	1	30.705	0.029	117.224	8.5	4.25	11.585	3.0	955.0	5.0	Outcome1	8.5	10.3	2868.0	Yes	2.0	-1.79643261608154	1.286	31.991		GetAnswer	Gain
3.0	1	32.009	0.018	118.528	8.5	4.25	11.585	4.0	955.0	5.0	Outcome1	8.5	10.3	2868.0	Yes		-1.79643261608154				ShowChoice	Gain
3.0	1	36.021	0.012	122.54	8.5	4.25	11.585	1.0	955.0	5.0	Outcome1	8.5	10.3	2868.0	Yes		-1.79643261608154				ShowResult	Gain
3.0	1	37.041	0.02	123.56	8.5	4.25	11.585	3.243	955.0	5.0	Outcome1	8.5	10.3	2868.0	Yes		-1.79643261608154				ISITrial	Gain
3.0	1	43.192	0.023	129.711	8.5	4.25	11.585	1.546	955.0	5.0	Outcome1	8.5	10.3	2868.0	Yes	2{-2}	-1.79643261608154	1.546	44.738	560.0	TrialHappiness	Gain
3.0	1	47.205	4.013	133.724	8.5	4.25	11.585	3.472	955.0	5.0	Outcome1	8.5	10.3	2868.0	Yes		-1.79643261608154				ISIRate	Gain
4.0	1	50.698	0.021	137.217	-0.22	-0.22	11.5575	3.0	955.0	3.16	Certain	-0.45	7.7	0.0	No	4.0	8.14722536806342	1.318	52.016		GetAnswer	Gain
4.0	1	52.036	0.02	138.555	-0.22	-0.22	11.5575	4.0	955.0	3.16	Certain	-0.45	7.7	0.0	No		8.14722536806342				ShowChoice	Gain
4.0	1	56.064	0.028	142.583	-0.22	-0.22	11.5575	1.0	955.0	3.16	Certain	-0.45	7.7	0.0	No		8.14722536806342				ShowResult	Gain
4.0	1	57.084	0.02	143.603	-0.22	-0.22	11.5575	2.011	955.0	3.16	Certain	-0.45	7.7	0.0	No		8.14722536806342				ISITrial	Gain
5.0	1	59.124	0.029	145.643	9.3	0.36	12.72	3.0	955.0	2.48	Outcome1	9.3	0.71	2582.5	Yes	2.0	8.59456398640997	1.48	60.604		GetAnswer	Gain
5.0	1	60.628	0.024	147.147	9.3	0.36	12.72	4.0	955.0	2.48	Outcome1	9.3	0.71	2582.5	Yes		8.59456398640997				ShowChoice	Gain
5.0	1	64.64	0.012	151.159	9.3	0.36	12.72	1.0	955.0	2.48	Outcome1	9.3	0.71	2582.5	Yes		8.59456398640997				ShowResult	Gain
5.0	1	65.66	0.02	152.179	9.3	0.36	12.72	5.129	955.0	2.48	Outcome1	9.3	0.71	2582.5	Yes		8.59456398640997				ISITrial	Gain
5.0	1	73.416	0.025	159.935	9.3	0.36	12.72	0.727	955.0	2.48	Outcome1	9.3	0.71	2582.5	Yes		8.59456398640997			552.0	TrialHappiness	Gain
5.0	1	77.428	4.012	163.947	9.3	0.36	12.72	2.33	955.0	2.48	Outcome1	9.3	0.71	2582.5	Yes		8.59456398640997				ISIRate	Gain
6.0	1	79.785	0.027	166.304	11.5	1.16	14.1575	3.0	955.0	2.8	Outcome1	11.5	2.32	0.0	No	2.0	9.17780294450736	1.408	81.193		GetAnswer	Loss
6.0	1	81.206	0.013	167.725	11.5	1.16	14.1575	4.0	955.0	2.8	Outcome1	11.5	2.32	0.0	No		9.17780294450736				ShowChoice	Loss
6.0	1	85.218	0.012	171.737	11.5	1.16	14.1575	1.0	955.0	2.8	Outcome1	11.5	2.32	0.0	No		9.17780294450736				ShowResult	Loss
6.0	1	86.238	0.02	172.757	11.5	1.16	14.1575	6.232	955.0	2.8	Outcome1	11.5	2.32	0.0	No		9.17780294450736				ISITrial	Loss
7.0	1	92.49	0.02	179.009	1.43	2.0	14.3363	3.0	955.0	0.66	Outcome2	3.3	1.43	0.0	No	2.0	-1.86778029445074	1.261	93.751		GetAnswer	Mixed
7.0	1	93.777	0.026	180.296	1.43	2.0	14.3363	4.0	955.0	0.66	Outcome2	3.3	1.43	0.0	No		-1.86778029445074				ShowChoice	Mixed
7.0	1	97.789	0.012	184.308	1.43	2.0	14.3363	1.0	955.0	0.66	Outcome2	3.3	1.43	0.0	No		-1.86778029445074				ShowResult	Mixed
7.0	1	98.809	0.02	185.328	1.43	2.0	14.3363	2.305	955.0	0.66	Outcome2	3.3	1.43	0.0	No		-1.86778029445074				ISITrial	Mixed
8.0	1	101.133	0.019	187.652	13.5	1.7	16.0238	3.0	955.0	2.8	Outcome1	13.5	3.41	3112.5	Yes	2.0	10.0906002265006	1.312	102.445		GetAnswer	Loss
8.0	1	102.47	0.025	188.989	13.5	1.7	16.0238	4.0	955.0	2.8	Outcome1	13.5	3.41	3112.5	Yes		10.0906002265006				ShowChoice	Loss
8.0	1	106.482	0.012	193.001	13.5	1.7	16.0238	1.0	955.0	2.8	Outcome1	13.5	3.41	3112.5	Yes		10.0906002265006				ShowResult	Loss
8.0	1	107.502	0.02	194.021	13.5	1.7	16.0238	3.506	955.0	2.8	Outcome1	13.5	3.41	3112.5	Yes		10.0906002265006				ISITrial	Loss
8.0	1	114.172	0.031	200.691	13.5	1.7	16.0238	3.701	955.0	2.8	Outcome1	13.5	3.41	3112.5	Yes		10.0906002265006			560.0	TrialHappiness	Loss
8.0	1	118.184	4.012	204.703	13.5	1.7	16.0238	4.45	955.0	2.8	Outcome1	13.5	3.41	3112.5	Yes		10.0906002265006				ISIRate	Loss
9.0	1	122.664	0.03	209.183	-4.0	-4.0	15.5238	3.0	955.0	0.52	Certain	1.1	-9.31	0.0	No	4.0	10.4110985277463	2.104	124.768		GetAnswer	Mixed
9.0	1	124.787	0.019	211.306	-4.0	-4.0	15.5238	4.0	955.0	0.52	Certain	1.1	-9.31	0.0	No		10.4110985277463				ShowChoice	Mixed
9.0	1	128.799	0.012	215.318	-4.0	-4.0	15.5238	1.0	955.0	0.52	Certain	1.1	-9.31	0.0	No		10.4110985277463				ShowResult	Mixed
9.0	1	129.818	0.019	216.337	-4.0	-4.0	15.5238	2.0	955.0	0.52	Certain	1.1	-9.31	0.0	No		10.4110985277463				ISITrial	Mixed
10.0	1	131.841	0.023	218.36	-2.0	-2.0	15.2738	3.0	955.0	0.3	Certain	-1.3	-3.25	4000.0	Yes	4.0	-1.94865987164968	2.388	134.229		GetAnswer	Mixed
10.0	1	134.248	0.019	220.767	-2.0	-2.0	15.2738	4.0	955.0	0.3	Certain	-1.3	-3.25	4000.0	Yes		-1.94865987164968				ShowChoice	Mixed
10.0	1	138.26	0.012	224.779	-2.0	-2.0	15.2738	1.0	955.0	0.3	Certain	-1.3	-3.25	4000.0	Yes		-1.94865987164968				ShowResult	Mixed
10.0	1	139.28	0.02	225.799	-2.0	-2.0	15.2738	2.0	955.0	0.3	Certain	-1.3	-3.25	4000.0	Yes		-1.94865987164968				ISITrial	Mixed
10.0	1	145.332	0.029	231.851	-2.0	-2.0	15.2738	2.898	955.0	0.3	Certain	-1.3	-3.25	4000.0	Yes		-1.94865987164968			540.0	TrialHappiness	Mixed
10.0	1	149.344	4.012	235.863	-2.0	-2.0	15.2738	8.0	955.0	0.3	Certain	-1.3	-3.25	4000.0	Yes		-1.94865987164968				ISIRate	Mixed
11.0	1	157.368	0.024	243.887	9.9	-0.88	16.5113	3.0	955.0	3.6	Outcome2	-1.75	9.9	0.0	No	2.0	11.6455266138165	1.275	158.643		GetAnswer	Gain
11.0	1	158.655	0.012	245.174	9.9	-0.88	16.5113	4.0	955.0	3.6	Outcome2	-1.75	9.9	0.0	No		11.6455266138165				ShowChoice	Gain
11.0	1	162.667	0.012	249.186	9.9	-0.88	16.5113	1.0	955.0	3.6	Outcome2	-1.75	9.9	0.0	No		11.6455266138165				ShowResult	Gain
11.0	1	163.687	0.02	250.206	9.9	-0.88	16.5113	3.324	955.0	3.6	Outcome2	-1.75	9.9	0.0	No		11.6455266138165				ISITrial	Gain
12.0	1	167.03	0.019	253.549	0.39	1.0	16.5601	3.0	955.0	0.2	Outcome1	0.39	2.5	2618.75	Yes	2.0	-2.10626651566629	1.177	168.207		GetAnswer	Mixed
12.0	1	168.233	0.026	254.752	0.39	1.0	16.5601	4.0	955.0	0.2	Outcome1	0.39	2.5	2618.75	Yes		-2.10626651566629				ShowChoice	Mixed
12.0	1	172.245	0.012	258.764	0.39	1.0	16.5601	1.0	955.0	0.2	Outcome1	0.39	2.5	2618.75	Yes		-2.10626651566629				ShowResult	Mixed
12.0	1	173.265	0.02	259.784	0.39	1.0	16.5601	6.642	955.0	0.2	Outcome1	0.39	2.5	2618.75	Yes		-2.10626651566629				ISITrial	Mixed
12.0	1	182.56	0.023	269.079	0.39	1.0	16.5601	3.984	955.0	0.2	Outcome1	0.39	2.5	2618.75	Yes	2{-2}4{-4}2{-2}	-2.10626651566629	3.984	186.544	544.0	TrialHappiness	Mixed
12.0	1	186.572	4.012	273.091	0.39	1.0	16.5601	2.475	955.0	0.2	Outcome1	0.39	2.5	2618.75	Yes		-2.10626651566629				ISIRate	Mixed
13.0	1	189.062	0.015	275.581	-1.0	-1.0	16.4351	3.0	955.0	1.82	Certain	-7.82	4.7	0.0	No	4.0	12.517553793884499	1.46	190.522		GetAnswer	Gain
13.0	1	190.534	0.012	277.053	-1.0	-1.0	16.4351	4.0	955.0	1.82	Certain	-7.82	4.7	0.0	No		12.517553793884499				ShowChoice	Gain
13.0	1	194.546	0.012	281.065	-1.0	-1.0	16.4351	1.0	955.0	1.82	Certain	-7.82	4.7	0.0	No		12.517553793884499				ShowResult	Gain
13.0	1	195.565	0.019	282.084	-1.0	-1.0	16.4351	3.48	955.0	1.82	Certain	-7.82	4.7	0.0	No		12.517553793884499				ISITrial	Gain
14.0	1	199.076	0.031	285.595	-4.0	-4.0	15.9351	3.0	955.0	2.0	Certain	2.3	-10.68	0.0	No	4.0	12.9830124575311	1.475	200.551		GetAnswer	Mixed
14.0	1	200.564	0.013	287.083	-4.0	-4.0	15.9351	4.0	955.0	2.0	Certain	2.3	-10.68	0.0	No		12.9830124575311				ShowChoice	Mixed
14.0	1	204.576	0.012	291.095	-4.0	-4.0	15.9351	1.0	955.0	2.0	Certain	2.3	-10.68	0.0	No		12.9830124575311				ShowResult	Mixed
14.0	1	205.595	0.019	292.114	-4.0	-4.0	15.9351	5.019	955.0	2.0	Certain	2.3	-10.68	0.0	No		12.9830124575311				ISITrial	Mixed
15.0	1	210.644	0.03	297.163	11.3	-1.08	17.3476	3.0	955.0	2.48	Outcome2	-2.15	11.3	3348.5	Yes	2.0	13.4484711211778	1.484	212.128		GetAnswer	Loss
15.0	1	212.148	0.02	298.667	11.3	-1.08	17.3476	4.0	955.0	2.48	Outcome2	-2.15	11.3	3348.5	Yes		13.4484711211778				ShowChoice	Loss
15.0	1	216.16	0.012	302.679	11.3	-1.08	17.3476	1.0	955.0	2.48	Outcome2	-2.15	11.3	3348.5	Yes		13.4484711211778				ShowResult	Loss
15.0	1	217.18	0.02	303.699	11.3	-1.08	17.3476	7.614	955.0	2.48	Outcome2	-2.15	11.3	3348.5	Yes		13.4484711211778				ISITrial	Loss
15.0	1	228.196	0.028	314.715	11.3	-1.08	17.3476	0.0	955.0	2.48	Outcome2	-2.15	11.3	3348.5	Yes		13.4484711211778			512.0	TrialHappiness	Loss
15.0	1	232.208	4.012	318.727	11.3	-1.08	17.3476	5.394	955.0	2.48	Outcome2	-2.15	11.3	3348.5	Yes		13.4484711211778				ISIRate	Loss
16.0	1	237.624	0.022	324.143	-5.0	-5.0	16.7226	3.0	955.0	1.0	Certain	1.7	-12.76	0.0	No	4.0	14.4575311438279	1.509	239.133		GetAnswer	Mixed
16.0	1	239.146	0.013	325.665	-5.0	-5.0	16.7226	4.0	955.0	1.0	Certain	1.7	-12.76	0.0	No		14.4575311438279				ShowChoice	Mixed
16.0	1	243.158	0.012	329.677	-5.0	-5.0	16.7226	1.0	955.0	1.0	Certain	1.7	-12.76	0.0	No		14.4575311438279				ShowResult	Mixed
16.0	1	244.177	0.019	330.696	-5.0	-5.0	16.7226	3.008	955.0	1.0	Certain	1.7	-12.76	0.0	No		14.4575311438279				ISITrial	Mixed
17.0	1	247.203	0.018	333.722	-7.0	-7.0	15.8476	3.0	955.0	2.0	Certain	-14.66	0.3	3041.5	Yes	4.0	14.959229898074698	1.263	248.466		GetAnswer	Mixed
17.0	1	248.49	0.024	335.009	-7.0	-7.0	15.8476	4.0	955.0	2.0	Certain	-14.66	0.3	3041.5	Yes		14.959229898074698				ShowChoice	Mixed
17.0	1	252.502	0.012	339.021	-7.0	-7.0	15.8476	1.0	955.0	2.0	Certain	-14.66	0.3	3041.5	Yes		14.959229898074698				ShowResult	Mixed
17.0	1	253.522	0.02	340.041	-7.0	-7.0	15.8476	3.566	955.0	2.0	Certain	-14.66	0.3	3041.5	Yes		14.959229898074698				ISITrial	Mixed
17.0	1	260.175	0.017	346.694	-7.0	-7.0	15.8476	2.678	955.0	2.0	Certain	-14.66	0.3	3041.5	Yes		14.959229898074698			452.0	TrialHappiness	Mixed
17.0	1	264.204	4.029	350.723	-7.0	-7.0	15.8476	4.166	955.0	2.0	Certain	-14.66	0.3	3041.5	Yes		14.959229898074698				ISIRate	Mixed
18.0	1	268.4	0.03	354.919	9.1	1.0	16.9851	3.0	955.0	2.22	Outcome2	-7.38	9.1	0.0	No	2.0	16.480181200453	1.118	269.518		GetAnswer	Gain
18.0	1	269.537	0.019	356.056	9.1	1.0	16.9851	4.0	955.0	2.22	Outcome2	-7.38	9.1	0.0	No		16.480181200453				ShowChoice	Gain
18.0	1	273.565	0.028	360.084	9.1	1.0	16.9851	1.0	955.0	2.22	Outcome2	-7.38	9.1	0.0	No		16.480181200453				ShowResult	Gain
18.0	1	274.585	0.02	361.104	9.1	1.0	16.9851	6.787	955.0	2.22	Outcome2	-7.38	9.1	0.0	No		16.480181200453				ISITrial	Gain
19.0	1	281.389	0.017	367.908	0.0	0.0	16.9851	3.0	955.0	3.6	Certain	-9.15	7.9	0.0	No	4.0	17.0498301245753	1.676	283.065		GetAnswer	Gain
19.0	1	283.077	0.012	369.596	0.0	0.0	16.9851	4.0	955.0	3.6	Certain	-9.15	7.9	0.0	No		17.0498301245753				ShowChoice	Gain
19.0	1	287.089	0.012	373.608	0.0	0.0	16.9851	1.0	955.0	3.6	Certain	-9.15	7.9	0.0	No		17.0498301245753				ShowResult	Gain
19.0	1	288.109	0.02	374.628	0.0	0.0	16.9851	2.0	955.0	3.6	Certain	-9.15	7.9	0.0	No		17.0498301245753				ISITrial	Gain
20.0	1	290.132	0.023	376.651	12.3	-2.66	18.5226	3.0	955.0	5.0	Outcome1	12.3	-5.32	2921.25	Yes	2.0	17.619479048697603	1.246	291.378		GetAnswer	Loss
20.0	1	291.402	0.024	377.921	12.3	-2.66	18.5226	4.0	955.0	5.0	Outcome1	12.3	-5.32	2921.25	Yes		17.619479048697603				ShowChoice	Loss
20.0	1	295.414	0.012	381.933	12.3	-2.66	18.5226	1.0	955.0	5.0	Outcome1	12.3	-5.32	2921.25	Yes		17.619479048697603				ShowResult	Loss
20.0	1	296.434	0.02	382.953	12.3	-2.66	18.5226	8.0	955.0	5.0	Outcome1	12.3	-5.32	2921.25	Yes		17.619479048697603				ISITrial	Loss
20.0	1	307.4	0.021	393.919	12.3	-2.66	18.5226	0.576	955.0	5.0	Outcome1	12.3	-5.32	2921.25	Yes		17.619479048697603			528.0	TrialHappiness	Loss
20.0	1	311.412	4.012	397.931	12.3	-2.66	18.5226	3.685	955.0	5.0	Outcome1	12.3	-5.32	2921.25	Yes		17.619479048697603				ISIRate	Loss
21.0	1	315.123	0.026	401.642	-9.0	-9.0	17.3976	3.0	955.0	0.66	Certain	-0.7	-17.6	0.0	No	4.0	16.8980747451869	2.531	317.654		GetAnswer	Mixed
21.0	1	317.681	0.027	404.2	-9.0	-9.0	17.3976	4.0	955.0	0.66	Certain	-0.7	-17.6	0.0	No		16.8980747451869				ShowChoice	Mixed
21.0	1	321.71	0.029	408.229	-9.0	-9.0	17.3976	1.0	955.0	0.66	Certain	-0.7	-17.6	0.0	No		16.8980747451869				ShowResult	Mixed
21.0	1	322.729	0.019	409.248	-9.0	-9.0	17.3976	3.555	955.0	0.66	Certain	-0.7	-17.6	0.0	No		16.8980747451869				ISITrial	Mixed
22.0	1	326.307	0.023	412.826	-7.0	-7.0	16.5226	3.0	955.0	1.2	Certain	1.9	-15.48	3219.5	Yes	4.0	17.3816534541336	1.725	328.032		GetAnswer	Mixed
22.0	1	328.045	0.013	414.564	-7.0	-7.0	16.5226	4.0	955.0	1.2	Certain	1.9	-15.48	3219.5	Yes		17.3816534541336				ShowChoice	Mixed
22.0	1	332.057	0.012	418.576	-7.0	-7.0	16.5226	1.0	955.0	1.2	Certain	1.9	-15.48	3219.5	Yes		17.3816534541336				ShowResult	Mixed
22.0	1	333.077	0.02	419.596	-7.0	-7.0	16.5226	6.793	955.0	1.2	Certain	1.9	-15.48	3219.5	Yes		17.3816534541336				ISITrial	Mixed
22.0	1	343.124	0.023	429.643	-7.0	-7.0	16.5226	0.795	955.0	1.2	Certain	1.9	-15.48	3219.5	Yes		17.3816534541336			456.0	TrialHappiness	Mixed
22.0	1	347.136	4.012	433.655	-7.0	-7.0	16.5226	4.878	955.0	1.2	Certain	1.9	-15.48	3219.5	Yes		17.3816534541336				ISIRate	Mixed
23.0	1	352.034	0.02	438.553	12.9	-3.1	18.1351	3.0	955.0	2.0	Outcome2	-6.19	12.9	0.0	No	2.0	19.0883352208381	1.683	353.717		GetAnswer	Loss
23.0	1	353.739	0.022	440.258	12.9	-3.1	18.1351	4.0	955.0	2.0	Outcome2	-6.19	12.9	0.0	No		19.0883352208381				ShowChoice	Loss
23.0	1	357.751	0.012	444.27	12.9	-3.1	18.1351	1.0	955.0	2.0	Outcome2	-6.19	12.9	0.0	No		19.0883352208381				ShowResult	Loss
23.0	1	358.77	0.019	445.289	12.9	-3.1	18.1351	8.0	955.0	2.0	Outcome2	-6.19	12.9	0.0	No		19.0883352208381				ISITrial	Loss
24.0	1	366.794	0.024	453.313	7.74	3.87	19.1026	3.0	955.0	1.82	Outcome2	10.7	7.74	3255.0	Yes	2.0	-2.9563986409966003	1.277	368.071		GetAnswer	Loss
24.0	1	368.098	0.027	454.617	7.74	3.87	19.1026	4.0	955.0	1.82	Outcome2	10.7	7.74	3255.0	Yes		-2.9563986409966003				ShowChoice	Loss
24.0	1	372.11	0.012	458.629	7.74	3.87	19.1026	1.0	955.0	1.82	Outcome2	10.7	7.74	3255.0	Yes		-2.9563986409966003				ShowResult	Loss
24.0	1	373.13	0.02	459.649	7.74	3.87	19.1026	2.0	955.0	1.82	Outcome2	10.7	7.74	3255.0	Yes		-2.9563986409966003				ISITrial	Loss
24.0	1	378.429	0.021	464.948	7.74	3.87	19.1026	1.211	955.0	1.82	Outcome2	10.7	7.74	3255.0	Yes		-2.9563986409966003			480.0	TrialHappiness	Loss
24.0	1	382.441	4.012	468.96	7.74	3.87	19.1026	5.02	955.0	1.82	Outcome2	10.7	7.74	3255.0	Yes		-2.9563986409966003				ISIRate	Loss
25.0	1	387.49	0.029	474.009	4.19	2.1	19.6264	3.0	955.0	2.22	Outcome2	7.1	4.19	0.0	No	2.0	-2.9060966402416004	0.993	388.483		GetAnswer	Gain
25.0	1	388.509	0.026	475.028	4.19	2.1	19.6264	4.0	955.0	2.22	Outcome2	7.1	4.19	0.0	No		-2.9060966402416004				ShowChoice	Gain
25.0	1	392.521	0.012	479.04	4.19	2.1	19.6264	1.0	955.0	2.22	Outcome2	7.1	4.19	0.0	No		-2.9060966402416004				ShowResult	Gain
25.0	1	393.541	0.02	480.06	4.19	2.1	19.6264	3.749	955.0	2.22	Outcome2	7.1	4.19	0.0	No		-2.9060966402416004				ISITrial	Gain
26.0	1	397.319	0.029	483.838	-1.1	-11.0	19.4889	3.0	955.0	0.4	Outcome1	-1.1	-21.45	0.0	No	2.0	20.3488108720272	2.505	399.824		GetAnswer	Mixed
26.0	1	399.843	0.019	486.362	-1.1	-11.0	19.4889	4.0	955.0	0.4	Outcome1	-1.1	-21.45	0.0	No		20.3488108720272				ShowChoice	Mixed
26.0	1	403.855	0.012	490.374	-1.1	-11.0	19.4889	1.0	955.0	0.4	Outcome1	-1.1	-21.45	0.0	No		20.3488108720272				ShowResult	Mixed
26.0	1	404.875	0.02	491.394	-1.1	-11.0	19.4889	7.834	955.0	0.4	Outcome1	-1.1	-21.45	0.0	No		20.3488108720272				ISITrial	Mixed
27.0	1	412.732	0.023	499.251	-0.1	1.0	19.4764	3.0	955.0	0.4	Outcome2	2.9	-0.1	2549.75	Yes	2.0	-2.9957531143827905	1.933	414.665		GetAnswer	Mixed
27.0	1	414.688	0.023	501.207	-0.1	1.0	19.4764	4.0	955.0	0.4	Outcome2	2.9	-0.1	2549.75	Yes		-2.9957531143827905				ShowChoice	Mixed
27.0	1	418.7	0.012	505.219	-0.1	1.0	19.4764	1.0	955.0	0.4	Outcome2	2.9	-0.1	2549.75	Yes		-2.9957531143827905				ShowResult	Mixed
27.0	1	419.72	0.02	506.239	-0.1	1.0	19.4764	4.225	955.0	0.4	Outcome2	2.9	-0.1	2549.75	Yes		-2.9957531143827905				ISITrial	Mixed
27.0	1	426.54	0.024	513.059	-0.1	1.0	19.4764	0.559	955.0	0.4	Outcome2	2.9	-0.1	2549.75	Yes		-2.9957531143827905			464.0	TrialHappiness	Mixed
27.0	1	430.552	4.012	517.071	-0.1	1.0	19.4764	2.199	955.0	0.4	Outcome2	2.9	-0.1	2549.75	Yes		-2.9957531143827905				ISIRate	Mixed
	1	432.775	0.024	519.294				-0.001								{SPACE}		87.15	519.925		Rest	
	1	519.953	0.028	606.472				4.0													BlockHappyPreview	
	1	523.965	0.012	610.484				0.0												512.0	BlockStartHappiness	
	1	558.769	0.013	645.288				-0.001								5.0		1.765	560.534		ScanWait	
	2	0.024	0.024	647.077				10.0													GetReady	
28.0	2	10.054	0.03	657.107	-4.02	0.0	18.9739	3.0	70.0	0.82	Outcome1	-4.02	3.5	0.0	No	2.0	-7.51700680272109	1.546	11.6		GetAnswer	Mixed
28.0	2	11.625	0.025	658.678	-4.02	0.0	18.9739	4.0	70.0	0.82	Outcome1	-4.02	3.5	0.0	No		-7.51700680272109				ShowChoice	Mixed
28.0	2	15.637	0.012	662.69	-4.02	0.0	18.9739	1.0	70.0	0.82	Outcome1	-4.02	3.5	0.0	No		-7.51700680272109				ShowResult	Mixed
28.0	2	16.657	0.02	663.71	-4.02	0.0	18.9739	3.575	70.0	0.82	Outcome1	-4.02	3.5	0.0	No		-7.51700680272109				ISITrial	Mixed
29.0	2	20.251	0.019	667.304	1.58	0.0	19.1714	3.0	70.0	5.0	Outcome2	-0.26	1.58	3529.0	Yes	2.0	1.83749055177627	1.236	21.487		GetAnswer	Gain
29.0	2	21.505	0.018	668.558	1.58	0.0	19.1714	4.0	70.0	5.0	Outcome2	-0.26	1.58	3529.0	Yes		1.83749055177627				ShowChoice	Gain
29.0	2	25.517	0.012	672.57	1.58	0.0	19.1714	1.0	70.0	5.0	Outcome2	-0.26	1.58	3529.0	Yes		1.83749055177627				ShowResult	Gain
29.0	2	26.537	0.02	673.59	1.58	0.0	19.1714	3.955	70.0	5.0	Outcome2	-0.26	1.58	3529.0	Yes		1.83749055177627				ISITrial	Gain
29.0	2	34.076	0.032	681.129	1.58	0.0	19.1714	1.527	70.0	5.0	Outcome2	-0.26	1.58	3529.0	Yes		1.83749055177627			576.0	TrialHappiness	Gain
29.0	2	38.104	4.028	685.157	1.58	0.0	19.1714	6.116	70.0	5.0	Outcome2	-0.26	1.58	3529.0	Yes		1.83749055177627				ISIRate	Gain
30.0	2	44.239	0.019	691.292	2.52	1.0	19.4864	3.0	70.0	4.2	Outcome2	0.38	2.52	0.0	No	2.0	2.13926681783825	1.225	45.464		GetAnswer	Gain
30.0	2	45.477	0.013	692.53	2.52	1.0	19.4864	4.0	70.0	4.2	Outcome2	0.38	2.52	0.0	No		2.13926681783825				ShowChoice	Gain
30.0	2	49.489	0.012	696.542	2.52	1.0	19.4864	1.0	70.0	4.2	Outcome2	0.38	2.52	0.0	No		2.13926681783825				ShowResult	Gain
30.0	2	50.508	0.019	697.561	2.52	1.0	19.4864	4.453	70.0	4.2	Outcome2	0.38	2.52	0.0	No		2.13926681783825				ISITrial	Gain
31.0	2	54.988	0.027	702.041	1.92	0.96	19.7264	3.0	70.0	4.2	Outcome1	1.92	12.1	2503.25	Yes	2.0	-10.1814058956916	1.47	56.458		GetAnswer	Loss
31.0	2	56.476	0.018	703.529	1.92	0.96	19.7264	4.0	70.0	4.2	Outcome1	1.92	12.1	2503.25	Yes		-10.1814058956916				ShowChoice	Loss
31.0	2	60.488	0.012	707.541	1.92	0.96	19.7264	1.0	70.0	4.2	Outcome1	1.92	12.1	2503.25	Yes		-10.1814058956916				ShowResult	Loss
31.0	2	61.508	0.02	708.561	1.92	0.96	19.7264	4.786	70.0	4.2	Outcome1	1.92	12.1	2503.25	Yes		-10.1814058956916				ISITrial	Loss
31.0	2	68.83	0.021	715.883	1.92	0.96	19.7264	1.712	70.0	4.2	Outcome1	1.92	12.1	2503.25	Yes		-10.1814058956916			392.0	TrialHappiness	Loss
31.0	2	72.842	4.012	719.895	1.92	0.96	19.7264	2.013	70.0	4.2	Outcome1	1.92	12.1	2503.25	Yes		-10.1814058956916				ISIRate	Loss
32.0	2	74.881	0.026	721.934	-7.73	-4.0	18.7602	3.0	70.0	1.2	Outcome2	-0.1	-7.73	0.0	No	2.0	-7.62585034013605	1.906	76.787		GetAnswer	Mixed
32.0	2	76.804	0.017	723.857	-7.73	-4.0	18.7602	4.0	70.0	1.2	Outcome2	-0.1	-7.73	0.0	No		-7.62585034013605				ShowChoice	Mixed
32.0	2	80.816	0.012	727.869	-7.73	-4.0	18.7602	1.0	70.0	1.2	Outcome2	-0.1	-7.73	0.0	No		-7.62585034013605				ShowResult	Mixed
32.0	2	81.835	0.019	728.888	-7.73	-4.0	18.7602	2.0	70.0	1.2	Outcome2	-0.1	-7.73	0.0	No		-7.62585034013605				ISITrial	Mixed
33.0	2	83.858	0.023	730.911	-2.29	1.0	18.474	3.0	70.0	3.16	Outcome1	-2.29	5.7	0.0	No	2.0	-7.99092970521542	1.253	85.111		GetAnswer	Gain
33.0	2	85.129	0.018	732.182	-2.29	1.0	18.474	4.0	70.0	3.16	Outcome1	-2.29	5.7	0.0	No		-7.99092970521542				ShowChoice	Gain
33.0	2	89.141	0.012	736.194	-2.29	1.0	18.474	1.0	70.0	3.16	Outcome1	-2.29	5.7	0.0	No		-7.99092970521542				ShowResult	Gain
33.0	2	90.16	0.019	737.213	-2.29	1.0	18.474	5.099	70.0	3.16	Outcome1	-2.29	5.7	0.0	No		-7.99092970521542				ISITrial	Gain
34.0	2	95.292	0.033	742.345	-3.0	-3.0	18.099	3.0	70.0	0.2	Certain	0.5	-7.86	3231.5	Yes	4.0	-8.35600907029479	1.772	97.064		GetAnswer	Mixed
34.0	2	97.081	0.017	744.134	-3.0	-3.0	18.099	4.0	70.0	0.2	Certain	0.5	-7.86	3231.5	Yes		-8.35600907029479				ShowChoice	Mixed
34.0	2	101.093	0.012	748.146	-3.0	-3.0	18.099	1.0	70.0	0.2	Certain	0.5	-7.86	3231.5	Yes		-8.35600907029479				ShowResult	Mixed
34.0	2	102.113	0.02	749.166	-3.0	-3.0	18.099	4.784	70.0	0.2	Certain	0.5	-7.86	3231.5	Yes		-8.35600907029479				ISITrial	Mixed
34.0	2	110.17	0.028	757.223	-3.0	-3.0	18.099	3.88	70.0	0.2	Certain	0.5	-7.86	3231.5	Yes		-8.35600907029479			376.0	TrialHappiness	Mixed
34.0	2	114.182	4.012	761.235	-3.0	-3.0	18.099	4.926	70.0	0.2	Certain	0.5	-7.86	3231.5	Yes		-8.35600907029479				ISIRate	Mixed
35.0	2	119.13	0.022	766.183	1.82	1.0	18.3265	3.0	70.0	2.48	Outcome1	1.82	0.31	0.0	No	2.0	1.51360544217687	1.259	120.389		GetAnswer	Gain
35.0	2	120.401	0.012	767.454	1.82	1.0	18.3265	4.0	70.0	2.48	Outcome1	1.82	0.31	0.0	No		1.51360544217687				ShowChoice	Gain
35.0	2	124.43	0.029	771.483	1.82	1.0	18.3265	1.0	70.0	2.48	Outcome1	1.82	0.31	0.0	No		1.51360544217687				ShowResult	Gain
35.0	2	125.449	0.019	772.502	1.82	1.0	18.3265	2.098	70.0	2.48	Outcome1	1.82	0.31	0.0	No		1.51360544217687				ISITrial	Gain
36.0	2	127.572	0.025	774.625	0.18	0.0	18.349	3.0	70.0	0.3	Outcome2	-1.36	0.18	3335.75	Yes	2.0	1.5425170068027199	1.289	128.861		GetAnswer	Mixed
36.0	2	128.876	0.015	775.929	0.18	0.0	18.349	4.0	70.0	0.3	Outcome2	-1.36	0.18	3335.75	Yes		1.5425170068027199				ShowChoice	Mixed
36.0	2	132.888	0.012	779.941	0.18	0.0	18.349	1.0	70.0	0.3	Outcome2	-1.36	0.18	3335.75	Yes		1.5425170068027199				ShowResult	Mixed
36.0	2	133.908	0.02	780.961	0.18	0.0	18.349	5.156	70.0	0.3	Outcome2	-1.36	0.18	3335.75	Yes		1.5425170068027199				ISITrial	Mixed
36.0	2	142.45	0.024	789.503	0.18	0.0	18.349	2.013	70.0	0.3	Outcome2	-1.36	0.18	3335.75	Yes		1.5425170068027199			416.0	TrialHappiness	Mixed
36.0	2	146.462	4.012	793.515	0.18	0.0	18.349	5.343	70.0	0.3	Outcome2	-1.36	0.18	3335.75	Yes		1.5425170068027199				ISIRate	Mixed
37.0	2	151.828	0.023	798.881	-1.32	-0.66	18.184	3.0	70.0	1.68	Outcome1	-1.32	8.5	0.0	No	2.0	-9.82312925170068	1.522	153.35		GetAnswer	Gain
37.0	2	153.366	0.016	800.419	-1.32	-0.66	18.184	4.0	70.0	1.68	Outcome1	-1.32	8.5	0.0	No		-9.82312925170068				ShowChoice	Gain
37.0	2	157.378	0.012	804.431	-1.32	-0.66	18.184	1.0	70.0	1.68	Outcome1	-1.32	8.5	0.0	No		-9.82312925170068				ShowResult	Gain
37.0	2	158.398	0.02	805.451	-1.32	-0.66	18.184	3.598	70.0	1.68	Outcome1	-1.32	8.5	0.0	No		-9.82312925170068				ISITrial	Gain
38.0	2	162.025	0.029	809.078	2.88	1.44	18.544	3.0	70.0	2.22	Outcome1	2.88	13.1	0.0	No	2.0	-10.2154195011338	1.474	163.499		GetAnswer	Loss
38.0	2	163.513	0.014	810.566	2.88	1.44	18.544	4.0	70.0	2.22	Outcome1	2.88	13.1	0.0	No		-10.2154195011338				ShowChoice	Loss
38.0	2	167.525	0.012	814.578	2.88	1.44	18.544	1.0	70.0	2.22	Outcome1	2.88	13.1	0.0	No		-10.2154195011338				ShowResult	Loss
38.0	2	168.545	0.02	815.598	2.88	1.44	18.544	4.787	70.0	2.22	Outcome1	2.88	13.1	0.0	No		-10.2154195011338				ISITrial	Loss
39.0	2	173.359	0.027	820.412	-1.0	-1.0	18.419	3.0	70.0	1.2	Certain	3.9	-6.71	2864.25	Yes	4.0	-10.607709750566901	1.315	174.674		GetAnswer	Mixed
39.0	2	174.697	0.023	821.75	-1.0	-1.0	18.419	4.0	70.0	1.2	Certain	3.9	-6.71	2864.25	Yes		-10.607709750566901				ShowChoice	Mixed
39.0	2	178.709	0.012	825.762	-1.0	-1.0	18.419	1.0	70.0	1.2	Certain	3.9	-6.71	2864.25	Yes		-10.607709750566901				ShowResult	Mixed
39.0	2	179.728	0.019	826.781	-1.0	-1.0	18.419	2.348	70.0	1.2	Certain	3.9	-6.71	2864.25	Yes		-10.607709750566901				ISITrial	Mixed
39.0	2	184.994	0.028	832.047	-1.0	-1.0	18.419	0.994	70.0	1.2	Certain	3.9	-6.71	2864.25	Yes		-10.607709750566901			408.0	TrialHappiness	Mixed
39.0	2	189.006	4.012	836.059	-1.0	-1.0	18.419	3.457	70.0	1.2	Certain	3.9	-6.71	2864.25	Yes		-10.607709750566901				ISIRate	Mixed
40.0	2	192.483	0.02	839.536	1.84	0.92	18.649	3.0	70.0	1.82	Outcome1	1.84	12.7	0.0	No	2.0	-10.863945578231302	1.685	194.168		GetAnswer	Loss
40.0	2	194.188	0.02	841.241	1.84	0.92	18.649	4.0	70.0	1.82	Outcome1	1.84	12.7	0.0	No		-10.863945578231302				ShowChoice	Loss
40.0	2	198.2	0.012	845.253	1.84	0.92	18.649	1.0	70.0	1.82	Outcome1	1.84	12.7	0.0	No		-10.863945578231302				ShowResult	Loss
40.0	2	199.22	0.02	846.273	1.84	0.92	18.649	3.158	70.0	1.82	Outcome1	1.84	12.7	0.0	No		-10.863945578231302				ISITrial	Loss
41.0	2	202.396	0.018	849.449	-3.0	-3.0	18.274	3.0	70.0	0.3	Certain	2.7	-8.55	4000.0	Yes	4.0	-11.247165532879801	2.452	204.848		GetAnswer	Mixed
41.0	2	204.87	0.022	851.923	-3.0	-3.0	18.274	4.0	70.0	0.3	Certain	2.7	-8.55	4000.0	Yes		-11.247165532879801				ShowChoice	Mixed
41.0	2	208.882	0.012	855.935	-3.0	-3.0	18.274	1.0	70.0	0.3	Certain	2.7	-8.55	4000.0	Yes		-11.247165532879801				ShowResult	Mixed
41.0	2	209.902	0.02	856.955	-3.0	-3.0	18.274	4.506	70.0	0.3	Certain	2.7	-8.55	4000.0	Yes		-11.247165532879801				ISITrial	Mixed
41.0	2	218.461	0.029	865.514	-3.0	-3.0	18.274	1.346	70.0	0.3	Certain	2.7	-8.55	4000.0	Yes		-11.247165532879801			392.0	TrialHappiness	Mixed
41.0	2	222.473	4.012	869.526	-3.0	-3.0	18.274	8.0	70.0	0.3	Certain	2.7	-8.55	4000.0	Yes		-11.247165532879801				ISIRate	Mixed
42.0	2	230.497	0.024	877.55	-2.46	-1.23	17.9665	3.0	70.0	2.0	Outcome1	-2.46	8.9	0.0	No	2.0	-11.3582766439909	1.798	232.295		GetAnswer	Gain
42.0	2	232.319	0.024	879.372	-2.46	-1.23	17.9665	4.0	70.0	2.0	Outcome1	-2.46	8.9	0.0	No		-11.3582766439909				ShowChoice	Gain
42.0	2	236.331	0.012	883.384	-2.46	-1.23	17.9665	1.0	70.0	2.0	Outcome1	-2.46	8.9	0.0	No		-11.3582766439909				ShowResult	Gain
42.0	2	237.351	0.02	884.404	-2.46	-1.23	17.9665	6.248	70.0	2.0	Outcome1	-2.46	8.9	0.0	No		-11.3582766439909				ISITrial	Gain
43.0	2	243.62	0.021	890.673	1.88	1.0	18.2015	3.0	70.0	2.8	Outcome2	0.05	1.88	2775.75	Yes	2.0	1.8287981859410398	1.997	245.617		GetAnswer	Gain
43.0	2	245.642	0.025	892.695	1.88	1.0	18.2015	4.0	70.0	2.8	Outcome2	0.05	1.88	2775.75	Yes		1.8287981859410398				ShowChoice	Gain
43.0	2	249.654	0.012	896.707	1.88	1.0	18.2015	1.0	70.0	2.8	Outcome2	0.05	1.88	2775.75	Yes		1.8287981859410398				ShowResult	Gain
43.0	2	250.674	0.02	897.727	1.88	1.0	18.2015	4.596	70.0	2.8	Outcome2	0.05	1.88	2775.75	Yes		1.8287981859410398				ISITrial	Gain
43.0	2	258.08	0.016	905.133	1.88	1.0	18.2015	0.809	70.0	2.8	Outcome2	0.05	1.88	2775.75	Yes		1.8287981859410398			432.0	TrialHappiness	Gain
43.0	2	262.092	4.012	909.145	1.88	1.0	18.2015	3.103	70.0	2.8	Outcome2	0.05	1.88	2775.75	Yes		1.8287981859410398				ISIRate	Gain
44.0	2	265.218	0.023	912.271	-5.0	-5.0	17.5765	3.0	70.0	0.66	Certain	1.3	-11.47	0.0	No	4.0	-12.7687074829932	1.317	266.535		GetAnswer	Mixed
44.0	2	266.555	0.02	913.608	-5.0	-5.0	17.5765	4.0	70.0	0.66	Certain	1.3	-11.47	0.0	No		-12.7687074829932				ShowChoice	Mixed
44.0	2	270.567	0.012	917.62	-5.0	-5.0	17.5765	1.0	70.0	0.66	Certain	1.3	-11.47	0.0	No		-12.7687074829932				ShowResult	Mixed
44.0	2	271.587	0.02	918.64	-5.0	-5.0	17.5765	2.42	70.0	0.66	Certain	1.3	-11.47	0.0	No		-12.7687074829932				ISITrial	Mixed
45.0	2	274.027	0.02	921.08	-5.08	1.0	16.9415	3.0	70.0	4.2	Outcome2	8.1	-5.08	0.0	No	2.0	-13.179138321995499	1.613	275.64		GetAnswer	Gain
45.0	2	275.666	0.026	922.719	-5.08	1.0	16.9415	4.0	70.0	4.2	Outcome2	8.1	-5.08	0.0	No		-13.179138321995499				ShowChoice	Gain
45.0	2	279.678	0.012	926.731	-5.08	1.0	16.9415	1.0	70.0	4.2	Outcome2	8.1	-5.08	0.0	No		-13.179138321995499				ShowResult	Gain
45.0	2	280.697	0.019	927.75	-5.08	1.0	16.9415	3.144	70.0	4.2	Outcome2	8.1	-5.08	0.0	No		-13.179138321995499				ISITrial	Gain
46.0	2	283.857	0.016	930.91	0.0	0.0	16.9415	3.0	70.0	4.2	Certain	6.1	-7.49	3841.25	Yes	4.0	-13.589569160997698	1.401	285.258		GetAnswer	Gain
46.0	2	285.278	0.02	932.331	0.0	0.0	16.9415	4.0	70.0	4.2	Certain	6.1	-7.49	3841.25	Yes		-13.589569160997698				ShowChoice	Gain
46.0	2	289.29	0.012	936.343	0.0	0.0	16.9415	1.0	70.0	4.2	Certain	6.1	-7.49	3841.25	Yes		-13.589569160997698				ShowResult	Gain
46.0	2	290.309	0.019	937.362	0.0	0.0	16.9415	2.246	70.0	4.2	Certain	6.1	-7.49	3841.25	Yes		-13.589569160997698				ISITrial	Gain
46.0	2	296.428	0.021	943.481	0.0	0.0	16.9415	2.448	70.0	4.2	Certain	6.1	-7.49	3841.25	Yes		-13.589569160997698			312.0	TrialHappiness	Gain
46.0	2	300.44	4.012	947.493	0.0	0.0	16.9415	7.365	70.0	4.2	Certain	6.1	-7.49	3841.25	Yes		-13.589569160997698				ISIRate	Gain
47.0	2	307.828	0.023	954.881	1.34	0.67	17.109	3.0	70.0	2.48	Outcome1	1.34	13.3	0.0	No	2.0	-11.9591836734694	1.163	308.991		GetAnswer	Loss
47.0	2	309.015	0.024	956.068	1.34	0.67	17.109	4.0	70.0	2.48	Outcome1	1.34	13.3	0.0	No		-11.9591836734694				ShowChoice	Loss
47.0	2	313.027	0.012	960.08	1.34	0.67	17.109	1.0	70.0	2.48	Outcome1	1.34	13.3	0.0	No		-11.9591836734694				ShowResult	Loss
47.0	2	314.047	0.02	961.1	1.34	0.67	17.109	2.0	70.0	2.48	Outcome1	1.34	13.3	0.0	No		-11.9591836734694				ISITrial	Loss
48.0	2	316.07	0.023	963.123	-2.0	-2.0	16.859	3.0	70.0	1.0	Certain	3.7	-8.53	2831.75	Yes	4.0	-12.2335600907029	1.987	318.057		GetAnswer	Mixed
48.0	2	318.076	0.019	965.129	-2.0	-2.0	16.859	4.0	70.0	1.0	Certain	3.7	-8.53	2831.75	Yes		-12.2335600907029				ShowChoice	Mixed
48.0	2	322.088	0.012	969.141	-2.0	-2.0	16.859	1.0	70.0	1.0	Certain	3.7	-8.53	2831.75	Yes		-12.2335600907029				ShowResult	Mixed
48.0	2	323.108	0.02	970.161	-2.0	-2.0	16.859	3.692	70.0	1.0	Certain	3.7	-8.53	2831.75	Yes		-12.2335600907029				ISITrial	Mixed
48.0	2	329.677	0.026	976.73	-2.0	-2.0	16.859	1.06	70.0	1.0	Certain	3.7	-8.53	2831.75	Yes	4{-4}	-12.2335600907029	1.06	330.737	344.0	TrialHappiness	Mixed
48.0	2	333.689	4.012	980.742	-2.0	-2.0	16.859	3.327	70.0	1.0	Certain	3.7	-8.53	2831.75	Yes		-12.2335600907029				ISIRate	Mixed
49.0	2	337.049	0.033	984.102	2.42	1.0	17.1615	3.0	70.0	3.16	Outcome2	0.61	2.42	0.0	No	2.0	1.8125472411186698	1.524	338.573		GetAnswer	Gain
49.0	2	338.587	0.014	985.64	2.42	1.0	17.1615	4.0	70.0	3.16	Outcome2	0.61	2.42	0.0	No		1.8125472411186698				ShowChoice	Gain
49.0	2	342.599	0.012	989.652	2.42	1.0	17.1615	1.0	70.0	3.16	Outcome2	0.61	2.42	0.0	No		1.8125472411186698				ShowResult	Gain
49.0	2	343.619	0.02	990.672	2.42	1.0	17.1615	8.0	70.0	3.16	Outcome2	0.61	2.42	0.0	No		1.8125472411186698				ISITrial	Gain
50.0	2	351.643	0.024	998.696	-3.0	-3.0	16.7865	3.0	70.0	0.52	Certain	-10.26	3.1	3547.25	Yes	4.0	-13.3628117913832	1.897	353.54		GetAnswer	Mixed
50.0	2	353.565	0.025	1000.618	-3.0	-3.0	16.7865	4.0	70.0	0.52	Certain	-10.26	3.1	3547.25	Yes		-13.3628117913832				ShowChoice	Mixed
50.0	2	357.577	0.012	1004.63	-3.0	-3.0	16.7865	1.0	70.0	0.52	Certain	-10.26	3.1	3547.25	Yes		-13.3628117913832				ShowResult	Mixed
50.0	2	358.597	0.02	1005.65	-3.0	-3.0	16.7865	7.537	70.0	0.52	Certain	-10.26	3.1	3547.25	Yes		-13.3628117913832				ISITrial	Mixed
50.0	2	369.73	0.03	1016.783	-3.0	-3.0	16.7865	3.719	70.0	0.52	Certain	-10.26	3.1	3547.25	Yes		-13.3628117913832			328.0	TrialHappiness	Mixed
50.0	2	373.742	4.012	1020.795	-3.0	-3.0	16.7865	6.189	70.0	0.52	Certain	-10.26	3.1	3547.25	Yes		-13.3628117913832				ISIRate	Mixed
51.0	2	379.961	0.03	1027.014	-1.0	-1.0	16.6615	3.0	70.0	0.52	Certain	-2.02	-0.22	0.0	No	4.0	1.79931972789116	1.934	381.895		GetAnswer	Mixed
51.0	2	381.917	0.022	1028.97	-1.0	-1.0	16.6615	4.0	70.0	0.52	Certain	-2.02	-0.22	0.0	No		1.79931972789116				ShowChoice	Mixed
51.0	2	385.929	0.012	1032.982	-1.0	-1.0	16.6615	1.0	70.0	0.52	Certain	-2.02	-0.22	0.0	No		1.79931972789116				ShowResult	Mixed
51.0	2	386.949	0.02	1034.002	-1.0	-1.0	16.6615	5.508	70.0	0.52	Certain	-2.02	-0.22	0.0	No		1.79931972789116				ISITrial	Mixed
52.0	2	392.482	0.025	1039.535	2.78	2.0	17.009	3.0	70.0	2.22	Outcome1	2.78	0.96	0.0	No	2.0	1.82369614512472	2.012	394.494		GetAnswer	Loss
52.0	2	394.521	0.027	1041.574	2.78	2.0	17.009	4.0	70.0	2.22	Outcome1	2.78	0.96	0.0	No		1.82369614512472				ShowChoice	Loss
52.0	2	398.533	0.012	1045.586	2.78	2.0	17.009	1.0	70.0	2.22	Outcome1	2.78	0.96	0.0	No		1.82369614512472				ShowResult	Loss
52.0	2	399.553	0.02	1046.606	2.78	2.0	17.009	5.913	70.0	2.22	Outcome1	2.78	0.96	0.0	No		1.82369614512472				ISITrial	Loss
53.0	2	405.487	0.021	1052.54	-5.0	-5.0	16.384	3.0	70.0	0.82	Certain	-12.49	1.5	2996.75	Yes	4.0	-13.9863945578231	1.623	407.11		GetAnswer	Mixed
53.0	2	407.126	0.016	1054.179	-5.0	-5.0	16.384	4.0	70.0	0.82	Certain	-12.49	1.5	2996.75	Yes		-13.9863945578231				ShowChoice	Mixed
53.0	2	411.138	0.012	1058.191	-5.0	-5.0	16.384	1.0	70.0	0.82	Certain	-12.49	1.5	2996.75	Yes		-13.9863945578231				ShowResult	Mixed
53.0	2	412.157	0.019	1059.21	-5.0	-5.0	16.384	3.66	70.0	0.82	Certain	-12.49	1.5	2996.75	Yes		-13.9863945578231				ISITrial	Mixed
53.0	2	418.861	0.029	1065.914	-5.0	-5.0	16.384	1.059	70.0	0.82	Certain	-12.49	1.5	2996.75	Yes	4{-4}	-13.9863945578231	1.059	419.92	312.0	TrialHappiness	Mixed
53.0	2	422.873	4.012	1069.926	-5.0	-5.0	16.384	3.987	70.0	0.82	Certain	-12.49	1.5	2996.75	Yes		-13.9863945578231				ISIRate	Mixed
54.0	2	426.885	0.025	1073.938	-7.0	-7.0	15.509	3.0	70.0	0.82	Certain	-14.51	-0.5	0.0	No	4.0	-14.0068027210884	1.971	428.856		GetAnswer	Mixed
54.0	2	428.874	0.018	1075.927	-7.0	-7.0	15.509	4.0	70.0	0.82	Certain	-14.51	-0.5	0.0	No		-14.0068027210884				ShowChoice	Mixed
54.0	2	432.886	0.012	1079.939	-7.0	-7.0	15.509	1.0	70.0	0.82	Certain	-14.51	-0.5	0.0	No		-14.0068027210884				ShowResult	Mixed
54.0	2	433.906	0.02	1080.959	-7.0	-7.0	15.509	8.0	70.0	0.82	Certain	-14.51	-0.5	0.0	No		-14.0068027210884				ISITrial	Mixed
	2	441.93	0.024	1088.983				-0.001								{SPACE}		42.491	484.421		Rest	
	2	484.44	0.019	1131.493				4.0													BlockHappyPreview	
	2	488.453	0.013	1135.506				2.548								4{-4}2{-2}		2.548	491.001	416.0	BlockStartHappiness	
	2	494.939	0.023	1141.992				-0.001								5.0		1.464	496.403		ScanWait	
	3	0.023	0.023	1143.479				10.0													GetReady	
55.0	3	10.037	0.014	1153.493	-3.0	-3.0	15.134	3.0	955.0	0.4	Certain	0.9	-8.26	2533.25	Yes	4.0	9.156285390713482	1.505	11.542		GetAnswer	Mixed
55.0	3	11.558	0.016	1155.014	-3.0	-3.0	15.134	4.0	955.0	0.4	Certain	0.9	-8.26	2533.25	Yes		9.156285390713482				ShowChoice	Mixed
55.0	3	15.57	0.012	1159.026	-3.0	-3.0	15.134	1.0	955.0	0.4	Certain	0.9	-8.26	2533.25	Yes		9.156285390713482				ShowResult	Mixed
55.0	3	16.59	0.02	1160.046	-3.0	-3.0	15.134	7.709	955.0	0.4	Certain	0.9	-8.26	2533.25	Yes		9.156285390713482				ISITrial	Mixed
55.0	3	26.87	0.024	1170.326	-3.0	-3.0	15.134	2.465	955.0	0.4	Certain	0.9	-8.26	2533.25	Yes	4{-4}4{-4}	9.156285390713482	2.465	29.335	416.0	TrialHappiness	Mixed
55.0	3	30.882	4.012	1174.338	-3.0	-3.0	15.134	2.133	955.0	0.4	Certain	0.9	-8.26	2533.25	Yes		9.156285390713482				ISIRate	Mixed
56.0	3	33.039	0.024	1176.495	5.5	0.0	15.8215	3.0	955.0	2.8	Outcome1	5.5	-4.27	0.0	No	2.0	9.766704416761039	1.569	34.608		GetAnswer	Gain
56.0	3	34.627	0.019	1178.083	5.5	0.0	15.8215	4.0	955.0	2.8	Outcome1	5.5	-4.27	0.0	No		9.766704416761039				ShowChoice	Gain
56.0	3	38.639	0.012	1182.095	5.5	0.0	15.8215	1.0	955.0	2.8	Outcome1	5.5	-4.27	0.0	No		9.766704416761039				ShowResult	Gain
56.0	3	39.659	0.02	1183.115	5.5	0.0	15.8215	4.697	955.0	2.8	Outcome1	5.5	-4.27	0.0	No		9.766704416761039				ISITrial	Gain
57.0	3	44.373	0.017	1187.829	-2.0	-2.0	15.5715	3.0	955.0	0.2	Certain	-3.79	-1.5	0.0	No	4.0	-2.2890713476783704	2.066	46.439		GetAnswer	Mixed
57.0	3	46.462	0.023	1189.918	-2.0	-2.0	15.5715	4.0	955.0	0.2	Certain	-3.79	-1.5	0.0	No		-2.2890713476783704				ShowChoice	Mixed
57.0	3	50.474	0.012	1193.93	-2.0	-2.0	15.5715	1.0	955.0	0.2	Certain	-3.79	-1.5	0.0	No		-2.2890713476783704				ShowResult	Mixed
57.0	3	51.494	0.02	1194.95	-2.0	-2.0	15.5715	4.291	955.0	0.2	Certain	-3.79	-1.5	0.0	No		-2.2890713476783704				ISITrial	Mixed
58.0	3	55.807	0.022	1199.263	13.9	1.46	17.309	3.0	955.0	3.6	Outcome2	2.91	13.9	3045.75	Yes	2.0	10.9875424688562	1.33	57.137		GetAnswer	Loss
58.0	3	57.161	0.024	1200.617	13.9	1.46	17.309	4.0	955.0	3.6	Outcome2	2.91	13.9	3045.75	Yes		10.9875424688562				ShowChoice	Loss
58.0	3	61.173	0.012	1204.629	13.9	1.46	17.309	1.0	955.0	3.6	Outcome2	2.91	13.9	3045.75	Yes		10.9875424688562				ShowResult	Loss
58.0	3	62.193	0.02	1205.649	13.9	1.46	17.309	2.037	955.0	3.6	Outcome2	2.91	13.9	3045.75	Yes		10.9875424688562				ISITrial	Loss
58.0	3	67.325	0.03	1210.781	13.9	1.46	17.309	1.83	955.0	3.6	Outcome2	2.91	13.9	3045.75	Yes		10.9875424688562			440.0	TrialHappiness	Loss
58.0	3	71.337	4.012	1214.793	13.9	1.46	17.309	4.183	955.0	3.6	Outcome2	2.91	13.9	3045.75	Yes		10.9875424688562				ISIRate	Loss
59.0	3	75.549	0.029	1219.005	9.61	4.8	18.5103	3.0	955.0	3.6	Outcome2	11.9	9.61	0.0	No	2.0	-2.29341260853152	1.084	76.633		GetAnswer	Loss
59.0	3	76.653	0.02	1220.109	9.61	4.8	18.5103	4.0	955.0	3.6	Outcome2	11.9	9.61	0.0	No		-2.29341260853152				ShowChoice	Loss
59.0	3	80.665	0.012	1224.121	9.61	4.8	18.5103	1.0	955.0	3.6	Outcome2	11.9	9.61	0.0	No		-2.29341260853152				ShowResult	Loss
59.0	3	81.684	0.019	1225.14	9.61	4.8	18.5103	5.064	955.0	3.6	Outcome2	11.9	9.61	0.0	No		-2.29341260853152				ISITrial	Loss
60.0	3	86.766	0.018	1230.222	-1.0	-1.0	18.3853	3.0	955.0	1.68	Certain	-7.27	4.5	3562.5	Yes	4.0	11.7734994337486	1.722	88.488		GetAnswer	Gain
60.0	3	88.505	0.016	1231.961	-1.0	-1.0	18.3853	4.0	955.0	1.68	Certain	-7.27	4.5	3562.5	Yes		11.7734994337486				ShowChoice	Gain
60.0	3	92.517	0.012	1235.973	-1.0	-1.0	18.3853	1.0	955.0	1.68	Certain	-7.27	4.5	3562.5	Yes		11.7734994337486				ShowResult	Gain
60.0	3	93.537	0.02	1236.993	-1.0	-1.0	18.3853	8.0	955.0	1.68	Certain	-7.27	4.5	3562.5	Yes		11.7734994337486				ISITrial	Gain
60.0	3	105.138	0.015	1248.594	-1.0	-1.0	18.3853	1.16	955.0	1.68	Certain	-7.27	4.5	3562.5	Yes		11.7734994337486			408.0	TrialHappiness	Gain
60.0	3	109.15	4.012	1252.606	-1.0	-1.0	18.3853	6.25	955.0	1.68	Certain	-7.27	4.5	3562.5	Yes		11.7734994337486				ISIRate	Gain
61.0	3	115.419	0.019	1258.875	-1.0	-1.0	18.2603	3.0	955.0	2.48	Certain	5.3	-7.6	0.0	No	4.0	12.9003397508494	1.812	117.231		GetAnswer	Gain
61.0	3	117.258	0.027	1260.714	-1.0	-1.0	18.2603	4.0	955.0	2.48	Certain	5.3	-7.6	0.0	No		12.9003397508494				ShowChoice	Gain
61.0	3	121.27	0.012	1264.726	-1.0	-1.0	18.2603	1.0	955.0	2.48	Certain	5.3	-7.6	0.0	No		12.9003397508494				ShowResult	Gain
61.0	3	122.289	0.019	1265.745	-1.0	-1.0	18.2603	4.586	955.0	2.48	Certain	5.3	-7.6	0.0	No		12.9003397508494				ISITrial	Gain
62.0	3	126.903	0.028	1270.359	2.33	1.16	18.5515	3.0	955.0	2.0	Outcome1	2.33	4.9	3748.75	Yes	2.0	-2.5721026802567004	1.154	128.057		GetAnswer	Gain
62.0	3	128.073	0.016	1271.529	2.33	1.16	18.5515	4.0	955.0	2.0	Outcome1	2.33	4.9	3748.75	Yes		-2.5721026802567004				ShowChoice	Gain
62.0	3	132.085	0.012	1275.541	2.33	1.16	18.5515	1.0	955.0	2.0	Outcome1	2.33	4.9	3748.75	Yes		-2.5721026802567004				ShowResult	Gain
62.0	3	133.105	0.02	1276.561	2.33	1.16	18.5515	5.212	955.0	2.0	Outcome1	2.33	4.9	3748.75	Yes		-2.5721026802567004				ISITrial	Gain
62.0	3	142.115	0.029	1285.571	2.33	1.16	18.5515	0.792	955.0	2.0	Outcome1	2.33	4.9	3748.75	Yes		-2.5721026802567004			424.0	TrialHappiness	Gain
62.0	3	146.127	4.012	1289.583	2.33	1.16	18.5515	6.995	955.0	2.0	Outcome1	2.33	4.9	3748.75	Yes		-2.5721026802567004				ISIRate	Gain
63.0	3	153.148	0.026	1296.604	10.9	-1.48	19.914	3.0	955.0	2.0	Outcome1	10.9	-2.97	0.0	No	2.0	13.8674971687429	1.787	154.935		GetAnswer	Loss
63.0	3	154.954	0.019	1298.41	10.9	-1.48	19.914	4.0	955.0	2.0	Outcome1	10.9	-2.97	0.0	No		13.8674971687429				ShowChoice	Loss
63.0	3	158.966	0.012	1302.422	10.9	-1.48	19.914	1.0	955.0	2.0	Outcome1	10.9	-2.97	0.0	No		13.8674971687429				ShowResult	Loss
63.0	3	159.986	0.02	1303.442	10.9	-1.48	19.914	5.595	955.0	2.0	Outcome1	10.9	-2.97	0.0	No		13.8674971687429				ISITrial	Loss
64.0	3	165.602	0.021	1309.058	6.09	3.04	20.6752	3.0	955.0	1.82	Outcome1	6.09	8.7	0.0	No	2.0	-2.60890902227256	1.161	166.763		GetAnswer	Gain
64.0	3	166.789	0.026	1310.245	6.09	3.04	20.6752	4.0	955.0	1.82	Outcome1	6.09	8.7	0.0	No		-2.60890902227256				ShowChoice	Gain
64.0	3	170.801	0.012	1314.257	6.09	3.04	20.6752	1.0	955.0	1.82	Outcome1	6.09	8.7	0.0	No		-2.60890902227256				ShowResult	Gain
64.0	3	171.821	0.02	1315.277	6.09	3.04	20.6752	5.47	955.0	1.82	Outcome1	6.09	8.7	0.0	No		-2.60890902227256				ISITrial	Gain
65.0	3	177.321	0.03	1320.777	-2.56	-1.0	20.3552	3.0	955.0	1.5	Outcome1	-2.56	0.1	2996.75	Yes	2.0	-2.6590222725556805	1.783	179.104		GetAnswer	Mixed
65.0	3	179.126	0.022	1322.582	-2.56	-1.0	20.3552	4.0	955.0	1.5	Outcome1	-2.56	0.1	2996.75	Yes		-2.6590222725556805				ShowChoice	Mixed
65.0	3	183.138	0.012	1326.594	-2.56	-1.0	20.3552	1.0	955.0	1.5	Outcome1	-2.56	0.1	2996.75	Yes		-2.6590222725556805				ShowResult	Mixed
65.0	3	184.158	0.02	1327.614	-2.56	-1.0	20.3552	3.344	955.0	1.5	Outcome1	-2.56	0.1	2996.75	Yes		-2.6590222725556805				ISITrial	Mixed
65.0	3	190.544	0.029	1334.0	-2.56	-1.0	20.3552	2.231	955.0	1.5	Outcome1	-2.56	0.1	2996.75	Yes		-2.6590222725556805			392.0	TrialHappiness	Mixed
65.0	3	194.556	4.012	1338.012	-2.56	-1.0	20.3552	3.987	955.0	1.5	Outcome1	-2.56	0.1	2996.75	Yes		-2.6590222725556805				ISIRate	Mixed
66.0	3	198.568	0.025	1342.024	-4.0	-4.0	19.8552	3.0	955.0	2.0	Certain	-11.92	4.3	0.0	No	4.0	16.2151755379388	1.238	199.806		GetAnswer	Mixed
66.0	3	199.821	0.015	1343.277	-4.0	-4.0	19.8552	4.0	955.0	2.0	Certain	-11.92	4.3	0.0	No		16.2151755379388				ShowChoice	Mixed
66.0	3	203.833	0.012	1347.289	-4.0	-4.0	19.8552	1.0	955.0	2.0	Certain	-11.92	4.3	0.0	No		16.2151755379388				ShowResult	Mixed
66.0	3	204.853	0.02	1348.309	-4.0	-4.0	19.8552	3.959	955.0	2.0	Certain	-11.92	4.3	0.0	No		16.2151755379388				ISITrial	Mixed
67.0	3	208.832	0.02	1352.288	-4.0	-4.0	19.3552	3.0	955.0	1.5	Certain	4.1	-12.75	2918.5	Yes	4.0	16.8527746319366	1.268	210.1		GetAnswer	Mixed
67.0	3	210.119	0.019	1353.575	-4.0	-4.0	19.3552	4.0	955.0	1.5	Certain	4.1	-12.75	2918.5	Yes		16.8527746319366				ShowChoice	Mixed
67.0	3	214.131	0.012	1357.587	-4.0	-4.0	19.3552	1.0	955.0	1.5	Certain	4.1	-12.75	2918.5	Yes		16.8527746319366				ShowResult	Mixed
67.0	3	215.151	0.02	1358.607	-4.0	-4.0	19.3552	4.199	955.0	1.5	Certain	4.1	-12.75	2918.5	Yes		16.8527746319366				ISITrial	Mixed
67.0	3	222.305	0.024	1365.761	-4.0	-4.0	19.3552	2.682	955.0	1.5	Certain	4.1	-12.75	2918.5	Yes		16.8527746319366			344.0	TrialHappiness	Mixed
67.0	3	226.317	4.012	1369.773	-4.0	-4.0	19.3552	3.674	955.0	1.5	Certain	4.1	-12.75	2918.5	Yes		16.8527746319366				ISIRate	Mixed
68.0	3	230.012	0.021	1373.468	-4.0	-4.0	18.8552	3.0	955.0	2.22	Certain	5.1	-13.21	0.0	No	4.0	18.3057757644394	1.172	231.184		GetAnswer	Gain
68.0	3	231.199	0.015	1374.655	-4.0	-4.0	18.8552	4.0	955.0	2.22	Certain	5.1	-13.21	0.0	No		18.3057757644394				ShowChoice	Gain
68.0	3	235.211	0.012	1378.667	-4.0	-4.0	18.8552	1.0	955.0	2.22	Certain	5.1	-13.21	0.0	No		18.3057757644394				ShowResult	Gain
68.0	3	236.23	0.019	1379.686	-4.0	-4.0	18.8552	2.185	955.0	2.22	Certain	5.1	-13.21	0.0	No		18.3057757644394				ISITrial	Gain
69.0	3	238.437	0.022	1381.893	-3.25	-3.25	18.449	3.0	955.0	1.68	Certain	12.5	-6.5	0.0	No	4.0	18.9977349943375	1.536	239.973		GetAnswer	Loss
69.0	3	239.992	0.018	1383.448	-3.25	-3.25	18.449	4.0	955.0	1.68	Certain	12.5	-6.5	0.0	No		18.9977349943375				ShowChoice	Loss
69.0	3	244.004	0.012	1387.46	-3.25	-3.25	18.449	1.0	955.0	1.68	Certain	12.5	-6.5	0.0	No		18.9977349943375				ShowResult	Loss
69.0	3	245.023	0.019	1388.479	-3.25	-3.25	18.449	2.0	955.0	1.68	Certain	12.5	-6.5	0.0	No		18.9977349943375				ISITrial	Loss
70.0	3	247.046	0.023	1390.502	8.44	4.22	19.504	3.0	955.0	3.16	Outcome2	11.7	8.44	3651.25	Yes	2.0	-3.2553793884484703	1.037	248.083		GetAnswer	Loss
70.0	3	248.099	0.016	1391.555	8.44	4.22	19.504	4.0	955.0	3.16	Outcome2	11.7	8.44	3651.25	Yes		-3.2553793884484703				ShowChoice	Loss
70.0	3	252.111	0.012	1395.567	8.44	4.22	19.504	1.0	955.0	3.16	Outcome2	11.7	8.44	3651.25	Yes		-3.2553793884484703				ShowResult	Loss
70.0	3	253.131	0.02	1396.587	8.44	4.22	19.504	2.623	955.0	3.16	Outcome2	11.7	8.44	3651.25	Yes		-3.2553793884484703				ISITrial	Loss
70.0	3	259.45	0.027	1402.906	8.44	4.22	19.504	0.591	955.0	3.16	Outcome2	11.7	8.44	3651.25	Yes		-3.2553793884484703			312.0	TrialHappiness	Loss
70.0	3	263.462	4.012	1406.918	8.44	4.22	19.504	6.605	955.0	3.16	Outcome2	11.7	8.44	3651.25	Yes		-3.2553793884484703				ISIRate	Loss
71.0	3	270.098	0.031	1413.554	3.06	1.53	19.8865	3.0	955.0	1.68	Outcome1	3.06	6.5	0.0	No	2.0	-3.44290298225746	1.047	271.145		GetAnswer	Gain
71.0	3	271.168	0.023	1414.624	3.06	1.53	19.8865	4.0	955.0	1.68	Outcome1	3.06	6.5	0.0	No		-3.44290298225746				ShowChoice	Gain
71.0	3	275.18	0.012	1418.636	3.06	1.53	19.8865	1.0	955.0	1.68	Outcome1	3.06	6.5	0.0	No		-3.44290298225746				ShowResult	Gain
71.0	3	276.2	0.02	1419.656	3.06	1.53	19.8865	5.499	955.0	1.68	Outcome1	3.06	6.5	0.0	No		-3.44290298225746				ISITrial	Gain
72.0	3	281.717	0.018	1425.173	-1.0	-1.0	19.7615	3.0	955.0	2.8	Certain	9.5	-12.15	3080.5	Yes	4.0	21.6534541336353	1.162	282.879		GetAnswer	Gain
72.0	3	282.903	0.024	1426.359	-1.0	-1.0	19.7615	4.0	955.0	2.8	Certain	9.5	-12.15	3080.5	Yes		21.6534541336353				ShowChoice	Gain
72.0	3	286.915	0.012	1430.371	-1.0	-1.0	19.7615	1.0	955.0	2.8	Certain	9.5	-12.15	3080.5	Yes		21.6534541336353				ShowResult	Gain
72.0	3	287.935	0.02	1431.391	-1.0	-1.0	19.7615	5.672	955.0	2.8	Certain	9.5	-12.15	3080.5	Yes		21.6534541336353				ISITrial	Gain
72.0	3	296.728	0.029	1440.184	-1.0	-1.0	19.7615	1.813	955.0	2.8	Certain	9.5	-12.15	3080.5	Yes		21.6534541336353			360.0	TrialHappiness	Gain
72.0	3	300.74	4.012	1444.196	-1.0	-1.0	19.7615	4.322	955.0	2.8	Certain	9.5	-12.15	3080.5	Yes		21.6534541336353				ISIRate	Gain
73.0	3	305.087	0.025	1448.543	-4.0	-4.0	19.2615	3.0	955.0	1.82	Certain	6.7	-14.87	0.0	No	4.0	21.5662514156285	1.115	306.202		GetAnswer	Gain
73.0	3	306.223	0.021	1449.679	-4.0	-4.0	19.2615	4.0	955.0	1.82	Certain	6.7	-14.87	0.0	No		21.5662514156285				ShowChoice	Gain
73.0	3	310.235	0.012	1453.691	-4.0	-4.0	19.2615	1.0	955.0	1.82	Certain	6.7	-14.87	0.0	No		21.5662514156285				ShowResult	Gain
73.0	3	311.255	0.02	1454.711	-4.0	-4.0	19.2615	4.616	955.0	1.82	Certain	6.7	-14.87	0.0	No		21.5662514156285				ISITrial	Gain
74.0	3	315.902	0.031	1459.358	7.07	3.54	20.1453	3.0	955.0	1.68	Outcome1	7.07	10.5	3056.25	Yes	2.0	-3.4256323140807905	1.166	317.068		GetAnswer	Loss
74.0	3	317.089	0.021	1460.545	7.07	3.54	20.1453	4.0	955.0	1.68	Outcome1	7.07	10.5	3056.25	Yes		-3.4256323140807905				ShowChoice	Loss
74.0	3	321.101	0.012	1464.557	7.07	3.54	20.1453	1.0	955.0	1.68	Outcome1	7.07	10.5	3056.25	Yes		-3.4256323140807905				ShowResult	Loss
74.0	3	322.121	0.02	1465.577	7.07	3.54	20.1453	3.909	955.0	1.68	Outcome1	7.07	10.5	3056.25	Yes		-3.4256323140807905				ISITrial	Loss
74.0	3	329.125	0.02	1472.581	7.07	3.54	20.1453	0.976	955.0	1.68	Outcome1	7.07	10.5	3056.25	Yes		-3.4256323140807905			328.0	TrialHappiness	Loss
74.0	3	333.137	4.012	1476.593	7.07	3.54	20.1453	4.225	955.0	1.68	Outcome1	7.07	10.5	3056.25	Yes		-3.4256323140807905				ISIRate	Loss
75.0	3	337.383	0.021	1480.839	10.09	5.04	21.4065	3.0	955.0	3.16	Outcome1	10.09	13.7	0.0	No	2.0	-3.6116459041147597	0.976	338.359		GetAnswer	Loss
75.0	3	338.386	0.027	1481.842	10.09	5.04	21.4065	4.0	955.0	3.16	Outcome1	10.09	13.7	0.0	No		-3.6116459041147597				ShowChoice	Loss
75.0	3	342.398	0.012	1485.854	10.09	5.04	21.4065	1.0	955.0	3.16	Outcome1	10.09	13.7	0.0	No		-3.6116459041147597				ShowResult	Loss
75.0	3	343.418	0.02	1486.874	10.09	5.04	21.4065	4.979	955.0	3.16	Outcome1	10.09	13.7	0.0	No		-3.6116459041147597				ISITrial	Loss
76.0	3	348.416	0.019	1491.872	-4.0	-4.0	20.9065	3.0	955.0	5.0	Certain	8.3	-15.87	0.0	No	4.0	24.167610419025998	1.547	349.963		GetAnswer	Gain
76.0	3	349.988	0.025	1493.444	-4.0	-4.0	20.9065	4.0	955.0	5.0	Certain	8.3	-15.87	0.0	No		24.167610419025998				ShowChoice	Gain
76.0	3	354.0	0.012	1497.456	-4.0	-4.0	20.9065	1.0	955.0	5.0	Certain	8.3	-15.87	0.0	No		24.167610419025998				ShowResult	Gain
76.0	3	355.019	0.019	1498.475	-4.0	-4.0	20.9065	3.931	955.0	5.0	Certain	8.3	-15.87	0.0	No		24.167610419025998				ISITrial	Gain
77.0	3	358.981	0.031	1502.437	-6.0	-6.0	20.1565	3.0	955.0	3.6	Certain	5.9	-18.98	4000.0	Yes	4.0	24.877689694224202	1.545	360.526		GetAnswer	Gain
77.0	3	360.553	0.027	1504.009	-6.0	-6.0	20.1565	4.0	955.0	3.6	Certain	5.9	-18.98	4000.0	Yes		24.877689694224202				ShowChoice	Gain
77.0	3	364.565	0.012	1508.021	-6.0	-6.0	20.1565	1.0	955.0	3.6	Certain	5.9	-18.98	4000.0	Yes		24.877689694224202				ShowResult	Gain
77.0	3	365.584	0.019	1509.04	-6.0	-6.0	20.1565	7.022	955.0	3.6	Certain	5.9	-18.98	4000.0	Yes		24.877689694224202				ISITrial	Gain
77.0	3	376.651	0.029	1520.107	-6.0	-6.0	20.1565	3.768	955.0	3.6	Certain	5.9	-18.98	4000.0	Yes		24.877689694224202			296.0	TrialHappiness	Gain
77.0	3	380.663	4.012	1524.119	-6.0	-6.0	20.1565	8.0	955.0	3.6	Certain	5.9	-18.98	4000.0	Yes		24.877689694224202				ISIRate	Gain
78.0	3	388.687	0.024	1532.143	-1.82	0.0	19.929000000000002	3.0	955.0	1.5	Outcome1	-1.82	2.1	0.0	No	2.0	-3.91902604756512	2.368	391.055		GetAnswer	Mixed
78.0	3	391.077	0.021	1534.533	-1.82	0.0	19.929000000000002	4.0	955.0	1.5	Outcome1	-1.82	2.1	0.0	No		-3.91902604756512				ShowChoice	Mixed
78.0	3	395.089	0.012	1538.545	-1.82	0.0	19.929000000000002	1.0	955.0	1.5	Outcome1	-1.82	2.1	0.0	No		-3.91902604756512				ShowResult	Mixed
78.0	3	396.109	0.02	1539.565	-1.82	0.0	19.929000000000002	2.078	955.0	1.5	Outcome1	-1.82	2.1	0.0	No		-3.91902604756512				ISITrial	Mixed
79.0	3	398.215	0.028	1541.671	-1.0	-1.0	19.804000000000002	3.0	955.0	4.2	Certain	-14.78	12.1	2729.5	Yes	4.0	26.877689694224202	1.653	399.868		GetAnswer	Loss
79.0	3	399.887	0.019	1543.343	-1.0	-1.0	19.804000000000002	4.0	955.0	4.2	Certain	-14.78	12.1	2729.5	Yes		26.877689694224202				ShowChoice	Loss
79.0	3	403.899	0.012	1547.355	-1.0	-1.0	19.804000000000002	1.0	955.0	4.2	Certain	-14.78	12.1	2729.5	Yes		26.877689694224202				ShowResult	Loss
79.0	3	404.919	0.02	1548.375	-1.0	-1.0	19.804000000000002	3.829	955.0	4.2	Certain	-14.78	12.1	2729.5	Yes		26.877689694224202				ISITrial	Loss
79.0	3	411.522	0.028	1554.978	-1.0	-1.0	19.804000000000002	1.094	955.0	4.2	Certain	-14.78	12.1	2729.5	Yes		26.877689694224202			352.0	TrialHappiness	Loss
79.0	3	415.534	4.012	1558.99	-1.0	-1.0	19.804000000000002	2.918	955.0	4.2	Certain	-14.78	12.1	2729.5	Yes		26.877689694224202				ISIRate	Loss
80.0	3	418.476	0.024	1561.932	-11.0	-11.0	18.429000000000002	3.0	955.0	1.5	Certain	-24.57	2.1	0.0	No	4.0	26.6727066817667	1.95	420.426		GetAnswer	Mixed
80.0	3	420.448	0.022	1563.904	-11.0	-11.0	18.429000000000002	4.0	955.0	1.5	Certain	-24.57	2.1	0.0	No		26.6727066817667				ShowChoice	Mixed
80.0	3	424.461	0.013	1567.917	-11.0	-11.0	18.429000000000002	1.0	955.0	1.5	Certain	-24.57	2.1	0.0	No		26.6727066817667				ShowResult	Mixed
80.0	3	425.48	0.019	1568.936	-11.0	-11.0	18.429000000000002	3.336	955.0	1.5	Certain	-24.57	2.1	0.0	No		26.6727066817667				ISITrial	Mixed
81.0	3	428.84	0.024	1572.296	7.7	-6.0	19.3915	3.0	955.0	3.16	Outcome1	7.7	-19.66	3923.75	Yes		27.355605889014697				GetAnswer	Gain
81.0	3	431.866	0.026	1575.322	7.7	-6.0	19.3915	4.0	955.0	3.16	Outcome1	7.7	-19.66	3923.75	Yes		27.355605889014697				ShowChoice	Gain
81.0	3	435.878	0.012	1579.334	7.7	-6.0	19.3915	1.0	955.0	3.16	Outcome1	7.7	-19.66	3923.75	Yes		27.355605889014697				ShowResult	Gain
81.0	3	436.898	0.02	1580.354	7.7	-6.0	19.3915	3.919	955.0	3.16	Outcome1	7.7	-19.66	3923.75	Yes		27.355605889014697				ISITrial	Gain
81.0	3	444.788	0.021	1588.244	7.7	-6.0	19.3915	0.926	955.0	3.16	Outcome1	7.7	-19.66	3923.75	Yes		27.355605889014697			360.0	TrialHappiness	Gain
81.0	3	448.8	4.012	1592.256	7.7	-6.0	19.3915	7.695	955.0	3.16	Outcome1	7.7	-19.66	3923.75	Yes		27.355605889014697				ISIRate	Gain
	3	456.523	0.028	1599.979				3.0													CurrentEarnings	
	3	459.549	0.026	1603.005				-0.001								{SPACE}		10.251	469.8		Goodbye	
