trial_number	block	onset	onset_delay	onset_unadjusted	amount_change	certain_amount	current_amount	duration	mood_target	multiplier	outcome	outcome1_amount	outcome2_amount	question_duration	rating	response	rpe	rt	rt_time	slider_response	trial_phase	trial_type
	0	-28.42	0.022	24.364				-0.001								{SPACE}		0.977	-27.443		Welcome	
	0	-27.417	0.026	25.367				5.0													LifeHappyPreview	
	0	-22.385	0.032	30.399				3.636												168.0	LifeHappiness	
	0	-12.706	0.017	40.078				4.0													BlockHappyPreview	
	0	-8.694	0.012	44.09				0.96												536.0	BlockStartHappiness	
	0	-1.69	0.026	51.094				-0.001								5.0					ScanWait	
	1	0.015	0.015	52.799				10.0													GetReady	
1.0	1	10.045	0.03	62.829	-3.0	-3.0	9.625	3.0	955.0	1.2	Certain	-0.1	-7.22	0.0	No	4.0	7.117780294450741	0.92	10.965		GetAnswer	Mixed
1.0	1	10.981	0.016	63.765	-3.0	-3.0	9.625	4.0	955.0	1.2	Certain	-0.1	-7.22	0.0	No		7.117780294450741				ShowChoice	Mixed
1.0	1	15.01	0.029	67.794	-3.0	-3.0	9.625	1.0	955.0	1.2	Certain	-0.1	-7.22	0.0	No		7.117780294450741				ShowResult	Mixed
1.0	1	16.03	0.02	68.814	-3.0	-3.0	9.625	2.431	955.0	1.2	Certain	-0.1	-7.22	0.0	No		7.117780294450741				ISITrial	Mixed
2.0	1	18.487	0.026	71.271	13.1	2.76	11.2625	3.0	955.0	2.22	Outcome2	5.51	13.1	0.0	No	2.0	7.592298980747451	0.802	19.289		GetAnswer	Loss
2.0	1	19.306	0.017	72.09	13.1	2.76	11.2625	4.0	955.0	2.22	Outcome2	5.51	13.1	0.0	No		7.592298980747451				ShowChoice	Loss
2.0	1	23.335	0.029	76.119	13.1	2.76	11.2625	1.0	955.0	2.22	Outcome2	5.51	13.1	0.0	No		7.592298980747451				ShowResult	Loss
2.0	1	24.355	0.02	77.139	13.1	2.76	11.2625	4.568	955.0	2.22	Outcome2	5.51	13.1	0.0	No		7.592298980747451				ISITrial	Loss
3.0	1	28.952	0.029	81.736	2.1	-2.0	11.525	3.0	955.0	1.5	Outcome1	2.1	-5.97	2868.0	Yes	2.0	8.06681766704417	0.956	29.908		GetAnswer	Mixed
3.0	1	29.938	0.03	82.722	2.1	-2.0	11.525	4.0	955.0	1.5	Outcome1	2.1	-5.97	2868.0	Yes		8.06681766704417				ShowChoice	Mixed
3.0	1	33.967	0.029	86.751	2.1	-2.0	11.525	1.0	955.0	1.5	Outcome1	2.1	-5.97	2868.0	Yes		8.06681766704417				ShowResult	Mixed
3.0	1	34.987	0.02	87.771	2.1	-2.0	11.525	3.243	955.0	1.5	Outcome1	2.1	-5.97	2868.0	Yes		8.06681766704417				ISITrial	Mixed
3.0	1	41.138	0.024	93.922	2.1	-2.0	11.525	1.574	955.0	1.5	Outcome1	2.1	-5.97	2868.0	Yes		8.06681766704417			576.0	TrialHappiness	Mixed
3.0	1	45.15	4.012	97.934	2.1	-2.0	11.525	3.472	955.0	1.5	Outcome1	2.1	-5.97	2868.0	Yes		8.06681766704417				ISIRate	Mixed
4.0	1	48.644	0.022	101.428	9.04	4.52	12.655	3.0	955.0	1.82	Outcome2	10.7	9.04	0.0	No	2.0	-1.65666289165723	1.025	49.669		GetAnswer	Loss
4.0	1	49.697	0.028	102.481	9.04	4.52	12.655	4.0	955.0	1.82	Outcome2	10.7	9.04	0.0	No		-1.65666289165723				ShowChoice	Loss
4.0	1	53.726	0.029	106.51	9.04	4.52	12.655	1.0	955.0	1.82	Outcome2	10.7	9.04	0.0	No		-1.65666289165723				ShowResult	Loss
4.0	1	54.746	0.02	107.53	9.04	4.52	12.655	2.011	955.0	1.82	Outcome2	10.7	9.04	0.0	No		-1.65666289165723				ISITrial	Loss
5.0	1	56.785	0.028	109.569	2.61	1.3	12.9813	3.0	955.0	2.0	Outcome1	2.61	4.3	2582.5	Yes	2.0	-1.69243110607777	1.183	57.968		GetAnswer	Mixed
5.0	1	57.989	0.021	110.773	2.61	1.3	12.9813	4.0	955.0	2.0	Outcome1	2.61	4.3	2582.5	Yes		-1.69243110607777				ShowChoice	Mixed
5.0	1	62.017	0.028	114.801	2.61	1.3	12.9813	1.0	955.0	2.0	Outcome1	2.61	4.3	2582.5	Yes		-1.69243110607777				ShowResult	Mixed
5.0	1	63.037	0.02	115.821	2.61	1.3	12.9813	5.129	955.0	2.0	Outcome1	2.61	4.3	2582.5	Yes		-1.69243110607777				ISITrial	Mixed
5.0	1	70.794	0.026	123.578	2.61	1.3	12.9813	3.657	955.0	2.0	Outcome1	2.61	4.3	2582.5	Yes		-1.69243110607777			588.0	TrialHappiness	Mixed
5.0	1	74.822	4.028	127.606	2.61	1.3	12.9813	2.33	955.0	2.0	Outcome1	2.61	4.3	2582.5	Yes		-1.69243110607777				ISIRate	Mixed
6.0	1	77.18	0.028	129.964	0.7	-3.0	13.0688	3.0	955.0	0.3	Outcome1	0.7	-7.82	0.0	No	2.0	8.51642129105323	1.115	78.295		GetAnswer	Mixed
6.0	1	78.316	0.021	131.1	0.7	-3.0	13.0688	4.0	955.0	0.3	Outcome1	0.7	-7.82	0.0	No		8.51642129105323				ShowChoice	Mixed
6.0	1	82.328	0.012	135.112	0.7	-3.0	13.0688	1.0	955.0	0.3	Outcome1	0.7	-7.82	0.0	No		8.51642129105323				ShowResult	Mixed
6.0	1	83.348	0.02	136.132	0.7	-3.0	13.0688	6.232	955.0	0.3	Outcome1	0.7	-7.82	0.0	No		8.51642129105323				ISITrial	Mixed
7.0	1	89.6	0.02	142.384	0.0	0.0	13.0688	3.0	955.0	0.82	Certain	-0.21	1.5	0.0	No	4.0	-1.7141374103435303	1.266	90.866		GetAnswer	Mixed
7.0	1	90.887	0.02	143.671	0.0	0.0	13.0688	4.0	955.0	0.82	Certain	-0.21	1.5	0.0	No		-1.7141374103435303				ShowChoice	Mixed
7.0	1	94.899	0.012	147.683	0.0	0.0	13.0688	1.0	955.0	0.82	Certain	-0.21	1.5	0.0	No		-1.7141374103435303				ShowResult	Mixed
7.0	1	95.919	0.02	148.703	0.0	0.0	13.0688	2.305	955.0	0.82	Certain	-0.21	1.5	0.0	No		-1.7141374103435303				ISITrial	Mixed
8.0	1	98.243	0.019	151.027	13.9	2.28	14.8063	3.0	955.0	3.6	Outcome1	13.9	4.55	3112.5	Yes	2.0	9.34767836919592	0.9	99.143		GetAnswer	Loss
8.0	1	99.162	0.019	151.946	13.9	2.28	14.8063	4.0	955.0	3.6	Outcome1	13.9	4.55	3112.5	Yes		9.34767836919592				ShowChoice	Loss
8.0	1	103.191	0.029	155.975	13.9	2.28	14.8063	1.0	955.0	3.6	Outcome1	13.9	4.55	3112.5	Yes		9.34767836919592				ShowResult	Loss
8.0	1	104.21	0.019	156.994	13.9	2.28	14.8063	3.506	955.0	3.6	Outcome1	13.9	4.55	3112.5	Yes		9.34767836919592				ISITrial	Loss
8.0	1	110.88	0.03	163.664	13.9	2.28	14.8063	1.445	955.0	3.6	Outcome1	13.9	4.55	3112.5	Yes		9.34767836919592			588.0	TrialHappiness	Loss
8.0	1	114.909	4.029	167.693	13.9	2.28	14.8063	4.45	955.0	3.6	Outcome1	13.9	4.55	3112.5	Yes		9.34767836919592				ISIRate	Loss
9.0	1	119.389	0.03	172.173	12.3	1.27	16.3438	3.0	955.0	5.0	Outcome2	2.54	12.3	0.0	No	2.0	9.76330690826727	0.738	120.127		GetAnswer	Loss
9.0	1	120.141	0.014	172.925	12.3	1.27	16.3438	4.0	955.0	5.0	Outcome2	2.54	12.3	0.0	No		9.76330690826727				ShowChoice	Loss
9.0	1	124.17	0.029	176.954	12.3	1.27	16.3438	1.0	955.0	5.0	Outcome2	2.54	12.3	0.0	No		9.76330690826727				ShowResult	Loss
9.0	1	125.19	0.02	177.974	12.3	1.27	16.3438	2.0	955.0	5.0	Outcome2	2.54	12.3	0.0	No		9.76330690826727				ISITrial	Loss
10.0	1	127.213	0.023	179.997	-1.5	-6.0	16.1563	3.0	955.0	0.2	Outcome2	-11.68	-1.5	4000.0	Yes	2.0	10.178935447338601	1.381	128.594		GetAnswer	Mixed
10.0	1	128.617	0.023	181.401	-1.5	-6.0	16.1563	4.0	955.0	0.2	Outcome2	-11.68	-1.5	4000.0	Yes		10.178935447338601				ShowChoice	Mixed
10.0	1	132.629	0.012	185.413	-1.5	-6.0	16.1563	1.0	955.0	0.2	Outcome2	-11.68	-1.5	4000.0	Yes		10.178935447338601				ShowResult	Mixed
10.0	1	133.649	0.02	186.433	-1.5	-6.0	16.1563	2.0	955.0	0.2	Outcome2	-11.68	-1.5	4000.0	Yes		10.178935447338601				ISITrial	Mixed
10.0	1	139.7	0.029	192.484	-1.5	-6.0	16.1563	3.091	955.0	0.2	Outcome2	-11.68	-1.5	4000.0	Yes		10.178935447338601			608.0	TrialHappiness	Mixed
10.0	1	143.729	4.029	196.513	-1.5	-6.0	16.1563	8.0	955.0	0.2	Outcome2	-11.68	-1.5	4000.0	Yes		10.178935447338601				ISIRate	Mixed
11.0	1	151.753	0.024	204.537	0.0	0.0	16.1563	3.0	955.0	2.22	Certain	5.1	-5.15	0.0	No	4.0	10.254813137032802	1.35	153.103		GetAnswer	Gain
11.0	1	153.124	0.021	205.908	0.0	0.0	16.1563	4.0	955.0	2.22	Certain	5.1	-5.15	0.0	No		10.254813137032802				ShowChoice	Gain
11.0	1	157.152	0.028	209.936	0.0	0.0	16.1563	1.0	955.0	2.22	Certain	5.1	-5.15	0.0	No		10.254813137032802				ShowResult	Gain
11.0	1	158.172	0.02	210.956	0.0	0.0	16.1563	3.324	955.0	2.22	Certain	5.1	-5.15	0.0	No		10.254813137032802				ISITrial	Gain
12.0	1	161.515	0.019	214.299	9.9	4.95	17.3938	3.0	955.0	3.16	Outcome2	11.7	9.9	2618.75	Yes	2.0	-1.8042657606644	0.925	162.44		GetAnswer	Loss
12.0	1	162.468	0.028	215.252	9.9	4.95	17.3938	4.0	955.0	3.16	Outcome2	11.7	9.9	2618.75	Yes		-1.8042657606644				ShowChoice	Loss
12.0	1	166.48	0.012	219.264	9.9	4.95	17.3938	1.0	955.0	3.16	Outcome2	11.7	9.9	2618.75	Yes		-1.8042657606644				ShowResult	Loss
12.0	1	167.5	0.02	220.284	9.9	4.95	17.3938	6.642	955.0	3.16	Outcome2	11.7	9.9	2618.75	Yes		-1.8042657606644				ISITrial	Loss
12.0	1	176.811	0.022	229.595	9.9	4.95	17.3938	2.419	955.0	3.16	Outcome2	11.7	9.9	2618.75	Yes		-1.8042657606644			656.0	TrialHappiness	Loss
12.0	1	180.84	4.029	233.624	9.9	4.95	17.3938	2.475	955.0	3.16	Outcome2	11.7	9.9	2618.75	Yes		-1.8042657606644				ISIRate	Loss
13.0	1	183.347	0.032	236.131	-5.0	-5.0	16.7688	3.0	955.0	1.0	Certain	-10.53	-0.3	0.0	No	4.0	10.225368063420198	1.43	184.777		GetAnswer	Mixed
13.0	1	184.802	0.025	237.586	-5.0	-5.0	16.7688	4.0	955.0	1.0	Certain	-10.53	-0.3	0.0	No		10.225368063420198				ShowChoice	Mixed
13.0	1	188.83	0.028	241.614	-5.0	-5.0	16.7688	1.0	955.0	1.0	Certain	-10.53	-0.3	0.0	No		10.225368063420198				ShowResult	Mixed
13.0	1	189.85	0.02	242.634	-5.0	-5.0	16.7688	3.48	955.0	1.0	Certain	-10.53	-0.3	0.0	No		10.225368063420198				ISITrial	Mixed
14.0	1	193.361	0.031	246.145	6.23	3.12	17.5476	3.0	955.0	3.6	Outcome1	6.23	7.9	0.0	No	2.0	-1.67044167610419	0.912	194.273		GetAnswer	Gain
14.0	1	194.297	0.024	247.081	6.23	3.12	17.5476	4.0	955.0	3.6	Outcome1	6.23	7.9	0.0	No		-1.67044167610419				ShowChoice	Gain
14.0	1	198.325	0.028	251.109	6.23	3.12	17.5476	1.0	955.0	3.6	Outcome1	6.23	7.9	0.0	No		-1.67044167610419				ShowResult	Gain
14.0	1	199.345	0.02	252.129	6.23	3.12	17.5476	5.019	955.0	3.6	Outcome1	6.23	7.9	0.0	No		-1.67044167610419				ISITrial	Gain
15.0	1	204.394	0.03	257.178	4.1	-1.0	18.0601	3.0	955.0	1.5	Outcome1	4.1	-6.8	3348.5	Yes	2.0	10.9026047565119	0.889	205.283		GetAnswer	Mixed
15.0	1	205.313	0.03	258.097	4.1	-1.0	18.0601	4.0	955.0	1.5	Outcome1	4.1	-6.8	3348.5	Yes		10.9026047565119				ShowChoice	Mixed
15.0	1	209.342	0.029	262.126	4.1	-1.0	18.0601	1.0	955.0	1.5	Outcome1	4.1	-6.8	3348.5	Yes		10.9026047565119				ShowResult	Mixed
15.0	1	210.362	0.02	263.146	4.1	-1.0	18.0601	7.614	955.0	1.5	Outcome1	4.1	-6.8	3348.5	Yes		10.9026047565119				ISITrial	Mixed
15.0	1	221.378	0.029	274.162	4.1	-1.0	18.0601	1.945	955.0	1.5	Outcome1	4.1	-6.8	3348.5	Yes		10.9026047565119			640.0	TrialHappiness	Mixed
15.0	1	225.39	4.012	278.174	4.1	-1.0	18.0601	5.394	955.0	1.5	Outcome1	4.1	-6.8	3348.5	Yes		10.9026047565119				ISIRate	Mixed
16.0	1	230.806	0.022	283.59	1.31	2.0	18.2239	3.0	955.0	0.52	Outcome1	1.31	3.1	0.0	No	2.0	-1.79180822952057	1.019	231.825		GetAnswer	Mixed
16.0	1	231.842	0.017	284.626	1.31	2.0	18.2239	4.0	955.0	0.52	Outcome1	1.31	3.1	0.0	No		-1.79180822952057				ShowChoice	Mixed
16.0	1	235.854	0.012	288.638	1.31	2.0	18.2239	1.0	955.0	0.52	Outcome1	1.31	3.1	0.0	No		-1.79180822952057				ShowResult	Mixed
16.0	1	236.874	0.02	289.658	1.31	2.0	18.2239	3.008	955.0	0.52	Outcome1	1.31	3.1	0.0	No		-1.79180822952057				ISITrial	Mixed
17.0	1	239.9	0.018	292.684	-3.0	-3.0	17.8489	3.0	955.0	0.4	Certain	-8.97	2.9	3041.5	Yes	4.0	11.8697621744054	1.379	241.279		GetAnswer	Mixed
17.0	1	241.304	0.025	294.088	-3.0	-3.0	17.8489	4.0	955.0	0.4	Certain	-8.97	2.9	3041.5	Yes		11.8697621744054				ShowChoice	Mixed
17.0	1	245.316	0.012	298.1	-3.0	-3.0	17.8489	1.0	955.0	0.4	Certain	-8.97	2.9	3041.5	Yes		11.8697621744054				ShowResult	Mixed
17.0	1	246.336	0.02	299.12	-3.0	-3.0	17.8489	3.566	955.0	0.4	Certain	-8.97	2.9	3041.5	Yes		11.8697621744054				ISITrial	Mixed
17.0	1	252.989	0.017	305.773	-3.0	-3.0	17.8489	0.91	955.0	0.4	Certain	-8.97	2.9	3041.5	Yes		11.8697621744054			612.0	TrialHappiness	Mixed
17.0	1	257.001	4.012	309.785	-3.0	-3.0	17.8489	4.166	955.0	0.4	Certain	-8.97	2.9	3041.5	Yes		11.8697621744054				ISIRate	Mixed
18.0	1	261.197	0.03	313.981	-4.0	-4.0	17.3489	3.0	955.0	0.2	Certain	2.5	-10.2	0.0	No	4.0	12.7021517553794	1.376	262.573		GetAnswer	Mixed
18.0	1	262.584	0.011	315.368	-4.0	-4.0	17.3489	4.0	955.0	0.2	Certain	2.5	-10.2	0.0	No		12.7021517553794				ShowChoice	Mixed
18.0	1	266.597	0.013	319.381	-4.0	-4.0	17.3489	1.0	955.0	0.2	Certain	2.5	-10.2	0.0	No		12.7021517553794				ShowResult	Mixed
18.0	1	267.616	0.019	320.4	-4.0	-4.0	17.3489	6.787	955.0	0.2	Certain	2.5	-10.2	0.0	No		12.7021517553794				ISITrial	Mixed
19.0	1	274.42	0.017	327.204	-3.0	-3.0	16.9739	3.0	955.0	0.66	Certain	-9.79	3.3	0.0	No	4.0	13.0906002265006	1.207	275.627		GetAnswer	Mixed
19.0	1	275.64	0.013	328.424	-3.0	-3.0	16.9739	4.0	955.0	0.66	Certain	-9.79	3.3	0.0	No		13.0906002265006				ShowChoice	Mixed
19.0	1	279.652	0.012	332.436	-3.0	-3.0	16.9739	1.0	955.0	0.66	Certain	-9.79	3.3	0.0	No		13.0906002265006				ShowResult	Mixed
19.0	1	280.672	0.02	333.456	-3.0	-3.0	16.9739	2.0	955.0	0.66	Certain	-9.79	3.3	0.0	No		13.0906002265006				ISITrial	Mixed
20.0	1	282.695	0.023	335.479	13.3	-0.09	18.6364	3.0	955.0	2.48	Outcome1	13.3	-0.18	2921.25	Yes	2.0	13.479048697621698	1.104	283.799		GetAnswer	Loss
20.0	1	283.815	0.016	336.599	13.3	-0.09	18.6364	4.0	955.0	2.48	Outcome1	13.3	-0.18	2921.25	Yes		13.479048697621698				ShowChoice	Loss
20.0	1	287.827	0.012	340.611	13.3	-0.09	18.6364	1.0	955.0	2.48	Outcome1	13.3	-0.18	2921.25	Yes		13.479048697621698				ShowResult	Loss
20.0	1	288.846	0.019	341.63	13.3	-0.09	18.6364	8.0	955.0	2.48	Outcome1	13.3	-0.18	2921.25	Yes		13.479048697621698				ISITrial	Loss
20.0	1	299.813	0.022	352.597	13.3	-0.09	18.6364	3.657	955.0	2.48	Outcome1	13.3	-0.18	2921.25	Yes		13.479048697621698			688.0	TrialHappiness	Loss
20.0	1	303.825	4.012	356.609	13.3	-0.09	18.6364	3.685	955.0	2.48	Outcome1	13.3	-0.18	2921.25	Yes		13.479048697621698				ISIRate	Loss
21.0	1	307.536	0.026	360.32	-7.0	-7.0	17.7614	3.0	955.0	0.52	Certain	-0.9	-13.48	0.0	No	4.0	12.5764439411099	1.038	308.574		GetAnswer	Mixed
21.0	1	308.589	0.015	361.373	-7.0	-7.0	17.7614	4.0	955.0	0.52	Certain	-0.9	-13.48	0.0	No		12.5764439411099				ShowChoice	Mixed
21.0	1	312.601	0.012	365.385	-7.0	-7.0	17.7614	1.0	955.0	0.52	Certain	-0.9	-13.48	0.0	No		12.5764439411099				ShowResult	Mixed
21.0	1	313.621	0.02	366.405	-7.0	-7.0	17.7614	3.555	955.0	0.52	Certain	-0.9	-13.48	0.0	No		12.5764439411099				ISITrial	Mixed
22.0	1	317.198	0.022	369.982	10.5	-1.19	19.0739	3.0	955.0	1.68	Outcome1	10.5	-2.38	3219.5	Yes	2.0	12.8788221970555	0.759	317.957		GetAnswer	Loss
22.0	1	317.984	0.027	370.768	10.5	-1.19	19.0739	4.0	955.0	1.68	Outcome1	10.5	-2.38	3219.5	Yes		12.8788221970555				ShowChoice	Loss
22.0	1	322.012	0.028	374.796	10.5	-1.19	19.0739	1.0	955.0	1.68	Outcome1	10.5	-2.38	3219.5	Yes		12.8788221970555				ShowResult	Loss
22.0	1	323.032	0.02	375.816	10.5	-1.19	19.0739	6.793	955.0	1.68	Outcome1	10.5	-2.38	3219.5	Yes		12.8788221970555				ISITrial	Loss
22.0	1	333.079	0.023	385.863	10.5	-1.19	19.0739	1.093	955.0	1.68	Outcome1	10.5	-2.38	3219.5	Yes		12.8788221970555			584.0	TrialHappiness	Loss
22.0	1	337.091	4.012	389.875	10.5	-1.19	19.0739	4.878	955.0	1.68	Outcome1	10.5	-2.38	3219.5	Yes		12.8788221970555				ISIRate	Loss
23.0	1	341.989	0.02	394.773	6.1	-1.0	19.8364	3.0	955.0	4.2	Outcome2	-8.85	6.1	0.0	No	2.0	14.9479048697622	1.089	343.078		GetAnswer	Gain
23.0	1	343.092	0.014	395.876	6.1	-1.0	19.8364	4.0	955.0	4.2	Outcome2	-8.85	6.1	0.0	No		14.9479048697622				ShowChoice	Gain
23.0	1	347.104	0.012	399.888	6.1	-1.0	19.8364	1.0	955.0	4.2	Outcome2	-8.85	6.1	0.0	No		14.9479048697622				ShowResult	Gain
23.0	1	348.124	0.02	400.908	6.1	-1.0	19.8364	8.0	955.0	4.2	Outcome2	-8.85	6.1	0.0	No		14.9479048697622				ISITrial	Gain
24.0	1	356.148	0.024	408.932	4.44	2.22	20.3914	3.0	955.0	1.82	Outcome2	6.7	4.44	3255.0	Yes	2.0	-2.2610419026047595	1.083	357.231		GetAnswer	Gain
24.0	1	357.251	0.02	410.035	4.44	2.22	20.3914	4.0	955.0	1.82	Outcome2	6.7	4.44	3255.0	Yes		-2.2610419026047595				ShowChoice	Gain
24.0	1	361.263	0.012	414.047	4.44	2.22	20.3914	1.0	955.0	1.82	Outcome2	6.7	4.44	3255.0	Yes		-2.2610419026047595				ShowResult	Gain
24.0	1	362.283	0.02	415.067	4.44	2.22	20.3914	2.0	955.0	1.82	Outcome2	6.7	4.44	3255.0	Yes		-2.2610419026047595				ISITrial	Gain
24.0	1	367.582	0.021	420.366	4.44	2.22	20.3914	3.074	955.0	1.82	Outcome2	6.7	4.44	3255.0	Yes		-2.2610419026047595			668.0	TrialHappiness	Gain
24.0	1	371.594	4.012	424.378	4.44	2.22	20.3914	5.02	955.0	1.82	Outcome2	6.7	4.44	3255.0	Yes		-2.2610419026047595				ISIRate	Gain
25.0	1	376.643	0.029	429.427	0.0	0.0	20.3914	3.0	955.0	3.16	Certain	7.7	-6.66	0.0	No	4.0	14.361268403171	1.067	377.71		GetAnswer	Gain
25.0	1	377.729	0.019	430.513	0.0	0.0	20.3914	4.0	955.0	3.16	Certain	7.7	-6.66	0.0	No		14.361268403171				ShowChoice	Gain
25.0	1	381.741	0.012	434.525	0.0	0.0	20.3914	1.0	955.0	3.16	Certain	7.7	-6.66	0.0	No		14.361268403171				ShowResult	Gain
25.0	1	382.761	0.02	435.545	0.0	0.0	20.3914	3.749	955.0	3.16	Certain	7.7	-6.66	0.0	No		14.361268403171				ISITrial	Gain
26.0	1	386.539	0.029	439.323	0.0	0.0	20.3914	3.0	955.0	1.0	Certain	1.7	-0.28	0.0	No	4.0	-1.9822574556436399	1.613	388.152		GetAnswer	Mixed
26.0	1	388.177	0.025	440.961	0.0	0.0	20.3914	4.0	955.0	1.0	Certain	1.7	-0.28	0.0	No		-1.9822574556436399				ShowChoice	Mixed
26.0	1	392.189	0.012	444.973	0.0	0.0	20.3914	1.0	955.0	1.0	Certain	1.7	-0.28	0.0	No		-1.9822574556436399				ShowResult	Mixed
26.0	1	393.209	0.02	445.993	0.0	0.0	20.3914	7.834	955.0	1.0	Certain	1.7	-0.28	0.0	No		-1.9822574556436399				ISITrial	Mixed
27.0	1	401.066	0.023	453.85	2.49	1.25	20.7027	3.0	955.0	1.68	Outcome1	2.49	4.5	2549.75	Yes	2.0	-2.00934314835787	0.79	401.856		GetAnswer	Gain
27.0	1	401.868	0.012	454.652	2.49	1.25	20.7027	4.0	955.0	1.68	Outcome1	2.49	4.5	2549.75	Yes		-2.00934314835787				ShowChoice	Gain
27.0	1	405.88	0.012	458.664	2.49	1.25	20.7027	1.0	955.0	1.68	Outcome1	2.49	4.5	2549.75	Yes		-2.00934314835787				ShowResult	Gain
27.0	1	406.9	0.02	459.684	2.49	1.25	20.7027	4.225	955.0	1.68	Outcome1	2.49	4.5	2549.75	Yes		-2.00934314835787				ISITrial	Gain
27.0	1	413.72	0.024	466.504	2.49	1.25	20.7027	1.886	955.0	1.68	Outcome1	2.49	4.5	2549.75	Yes		-2.00934314835787			672.0	TrialHappiness	Gain
27.0	1	417.732	4.012	470.516	2.49	1.25	20.7027	2.199	955.0	1.68	Outcome1	2.49	4.5	2549.75	Yes		-2.00934314835787				ISIRate	Gain
	1	419.956	0.025	472.74				-0.001								{SPACE}		31.375	451.331		Rest	
	1	451.35	0.019	504.134				4.0													BlockHappyPreview	
	1	455.362	0.012	508.146				2.925								2{-2}4{-4}		2.925	458.287	516.0	BlockStartHappiness	
	1	462.75	0.011	515.534				-0.001								5.0		2.326	465.076		ScanWait	
	2	0.015	0.015	517.875				10.0													GetReady	
28.0	2	10.028	0.013	527.888	-1.0	-1.0	20.5777	3.0	70.0	2.0	Certain	2.3	-5.28	0.0	No	4.0	-7.585034013605441	1.092	11.12		GetAnswer	Mixed
28.0	2	11.131	0.011	528.991	-1.0	-1.0	20.5777	4.0	70.0	2.0	Certain	2.3	-5.28	0.0	No		-7.585034013605441				ShowChoice	Mixed
28.0	2	15.143	0.012	533.003	-1.0	-1.0	20.5777	1.0	70.0	2.0	Certain	2.3	-5.28	0.0	No		-7.585034013605441				ShowResult	Mixed
28.0	2	16.163	0.02	534.023	-1.0	-1.0	20.5777	3.575	70.0	2.0	Certain	2.3	-5.28	0.0	No		-7.585034013605441				ISITrial	Mixed
29.0	2	19.757	0.019	537.617	-1.19	-0.6	20.4289	3.0	70.0	2.0	Outcome1	-1.19	6.9	3529.0	Yes	2.0	-8.09070294784581	0.908	20.665		GetAnswer	Gain
29.0	2	20.677	0.012	538.537	-1.19	-0.6	20.4289	4.0	70.0	2.0	Outcome1	-1.19	6.9	3529.0	Yes		-8.09070294784581				ShowChoice	Gain
29.0	2	24.689	0.012	542.549	-1.19	-0.6	20.4289	1.0	70.0	2.0	Outcome1	-1.19	6.9	3529.0	Yes		-8.09070294784581				ShowResult	Gain
29.0	2	25.708	0.019	543.568	-1.19	-0.6	20.4289	3.955	70.0	2.0	Outcome1	-1.19	6.9	3529.0	Yes		-8.09070294784581				ISITrial	Gain
29.0	2	33.231	0.015	551.091	-1.19	-0.6	20.4289	1.662	70.0	2.0	Outcome1	-1.19	6.9	3529.0	Yes		-8.09070294784581			456.0	TrialHappiness	Gain
29.0	2	37.243	4.012	555.103	-1.19	-0.6	20.4289	6.116	70.0	2.0	Outcome1	-1.19	6.9	3529.0	Yes		-8.09070294784581				ISIRate	Gain
30.0	2	43.378	0.019	561.238	1.72	0.86	20.6439	3.0	70.0	2.48	Outcome2	9.3	1.72	0.0	No	2.0	-7.57596371882086	0.811	44.189		GetAnswer	Gain
30.0	2	44.214	0.025	562.074	1.72	0.86	20.6439	4.0	70.0	2.48	Outcome2	9.3	1.72	0.0	No		-7.57596371882086				ShowChoice	Gain
30.0	2	48.226	0.012	566.086	1.72	0.86	20.6439	1.0	70.0	2.48	Outcome2	9.3	1.72	0.0	No		-7.57596371882086				ShowResult	Gain
30.0	2	49.245	0.019	567.105	1.72	0.86	20.6439	4.453	70.0	2.48	Outcome2	9.3	1.72	0.0	No		-7.57596371882086				ISITrial	Gain
31.0	2	53.725	0.027	571.585	-1.0	-1.0	20.5189	3.0	70.0	2.0	Certain	-1.61	0.08	2503.25	Yes	4.0	1.6889644746787598	1.675	55.4		GetAnswer	Mixed
31.0	2	55.414	0.014	573.274	-1.0	-1.0	20.5189	4.0	70.0	2.0	Certain	-1.61	0.08	2503.25	Yes		1.6889644746787598				ShowChoice	Mixed
31.0	2	59.426	0.012	577.286	-1.0	-1.0	20.5189	1.0	70.0	2.0	Certain	-1.61	0.08	2503.25	Yes		1.6889644746787598				ShowResult	Mixed
31.0	2	60.446	0.02	578.306	-1.0	-1.0	20.5189	4.786	70.0	2.0	Certain	-1.61	0.08	2503.25	Yes		1.6889644746787598				ISITrial	Mixed
31.0	2	67.767	0.021	585.627	-1.0	-1.0	20.5189	2.966	70.0	2.0	Certain	-1.61	0.08	2503.25	Yes		1.6889644746787598			512.0	TrialHappiness	Mixed
31.0	2	71.779	4.012	589.639	-1.0	-1.0	20.5189	2.013	70.0	2.0	Certain	-1.61	0.08	2503.25	Yes		1.6889644746787598				ISIRate	Mixed
32.0	2	73.819	0.027	591.679	-0.5	-0.25	20.4564	3.0	70.0	2.0	Outcome2	8.9	-0.5	0.0	No	2.0	-9.403628117913831	1.141	74.96		GetAnswer	Gain
32.0	2	74.972	0.012	592.832	-0.5	-0.25	20.4564	4.0	70.0	2.0	Outcome2	8.9	-0.5	0.0	No		-9.403628117913831				ShowChoice	Gain
32.0	2	78.984	0.012	596.844	-0.5	-0.25	20.4564	1.0	70.0	2.0	Outcome2	8.9	-0.5	0.0	No		-9.403628117913831				ShowResult	Gain
32.0	2	80.004	0.02	597.864	-0.5	-0.25	20.4564	2.0	70.0	2.0	Outcome2	8.9	-0.5	0.0	No		-9.403628117913831				ISITrial	Gain
33.0	2	82.027	0.023	599.887	2.0	2.0	20.7064	3.0	70.0	2.22	Certain	0.79	2.78	0.0	No	4.0	1.9947089947089898	1.658	83.685		GetAnswer	Loss
33.0	2	83.698	0.013	601.558	2.0	2.0	20.7064	4.0	70.0	2.22	Certain	0.79	2.78	0.0	No		1.9947089947089898				ShowChoice	Loss
33.0	2	87.711	0.013	605.571	2.0	2.0	20.7064	1.0	70.0	2.22	Certain	0.79	2.78	0.0	No		1.9947089947089898				ShowResult	Loss
33.0	2	88.73	0.019	606.59	2.0	2.0	20.7064	5.099	70.0	2.22	Certain	0.79	2.78	0.0	No		1.9947089947089898				ISITrial	Loss
34.0	2	93.862	0.033	611.722	-6.51	-1.0	19.8926	3.0	70.0	1.2	Outcome2	3.9	-6.51	3231.5	Yes	2.0	-10.40589569161	1.665	95.527		GetAnswer	Mixed
34.0	2	95.551	0.024	613.411	-6.51	-1.0	19.8926	4.0	70.0	1.2	Outcome2	3.9	-6.51	3231.5	Yes		-10.40589569161				ShowChoice	Mixed
34.0	2	99.563	0.012	617.423	-6.51	-1.0	19.8926	1.0	70.0	1.2	Outcome2	3.9	-6.51	3231.5	Yes		-10.40589569161				ShowResult	Mixed
34.0	2	100.582	0.019	618.442	-6.51	-1.0	19.8926	4.784	70.0	1.2	Outcome2	3.9	-6.51	3231.5	Yes		-10.40589569161				ISITrial	Mixed
34.0	2	108.64	0.028	626.5	-6.51	-1.0	19.8926	2.123	70.0	1.2	Outcome2	3.9	-6.51	3231.5	Yes	2{-2}2{-2}2{-2}2{-2}2{-2}	-10.40589569161	2.123	110.763	600.0	TrialHappiness	Mixed
34.0	2	112.652	4.012	630.512	-6.51	-1.0	19.8926	4.926	70.0	1.2	Outcome2	3.9	-6.51	3231.5	Yes		-10.40589569161				ISIRate	Mixed
35.0	2	117.6	0.022	635.46	2.0	2.0	20.1426	3.0	70.0	1.68	Certain	8.5	-3.9	0.0	No	4.0	-12.4036281179138	1.015	118.615		GetAnswer	Gain
35.0	2	118.636	0.021	636.496	2.0	2.0	20.1426	4.0	70.0	1.68	Certain	8.5	-3.9	0.0	No		-12.4036281179138				ShowChoice	Gain
35.0	2	122.648	0.012	640.508	2.0	2.0	20.1426	1.0	70.0	1.68	Certain	8.5	-3.9	0.0	No		-12.4036281179138				ShowResult	Gain
35.0	2	123.668	0.02	641.528	2.0	2.0	20.1426	2.098	70.0	1.68	Certain	8.5	-3.9	0.0	No		-12.4036281179138				ISITrial	Gain
36.0	2	125.791	0.025	643.651	-0.1	-0.05	20.1301	3.0	70.0	2.0	Outcome2	12.9	-0.1	3335.75	Yes	2.0	-13.004535147392302	1.131	126.922		GetAnswer	Loss
36.0	2	126.945	0.023	644.805	-0.1	-0.05	20.1301	4.0	70.0	2.0	Outcome2	12.9	-0.1	3335.75	Yes		-13.004535147392302				ShowChoice	Loss
36.0	2	130.957	0.012	648.817	-0.1	-0.05	20.1301	1.0	70.0	2.0	Outcome2	12.9	-0.1	3335.75	Yes		-13.004535147392302				ShowResult	Loss
36.0	2	131.976	0.019	649.836	-0.1	-0.05	20.1301	5.156	70.0	2.0	Outcome2	12.9	-0.1	3335.75	Yes		-13.004535147392302				ISITrial	Loss
36.0	2	140.519	0.024	658.379	-0.1	-0.05	20.1301	0.0	70.0	2.0	Outcome2	12.9	-0.1	3335.75	Yes		-13.004535147392302			512.0	TrialHappiness	Loss
36.0	2	144.531	4.012	662.391	-0.1	-0.05	20.1301	5.343	70.0	2.0	Outcome2	12.9	-0.1	3335.75	Yes		-13.004535147392302				ISIRate	Loss
37.0	2	149.897	0.023	667.757	0.39	0.2	20.1789	3.0	70.0	1.68	Outcome1	0.39	12.5	0.0	No	2.0	-12.108843537415	1.142	151.039		GetAnswer	Loss
37.0	2	151.067	0.028	668.927	0.39	0.2	20.1789	4.0	70.0	1.68	Outcome1	0.39	12.5	0.0	No		-12.108843537415				ShowChoice	Loss
37.0	2	155.079	0.012	672.939	0.39	0.2	20.1789	1.0	70.0	1.68	Outcome1	0.39	12.5	0.0	No		-12.108843537415				ShowResult	Loss
37.0	2	156.099	0.02	673.959	0.39	0.2	20.1789	3.598	70.0	1.68	Outcome1	0.39	12.5	0.0	No		-12.108843537415				ISITrial	Loss
38.0	2	159.726	0.029	677.586	-1.0	-1.0	20.0539	3.0	70.0	0.4	Certain	-2.5	-0.28	0.0	No	4.0	2.2201436130007597	1.825	161.551		GetAnswer	Mixed
38.0	2	161.565	0.014	679.425	-1.0	-1.0	20.0539	4.0	70.0	0.4	Certain	-2.5	-0.28	0.0	No		2.2201436130007597				ShowChoice	Mixed
38.0	2	165.577	0.012	683.437	-1.0	-1.0	20.0539	1.0	70.0	0.4	Certain	-2.5	-0.28	0.0	No		2.2201436130007597				ShowResult	Mixed
38.0	2	166.597	0.02	684.457	-1.0	-1.0	20.0539	4.787	70.0	0.4	Certain	-2.5	-0.28	0.0	No		2.2201436130007597				ISITrial	Mixed
39.0	2	171.411	0.027	689.271	-2.0	-2.0	19.8039	3.0	70.0	1.82	Certain	4.7	-8.41	2864.25	Yes	4.0	-13.1111111111111	1.286	172.697		GetAnswer	Gain
39.0	2	172.715	0.018	690.575	-2.0	-2.0	19.8039	4.0	70.0	1.82	Certain	4.7	-8.41	2864.25	Yes		-13.1111111111111				ShowChoice	Gain
39.0	2	176.727	0.012	694.587	-2.0	-2.0	19.8039	1.0	70.0	1.82	Certain	4.7	-8.41	2864.25	Yes		-13.1111111111111				ShowResult	Gain
39.0	2	177.747	0.02	695.607	-2.0	-2.0	19.8039	2.348	70.0	1.82	Certain	4.7	-8.41	2864.25	Yes		-13.1111111111111				ISITrial	Gain
39.0	2	183.012	0.028	700.872	-2.0	-2.0	19.8039	0.457	70.0	1.82	Certain	4.7	-8.41	2864.25	Yes		-13.1111111111111			532.0	TrialHappiness	Gain
39.0	2	187.024	4.012	704.884	-2.0	-2.0	19.8039	3.457	70.0	1.82	Certain	4.7	-8.41	2864.25	Yes		-13.1111111111111				ISIRate	Gain
40.0	2	190.502	0.021	708.362	-3.85	-1.92	19.3227	3.0	70.0	4.2	Outcome1	-3.85	10.1	0.0	No	2.0	-13.952380952381	1.181	191.683		GetAnswer	Gain
40.0	2	191.705	0.022	709.565	-3.85	-1.92	19.3227	4.0	70.0	4.2	Outcome1	-3.85	10.1	0.0	No		-13.952380952381				ShowChoice	Gain
40.0	2	195.717	0.012	713.577	-3.85	-1.92	19.3227	1.0	70.0	4.2	Outcome1	-3.85	10.1	0.0	No		-13.952380952381				ShowResult	Gain
40.0	2	196.737	0.02	714.597	-3.85	-1.92	19.3227	3.158	70.0	4.2	Outcome1	-3.85	10.1	0.0	No		-13.952380952381				ISITrial	Gain
41.0	2	199.913	0.018	717.773	-2.09	-2.09	19.0614	3.0	70.0	5.0	Certain	10.3	-4.18	4000.0	Yes	4.0	-14.476190476190501	1.243	201.156		GetAnswer	Gain
41.0	2	201.167	0.011	719.027	-2.09	-2.09	19.0614	4.0	70.0	5.0	Certain	10.3	-4.18	4000.0	Yes		-14.476190476190501				ShowChoice	Gain
41.0	2	205.179	0.012	723.039	-2.09	-2.09	19.0614	1.0	70.0	5.0	Certain	10.3	-4.18	4000.0	Yes		-14.476190476190501				ShowResult	Gain
41.0	2	206.199	0.02	724.059	-2.09	-2.09	19.0614	4.506	70.0	5.0	Certain	10.3	-4.18	4000.0	Yes		-14.476190476190501				ISITrial	Gain
41.0	2	214.757	0.028	732.617	-2.09	-2.09	19.0614	3.296	70.0	5.0	Certain	10.3	-4.18	4000.0	Yes		-14.476190476190501			512.0	TrialHappiness	Gain
41.0	2	218.769	4.012	736.629	-2.09	-2.09	19.0614	8.0	70.0	5.0	Certain	10.3	-4.18	4000.0	Yes		-14.476190476190501				ISIRate	Gain
42.0	2	226.793	0.024	744.653	-1.0	-1.0	18.9364	3.0	70.0	3.16	Certain	5.7	-8.96	0.0	No	4.0	-14.659863945578198	1.167	227.96		GetAnswer	Gain
42.0	2	227.98	0.02	745.84	-1.0	-1.0	18.9364	4.0	70.0	3.16	Certain	5.7	-8.96	0.0	No		-14.659863945578198				ShowChoice	Gain
42.0	2	231.992	0.012	749.852	-1.0	-1.0	18.9364	1.0	70.0	3.16	Certain	5.7	-8.96	0.0	No		-14.659863945578198				ShowResult	Gain
42.0	2	233.012	0.02	750.872	-1.0	-1.0	18.9364	6.248	70.0	3.16	Certain	5.7	-8.96	0.0	No		-14.659863945578198				ISITrial	Gain
43.0	2	239.281	0.021	757.141	-1.0	-1.0	18.8114	3.0	70.0	0.82	Certain	-2.55	-0.12	2775.75	Yes	4.0	2.43272864701436	1.531	240.812		GetAnswer	Mixed
43.0	2	240.836	0.024	758.696	-1.0	-1.0	18.8114	4.0	70.0	0.82	Certain	-2.55	-0.12	2775.75	Yes		2.43272864701436				ShowChoice	Mixed
43.0	2	244.848	0.012	762.708	-1.0	-1.0	18.8114	1.0	70.0	0.82	Certain	-2.55	-0.12	2775.75	Yes		2.43272864701436				ShowResult	Mixed
43.0	2	245.867	0.019	763.727	-1.0	-1.0	18.8114	4.596	70.0	0.82	Certain	-2.55	-0.12	2775.75	Yes		2.43272864701436				ISITrial	Mixed
43.0	2	253.273	0.016	771.133	-1.0	-1.0	18.8114	1.897	70.0	0.82	Certain	-2.55	-0.12	2775.75	Yes		2.43272864701436			516.0	TrialHappiness	Mixed
43.0	2	257.285	4.012	775.145	-1.0	-1.0	18.8114	3.103	70.0	0.82	Certain	-2.55	-0.12	2775.75	Yes		2.43272864701436				ISIRate	Mixed
44.0	2	260.411	0.023	778.271	2.28	1.0	19.0964	3.0	70.0	2.22	Outcome1	2.28	-0.21	0.0	No	2.0	2.4907407407407405	1.172	261.583		GetAnswer	Gain
44.0	2	261.598	0.015	779.458	2.28	1.0	19.0964	4.0	70.0	2.22	Outcome1	2.28	-0.21	0.0	No		2.4907407407407405				ShowChoice	Gain
44.0	2	265.61	0.012	783.47	2.28	1.0	19.0964	1.0	70.0	2.22	Outcome1	2.28	-0.21	0.0	No		2.4907407407407405				ShowResult	Gain
44.0	2	266.629	0.019	784.489	2.28	1.0	19.0964	2.42	70.0	2.22	Outcome1	2.28	-0.21	0.0	No		2.4907407407407405				ISITrial	Gain
45.0	2	269.07	0.021	786.93	0.0	0.0	19.0964	3.0	70.0	3.6	Certain	1.48	-1.05	0.0	No	4.0	2.5328798185941004	1.71	270.78		GetAnswer	Gain
45.0	2	270.792	0.012	788.652	0.0	0.0	19.0964	4.0	70.0	3.6	Certain	1.48	-1.05	0.0	No		2.5328798185941004				ShowChoice	Gain
45.0	2	274.804	0.012	792.664	0.0	0.0	19.0964	1.0	70.0	3.6	Certain	1.48	-1.05	0.0	No		2.5328798185941004				ShowResult	Gain
45.0	2	275.824	0.02	793.684	0.0	0.0	19.0964	3.144	70.0	3.6	Certain	1.48	-1.05	0.0	No		2.5328798185941004				ISITrial	Gain
46.0	2	279.0	0.032	796.86	-3.24	-1.62	18.6914	3.0	70.0	2.8	Outcome1	-3.24	13.5	3841.25	Yes	2.0	-16.7414965986395	1.529	280.529		GetAnswer	Loss
46.0	2	280.554	0.025	798.414	-3.24	-1.62	18.6914	4.0	70.0	2.8	Outcome1	-3.24	13.5	3841.25	Yes		-16.7414965986395				ShowChoice	Loss
46.0	2	284.566	0.012	802.426	-3.24	-1.62	18.6914	1.0	70.0	2.8	Outcome1	-3.24	13.5	3841.25	Yes		-16.7414965986395				ShowResult	Loss
46.0	2	285.586	0.02	803.446	-3.24	-1.62	18.6914	2.246	70.0	2.8	Outcome1	-3.24	13.5	3841.25	Yes		-16.7414965986395				ISITrial	Loss
46.0	2	291.704	0.02	809.564	-3.24	-1.62	18.6914	3.717	70.0	2.8	Outcome1	-3.24	13.5	3841.25	Yes	4{-4}2{-2}2{-2}2{-2}4{-4}4{-4}	-16.7414965986395	3.717	295.421	460.0	TrialHappiness	Loss
46.0	2	295.716	4.012	813.576	-3.24	-1.62	18.6914	7.365	70.0	2.8	Outcome1	-3.24	13.5	3841.25	Yes		-16.7414965986395				ISIRate	Loss
47.0	2	303.105	0.024	820.965	-1.0	-1.0	18.5664	3.0	70.0	1.68	Certain	6.5	-9.79	0.0	No	4.0	-16.2947845804989	1.068	304.173		GetAnswer	Gain
47.0	2	304.192	0.019	822.052	-1.0	-1.0	18.5664	4.0	70.0	1.68	Certain	6.5	-9.79	0.0	No		-16.2947845804989				ShowChoice	Gain
47.0	2	308.204	0.012	826.064	-1.0	-1.0	18.5664	1.0	70.0	1.68	Certain	6.5	-9.79	0.0	No		-16.2947845804989				ShowResult	Gain
47.0	2	309.224	0.02	827.084	-1.0	-1.0	18.5664	2.0	70.0	1.68	Certain	6.5	-9.79	0.0	No		-16.2947845804989				ISITrial	Gain
48.0	2	311.246	0.022	829.106	-5.0	-5.0	17.9414	3.0	70.0	0.3	Certain	2.7	-14.04	2831.75	Yes	4.0	-16.736961451247197	1.568	312.814		GetAnswer	Mixed
48.0	2	312.834	0.02	830.694	-5.0	-5.0	17.9414	4.0	70.0	0.3	Certain	2.7	-14.04	2831.75	Yes		-16.736961451247197				ShowChoice	Mixed
48.0	2	316.846	0.012	834.706	-5.0	-5.0	17.9414	1.0	70.0	0.3	Certain	2.7	-14.04	2831.75	Yes		-16.736961451247197				ShowResult	Mixed
48.0	2	317.866	0.02	835.726	-5.0	-5.0	17.9414	3.692	70.0	0.3	Certain	2.7	-14.04	2831.75	Yes		-16.736961451247197				ISITrial	Mixed
48.0	2	324.436	0.027	842.296	-5.0	-5.0	17.9414	1.82	70.0	0.3	Certain	2.7	-14.04	2831.75	Yes		-16.736961451247197			392.0	TrialHappiness	Mixed
48.0	2	328.464	4.028	846.324	-5.0	-5.0	17.9414	3.327	70.0	0.3	Certain	2.7	-14.04	2831.75	Yes		-16.736961451247197				ISIRate	Mixed
49.0	2	331.825	0.034	849.685	-1.0	-1.0	17.8164	3.0	70.0	2.22	Certain	7.1	-8.92	0.0	No	4.0	-16.0226757369615	1.148	332.973		GetAnswer	Gain
49.0	2	332.995	0.022	850.855	-1.0	-1.0	17.8164	4.0	70.0	2.22	Certain	7.1	-8.92	0.0	No		-16.0226757369615				ShowChoice	Gain
49.0	2	337.007	0.012	854.867	-1.0	-1.0	17.8164	1.0	70.0	2.22	Certain	7.1	-8.92	0.0	No		-16.0226757369615				ShowResult	Gain
49.0	2	338.026	0.019	855.886	-1.0	-1.0	17.8164	8.0	70.0	2.22	Certain	7.1	-8.92	0.0	No		-16.0226757369615				ISITrial	Gain
50.0	2	346.05	0.024	863.91	0.28	-1.0	17.8514	3.0	70.0	0.52	Outcome1	0.28	-1.94	3547.25	Yes	2.0	2.21749811035525	1.238	347.288		GetAnswer	Mixed
50.0	2	347.304	0.016	865.164	0.28	-1.0	17.8514	4.0	70.0	0.52	Outcome1	0.28	-1.94	3547.25	Yes		2.21749811035525				ShowChoice	Mixed
50.0	2	351.316	0.012	869.176	0.28	-1.0	17.8514	1.0	70.0	0.52	Outcome1	0.28	-1.94	3547.25	Yes		2.21749811035525				ShowResult	Mixed
50.0	2	352.336	0.02	870.196	0.28	-1.0	17.8514	7.537	70.0	0.52	Outcome1	0.28	-1.94	3547.25	Yes		2.21749811035525				ISITrial	Mixed
50.0	2	363.469	0.03	881.329	0.28	-1.0	17.8514	3.128	70.0	0.52	Outcome1	0.28	-1.94	3547.25	Yes		2.21749811035525			412.0	TrialHappiness	Mixed
50.0	2	367.481	4.012	885.341	0.28	-1.0	17.8514	6.189	70.0	0.52	Outcome1	0.28	-1.94	3547.25	Yes		2.21749811035525				ISIRate	Mixed
51.0	2	373.7	0.03	891.56	-17.79	-9.0	15.6276	3.0	70.0	0.66	Outcome2	-0.7	-17.79	0.0	No	2.0	-17.092970521542	1.812	375.512		GetAnswer	Mixed
51.0	2	375.539	0.027	893.399	-17.79	-9.0	15.6276	4.0	70.0	0.66	Outcome2	-0.7	-17.79	0.0	No		-17.092970521542				ShowChoice	Mixed
51.0	2	379.551	0.012	897.411	-17.79	-9.0	15.6276	1.0	70.0	0.66	Outcome2	-0.7	-17.79	0.0	No		-17.092970521542				ShowResult	Mixed
51.0	2	380.57	0.019	898.43	-17.79	-9.0	15.6276	5.508	70.0	0.66	Outcome2	-0.7	-17.79	0.0	No		-17.092970521542				ISITrial	Mixed
52.0	2	386.104	0.026	903.964	0.0	0.0	15.6276	3.0	70.0	4.2	Certain	8.1	-9.38	0.0	No	4.0	-17.480725623582803	1.88	387.984		GetAnswer	Gain
52.0	2	388.009	0.025	905.869	0.0	0.0	15.6276	4.0	70.0	4.2	Certain	8.1	-9.38	0.0	No		-17.480725623582803				ShowChoice	Gain
52.0	2	392.021	0.012	909.881	0.0	0.0	15.6276	1.0	70.0	4.2	Certain	8.1	-9.38	0.0	No		-17.480725623582803				ShowResult	Gain
52.0	2	393.041	0.02	910.901	0.0	0.0	15.6276	5.913	70.0	4.2	Certain	8.1	-9.38	0.0	No		-17.480725623582803				ISITrial	Gain
53.0	2	398.976	0.022	916.836	-5.97	-2.98	14.8813	3.0	70.0	3.6	Outcome2	11.9	-5.97	2996.75	Yes	2.0	-17.868480725623602	1.593	400.569		GetAnswer	Loss
53.0	2	400.58	0.011	918.44	-5.97	-2.98	14.8813	4.0	70.0	3.6	Outcome2	11.9	-5.97	2996.75	Yes		-17.868480725623602				ShowChoice	Loss
53.0	2	404.592	0.012	922.452	-5.97	-2.98	14.8813	1.0	70.0	3.6	Outcome2	11.9	-5.97	2996.75	Yes		-17.868480725623602				ShowResult	Loss
53.0	2	405.612	0.02	923.472	-5.97	-2.98	14.8813	3.66	70.0	3.6	Outcome2	11.9	-5.97	2996.75	Yes		-17.868480725623602				ISITrial	Loss
53.0	2	412.315	0.028	930.175	-5.97	-2.98	14.8813	3.101	70.0	3.6	Outcome2	11.9	-5.97	2996.75	Yes		-17.868480725623602			208.0	TrialHappiness	Loss
53.0	2	416.327	4.012	934.187	-5.97	-2.98	14.8813	3.987	70.0	3.6	Outcome2	11.9	-5.97	2996.75	Yes		-17.868480725623602				ISIRate	Loss
54.0	2	420.34	0.026	938.2	-8.0	-8.0	13.8813	3.0	70.0	0.3	Certain	-16.09	-1.3	0.0	No	4.0	-14.786848072562401	1.575	421.915		GetAnswer	Mixed
54.0	2	421.928	0.013	939.788	-8.0	-8.0	13.8813	4.0	70.0	0.3	Certain	-16.09	-1.3	0.0	No		-14.786848072562401				ShowChoice	Mixed
54.0	2	425.94	0.012	943.8	-8.0	-8.0	13.8813	1.0	70.0	0.3	Certain	-16.09	-1.3	0.0	No		-14.786848072562401				ShowResult	Mixed
54.0	2	426.959	0.019	944.819	-8.0	-8.0	13.8813	8.0	70.0	0.3	Certain	-16.09	-1.3	0.0	No		-14.786848072562401				ISITrial	Mixed
	2	434.983	0.024	952.843				-0.001								{SPACE}		27.807	462.79		Rest	
	2	462.817	0.027	980.677				4.0													BlockHappyPreview	
	2	466.829	0.012	984.689				0.0												512.0	BlockStartHappiness	
	2	472.78	0.022	990.64				-0.001								5.0		2.017	474.797		ScanWait	
	3	0.022	0.022	992.679				10.0													GetReady	
55.0	3	10.036	0.014	1002.693	3.5	0.0	14.3188	3.0	955.0	0.82	Outcome1	3.5	-4.03	2533.25	Yes	2.0	7.52548131370328	1.232	11.268		GetAnswer	Mixed
55.0	3	11.289	0.021	1003.946	3.5	0.0	14.3188	4.0	955.0	0.82	Outcome1	3.5	-4.03	2533.25	Yes		7.52548131370328				ShowChoice	Mixed
55.0	3	15.301	0.012	1007.958	3.5	0.0	14.3188	1.0	955.0	0.82	Outcome1	3.5	-4.03	2533.25	Yes		7.52548131370328				ShowResult	Mixed
55.0	3	16.321	0.02	1008.978	3.5	0.0	14.3188	7.709	955.0	0.82	Outcome1	3.5	-4.03	2533.25	Yes		7.52548131370328				ISITrial	Mixed
55.0	3	26.602	0.025	1019.259	3.5	0.0	14.3188	1.161	955.0	0.82	Outcome1	3.5	-4.03	2533.25	Yes	2{-2}	7.52548131370328	1.161	27.763	532.0	TrialHappiness	Mixed
55.0	3	30.614	4.012	1023.271	3.5	0.0	14.3188	2.133	955.0	0.82	Outcome1	3.5	-4.03	2533.25	Yes		7.52548131370328				ISIRate	Mixed
56.0	3	32.77	0.023	1025.427	5.3	1.0	14.9813	3.0	955.0	2.48	Outcome1	5.3	-2.39	0.0	No	2.0	7.687429218573049	0.837	33.607		GetAnswer	Gain
56.0	3	33.623	0.016	1026.28	5.3	1.0	14.9813	4.0	955.0	2.48	Outcome1	5.3	-2.39	0.0	No		7.687429218573049				ShowChoice	Gain
56.0	3	37.652	0.029	1030.309	5.3	1.0	14.9813	1.0	955.0	2.48	Outcome1	5.3	-2.39	0.0	No		7.687429218573049				ShowResult	Gain
56.0	3	38.671	0.019	1031.328	5.3	1.0	14.9813	4.697	955.0	2.48	Outcome1	5.3	-2.39	0.0	No		7.687429218573049				ISITrial	Gain
57.0	3	43.385	0.017	1036.042	9.5	4.75	16.1688	3.0	955.0	2.48	Outcome1	9.5	11.3	0.0	No	2.0	-1.7983201208003	0.824	44.209		GetAnswer	Loss
57.0	3	44.238	0.029	1036.895	9.5	4.75	16.1688	4.0	955.0	2.48	Outcome1	9.5	11.3	0.0	No		-1.7983201208003				ShowChoice	Loss
57.0	3	48.25	0.012	1040.907	9.5	4.75	16.1688	1.0	955.0	2.48	Outcome1	9.5	11.3	0.0	No		-1.7983201208003				ShowResult	Loss
57.0	3	49.27	0.02	1041.927	9.5	4.75	16.1688	4.291	955.0	2.48	Outcome1	9.5	11.3	0.0	No		-1.7983201208003				ISITrial	Loss
58.0	3	53.583	0.022	1046.24	0.1	-4.0	16.1813	3.0	955.0	1.5	Outcome2	-8.55	0.1	3045.75	Yes	2.0	8.645526613816541	1.433	55.016		GetAnswer	Mixed
58.0	3	55.037	0.021	1047.694	0.1	-4.0	16.1813	4.0	955.0	1.5	Outcome2	-8.55	0.1	3045.75	Yes		8.645526613816541				ShowChoice	Mixed
58.0	3	59.066	0.029	1051.723	0.1	-4.0	16.1813	1.0	955.0	1.5	Outcome2	-8.55	0.1	3045.75	Yes		8.645526613816541				ShowResult	Mixed
58.0	3	60.085	0.019	1052.742	0.1	-4.0	16.1813	2.037	955.0	1.5	Outcome2	-8.55	0.1	3045.75	Yes		8.645526613816541				ISITrial	Mixed
58.0	3	65.217	0.029	1057.874	0.1	-4.0	16.1813	2.226	955.0	1.5	Outcome2	-8.55	0.1	3045.75	Yes		8.645526613816541			596.0	TrialHappiness	Mixed
58.0	3	69.229	4.012	1061.886	0.1	-4.0	16.1813	4.183	955.0	1.5	Outcome2	-8.55	0.1	3045.75	Yes		8.645526613816541				ISIRate	Mixed
59.0	3	73.442	0.03	1066.099	3.7	0.0	16.6438	3.0	955.0	1.0	Outcome1	3.7	-4.34	0.0	No	2.0	8.03737259343148	0.827	74.269		GetAnswer	Mixed
59.0	3	74.295	0.026	1066.952	3.7	0.0	16.6438	4.0	955.0	1.0	Outcome1	3.7	-4.34	0.0	No		8.03737259343148				ShowChoice	Mixed
59.0	3	78.323	0.028	1070.98	3.7	0.0	16.6438	1.0	955.0	1.0	Outcome1	3.7	-4.34	0.0	No		8.03737259343148				ShowResult	Mixed
59.0	3	79.343	0.02	1072.0	3.7	0.0	16.6438	5.064	955.0	1.0	Outcome1	3.7	-4.34	0.0	No		8.03737259343148				ISITrial	Mixed
60.0	3	84.442	0.035	1077.099	3.25	1.62	17.05	3.0	955.0	2.0	Outcome1	3.25	4.9	3562.5	Yes	2.0	-1.65232163080408	0.683	85.125		GetAnswer	Gain
60.0	3	85.144	0.019	1077.801	3.25	1.62	17.05	4.0	955.0	2.0	Outcome1	3.25	4.9	3562.5	Yes		-1.65232163080408				ShowChoice	Gain
60.0	3	89.156	0.012	1081.813	3.25	1.62	17.05	1.0	955.0	2.0	Outcome1	3.25	4.9	3562.5	Yes		-1.65232163080408				ShowResult	Gain
60.0	3	90.175	0.019	1082.832	3.25	1.62	17.05	8.0	955.0	2.0	Outcome1	3.25	4.9	3562.5	Yes		-1.65232163080408				ISITrial	Gain
60.0	3	101.777	0.016	1094.434	3.25	1.62	17.05	1.186	955.0	2.0	Outcome1	3.25	4.9	3562.5	Yes		-1.65232163080408			636.0	TrialHappiness	Gain
60.0	3	105.806	4.029	1098.463	3.25	1.62	17.05	6.25	955.0	2.0	Outcome1	3.25	4.9	3562.5	Yes		-1.65232163080408				ISIRate	Gain
61.0	3	112.074	0.018	1104.731	9.98	4.99	18.2975	3.0	955.0	2.8	Outcome1	9.98	11.5	0.0	No	2.0	-1.5238769346923402	0.633	112.707		GetAnswer	Loss
61.0	3	112.726	0.019	1105.383	9.98	4.99	18.2975	4.0	955.0	2.8	Outcome1	9.98	11.5	0.0	No		-1.5238769346923402				ShowChoice	Loss
61.0	3	116.755	0.029	1109.412	9.98	4.99	18.2975	1.0	955.0	2.8	Outcome1	9.98	11.5	0.0	No		-1.5238769346923402				ShowResult	Loss
61.0	3	117.775	0.02	1110.432	9.98	4.99	18.2975	4.586	955.0	2.8	Outcome1	9.98	11.5	0.0	No		-1.5238769346923402				ISITrial	Loss
62.0	3	122.389	0.028	1115.046	13.7	2.58	20.01	3.0	955.0	3.16	Outcome2	5.17	13.7	3748.75	Yes	2.0	8.532276330690829	0.601	122.99		GetAnswer	Loss
62.0	3	123.007	0.017	1115.664	13.7	2.58	20.01	4.0	955.0	3.16	Outcome2	5.17	13.7	3748.75	Yes		8.532276330690829				ShowChoice	Loss
62.0	3	127.019	0.012	1119.676	13.7	2.58	20.01	1.0	955.0	3.16	Outcome2	5.17	13.7	3748.75	Yes		8.532276330690829				ShowResult	Loss
62.0	3	128.039	0.02	1120.696	13.7	2.58	20.01	5.212	955.0	3.16	Outcome2	5.17	13.7	3748.75	Yes		8.532276330690829				ISITrial	Loss
62.0	3	137.049	0.029	1129.706	13.7	2.58	20.01	3.091	955.0	3.16	Outcome2	5.17	13.7	3748.75	Yes		8.532276330690829			628.0	TrialHappiness	Loss
62.0	3	141.061	4.012	1133.718	13.7	2.58	20.01	6.995	955.0	3.16	Outcome2	5.17	13.7	3748.75	Yes		8.532276330690829				ISIRate	Loss
63.0	3	148.082	0.026	1140.739	10.48	5.24	21.32	3.0	955.0	4.2	Outcome1	10.48	12.1	0.0	No	2.0	-1.61655341638354	0.688	148.77		GetAnswer	Loss
63.0	3	148.784	0.014	1141.441	10.48	5.24	21.32	4.0	955.0	4.2	Outcome1	10.48	12.1	0.0	No		-1.61655341638354				ShowChoice	Loss
63.0	3	152.796	0.012	1145.453	10.48	5.24	21.32	1.0	955.0	4.2	Outcome1	10.48	12.1	0.0	No		-1.61655341638354				ShowResult	Loss
63.0	3	153.816	0.02	1146.473	10.48	5.24	21.32	5.595	955.0	4.2	Outcome1	10.48	12.1	0.0	No		-1.61655341638354				ISITrial	Loss
64.0	3	159.433	0.022	1152.09	9.7	0.15	22.5325	3.0	955.0	3.16	Outcome2	0.3	9.7	0.0	No	2.0	9.39977349943375	0.513	159.946		GetAnswer	Gain
64.0	3	159.968	0.022	1152.625	9.7	0.15	22.5325	4.0	955.0	3.16	Outcome2	0.3	9.7	0.0	No		9.39977349943375				ShowChoice	Gain
64.0	3	163.98	0.012	1156.637	9.7	0.15	22.5325	1.0	955.0	3.16	Outcome2	0.3	9.7	0.0	No		9.39977349943375				ShowResult	Gain
64.0	3	164.999	0.019	1157.656	9.7	0.15	22.5325	5.47	955.0	3.16	Outcome2	0.3	9.7	0.0	No		9.39977349943375				ISITrial	Gain
65.0	3	170.499	0.03	1163.156	7.02	3.51	23.41	3.0	955.0	1.82	Outcome1	7.02	8.7	2996.75	Yes	2.0	-1.67827482068705	0.833	171.332		GetAnswer	Gain
65.0	3	171.352	0.02	1164.009	7.02	3.51	23.41	4.0	955.0	1.82	Outcome1	7.02	8.7	2996.75	Yes		-1.67827482068705				ShowChoice	Gain
65.0	3	175.364	0.012	1168.021	7.02	3.51	23.41	1.0	955.0	1.82	Outcome1	7.02	8.7	2996.75	Yes		-1.67827482068705				ShowResult	Gain
65.0	3	176.383	0.019	1169.04	7.02	3.51	23.41	3.344	955.0	1.82	Outcome1	7.02	8.7	2996.75	Yes		-1.67827482068705				ISITrial	Gain
65.0	3	182.769	0.028	1175.426	7.02	3.51	23.41	0.626	955.0	1.82	Outcome1	7.02	8.7	2996.75	Yes	2{-2}	-1.67827482068705	0.626	183.395	552.0	TrialHappiness	Gain
65.0	3	186.781	4.012	1179.438	7.02	3.51	23.41	3.987	955.0	1.82	Outcome1	7.02	8.7	2996.75	Yes		-1.67827482068705				ISIRate	Gain
66.0	3	190.793	0.025	1183.45	0.5	-5.0	23.4725	3.0	955.0	0.2	Outcome1	0.5	-10.93	0.0	No	2.0	11.431483578708901	1.195	191.988		GetAnswer	Mixed
66.0	3	192.014	0.026	1184.671	0.5	-5.0	23.4725	4.0	955.0	0.2	Outcome1	0.5	-10.93	0.0	No		11.431483578708901				ShowChoice	Mixed
66.0	3	196.026	0.012	1188.683	0.5	-5.0	23.4725	1.0	955.0	0.2	Outcome1	0.5	-10.93	0.0	No		11.431483578708901				ShowResult	Mixed
66.0	3	197.045	0.019	1189.702	0.5	-5.0	23.4725	3.959	955.0	0.2	Outcome1	0.5	-10.93	0.0	No		11.431483578708901				ISITrial	Mixed
67.0	3	201.024	0.02	1193.681	10.64	5.32	24.8025	3.0	955.0	1.82	Outcome1	10.64	12.7	2918.5	Yes	2.0	-2.0555870139675303	0.803	201.827		GetAnswer	Loss
67.0	3	201.843	0.016	1194.5	10.64	5.32	24.8025	4.0	955.0	1.82	Outcome1	10.64	12.7	2918.5	Yes		-2.0555870139675303				ShowChoice	Loss
67.0	3	205.855	0.012	1198.512	10.64	5.32	24.8025	1.0	955.0	1.82	Outcome1	10.64	12.7	2918.5	Yes		-2.0555870139675303				ShowResult	Loss
67.0	3	206.875	0.02	1199.532	10.64	5.32	24.8025	4.199	955.0	1.82	Outcome1	10.64	12.7	2918.5	Yes		-2.0555870139675303				ISITrial	Loss
67.0	3	214.03	0.025	1206.687	10.64	5.32	24.8025	0.863	955.0	1.82	Outcome1	10.64	12.7	2918.5	Yes		-2.0555870139675303			532.0	TrialHappiness	Loss
67.0	3	218.058	4.028	1210.715	10.64	5.32	24.8025	3.674	955.0	1.82	Outcome1	10.64	12.7	2918.5	Yes		-2.0555870139675303				ISIRate	Loss
68.0	3	221.753	0.021	1214.41	-0.87	0.0	24.6937	3.0	955.0	0.66	Outcome2	1.3	-0.87	0.0	No	2.0	-2.17478293695734	0.668	222.421		GetAnswer	Mixed
68.0	3	222.438	0.017	1215.095	-0.87	0.0	24.6937	4.0	955.0	0.66	Outcome2	1.3	-0.87	0.0	No		-2.17478293695734				ShowChoice	Mixed
68.0	3	226.467	0.029	1219.124	-0.87	0.0	24.6937	1.0	955.0	0.66	Outcome2	1.3	-0.87	0.0	No		-2.17478293695734				ShowResult	Mixed
68.0	3	227.486	0.019	1220.143	-0.87	0.0	24.6937	2.185	955.0	0.66	Outcome2	1.3	-0.87	0.0	No		-2.17478293695734				ISITrial	Mixed
69.0	3	229.693	0.022	1222.35	6.09	3.04	25.4549	3.0	955.0	5.0	Outcome2	8.3	6.09	0.0	No	2.0	-2.2147036617591502	0.729	230.422		GetAnswer	Gain
69.0	3	230.445	0.023	1223.102	6.09	3.04	25.4549	4.0	955.0	5.0	Outcome2	8.3	6.09	0.0	No		-2.2147036617591502				ShowChoice	Gain
69.0	3	234.474	0.029	1227.131	6.09	3.04	25.4549	1.0	955.0	5.0	Outcome2	8.3	6.09	0.0	No		-2.2147036617591502				ShowResult	Gain
69.0	3	235.494	0.02	1228.151	6.09	3.04	25.4549	2.0	955.0	5.0	Outcome2	8.3	6.09	0.0	No		-2.2147036617591502				ISITrial	Gain
70.0	3	237.516	0.022	1230.173	0.0	0.0	25.4549	3.0	955.0	2.8	Certain	-6.14	7.5	3651.25	Yes	4.0	13.6421291053228	1.01	238.526		GetAnswer	Gain
70.0	3	238.553	0.027	1231.21	0.0	0.0	25.4549	4.0	955.0	2.8	Certain	-6.14	7.5	3651.25	Yes		13.6421291053228				ShowChoice	Gain
70.0	3	242.565	0.012	1235.222	0.0	0.0	25.4549	1.0	955.0	2.8	Certain	-6.14	7.5	3651.25	Yes		13.6421291053228				ShowResult	Gain
70.0	3	243.585	0.02	1236.242	0.0	0.0	25.4549	2.623	955.0	2.8	Certain	-6.14	7.5	3651.25	Yes		13.6421291053228				ISITrial	Gain
70.0	3	249.904	0.027	1242.561	0.0	0.0	25.4549	0.668	955.0	2.8	Certain	-6.14	7.5	3651.25	Yes		13.6421291053228			472.0	TrialHappiness	Gain
70.0	3	253.932	4.028	1246.589	0.0	0.0	25.4549	6.605	955.0	2.8	Certain	-6.14	7.5	3651.25	Yes		13.6421291053228				ISIRate	Gain
71.0	3	260.569	0.032	1253.226	10.9	-2.12	26.8174	3.0	955.0	2.0	Outcome2	-4.24	10.9	0.0	No	2.0	15.1404303510759	0.912	261.481		GetAnswer	Loss
71.0	3	261.505	0.024	1254.162	10.9	-2.12	26.8174	4.0	955.0	2.0	Outcome2	-4.24	10.9	0.0	No		15.1404303510759				ShowChoice	Loss
71.0	3	265.534	0.029	1258.191	10.9	-2.12	26.8174	1.0	955.0	2.0	Outcome2	-4.24	10.9	0.0	No		15.1404303510759				ShowResult	Loss
71.0	3	266.553	0.019	1259.21	10.9	-2.12	26.8174	5.499	955.0	2.0	Outcome2	-4.24	10.9	0.0	No		15.1404303510759				ISITrial	Loss
72.0	3	272.07	0.018	1264.727	7.32	3.66	27.7324	3.0	955.0	3.6	Outcome1	7.32	9.9	3080.5	Yes	2.0	-2.58361645904115	0.929	272.999		GetAnswer	Gain
72.0	3	273.023	0.024	1265.68	7.32	3.66	27.7324	4.0	955.0	3.6	Outcome1	7.32	9.9	3080.5	Yes		-2.58361645904115				ShowChoice	Gain
72.0	3	277.051	0.028	1269.708	7.32	3.66	27.7324	1.0	955.0	3.6	Outcome1	7.32	9.9	3080.5	Yes		-2.58361645904115				ShowResult	Gain
72.0	3	278.071	0.02	1270.728	7.32	3.66	27.7324	5.672	955.0	3.6	Outcome1	7.32	9.9	3080.5	Yes		-2.58361645904115				ISITrial	Gain
72.0	3	286.881	0.029	1279.538	7.32	3.66	27.7324	0.481	955.0	3.6	Outcome1	7.32	9.9	3080.5	Yes		-2.58361645904115			492.0	TrialHappiness	Gain
72.0	3	290.91	4.029	1283.567	7.32	3.66	27.7324	4.322	955.0	3.6	Outcome1	7.32	9.9	3080.5	Yes		-2.58361645904115				ISIRate	Gain
73.0	3	295.256	0.024	1287.913	-0.65	0.0	27.6512	3.0	955.0	1.2	Outcome2	1.9	-0.65	0.0	No	2.0	-2.5480369950924904	1.32	296.576		GetAnswer	Mixed
73.0	3	296.593	0.017	1289.25	-0.65	0.0	27.6512	4.0	955.0	1.2	Outcome2	1.9	-0.65	0.0	No		-2.5480369950924904				ShowChoice	Mixed
73.0	3	300.605	0.012	1293.262	-0.65	0.0	27.6512	1.0	955.0	1.2	Outcome2	1.9	-0.65	0.0	No		-2.5480369950924904				ShowResult	Mixed
73.0	3	301.625	0.02	1294.282	-0.65	0.0	27.6512	4.616	955.0	1.2	Outcome2	1.9	-0.65	0.0	No		-2.5480369950924904				ISITrial	Mixed
74.0	3	306.272	0.031	1298.929	9.5	1.0	28.8387	3.0	955.0	2.8	Outcome1	9.5	-6.92	3056.25	Yes	2.0	16.4190260475651	1.516	307.788		GetAnswer	Gain
74.0	3	307.81	0.022	1300.467	9.5	1.0	28.8387	4.0	955.0	2.8	Outcome1	9.5	-6.92	3056.25	Yes		16.4190260475651				ShowChoice	Gain
74.0	3	311.822	0.012	1304.479	9.5	1.0	28.8387	1.0	955.0	2.8	Outcome1	9.5	-6.92	3056.25	Yes		16.4190260475651				ShowResult	Gain
74.0	3	312.842	0.02	1305.499	9.5	1.0	28.8387	3.909	955.0	2.8	Outcome1	9.5	-6.92	3056.25	Yes		16.4190260475651				ISITrial	Gain
74.0	3	319.846	0.02	1312.503	9.5	1.0	28.8387	0.0	955.0	2.8	Outcome1	9.5	-6.92	3056.25	Yes		16.4190260475651			512.0	TrialHappiness	Gain
74.0	3	323.858	4.012	1316.515	9.5	1.0	28.8387	4.225	955.0	2.8	Outcome1	9.5	-6.92	3056.25	Yes		16.4190260475651				ISIRate	Gain
75.0	3	328.104	0.021	1320.761	5.5	-3.0	29.5262	3.0	955.0	2.8	Outcome2	-11.1	5.5	0.0	No	2.0	16.603624009060002	1.129	329.233		GetAnswer	Gain
75.0	3	329.258	0.025	1321.915	5.5	-3.0	29.5262	4.0	955.0	2.8	Outcome2	-11.1	5.5	0.0	No		16.603624009060002				ShowChoice	Gain
75.0	3	333.27	0.012	1325.927	5.5	-3.0	29.5262	1.0	955.0	2.8	Outcome2	-11.1	5.5	0.0	No		16.603624009060002				ShowResult	Gain
75.0	3	334.289	0.019	1326.946	5.5	-3.0	29.5262	4.979	955.0	2.8	Outcome2	-11.1	5.5	0.0	No		16.603624009060002				ISITrial	Gain
76.0	3	339.288	0.02	1331.945	6.3	-2.0	30.3137	3.0	955.0	5.0	Outcome1	6.3	-10.81	0.0	No	2.0	17.1053227633069	1.227	340.515		GetAnswer	Gain
76.0	3	340.542	0.027	1333.199	6.3	-2.0	30.3137	4.0	955.0	5.0	Outcome1	6.3	-10.81	0.0	No		17.1053227633069				ShowChoice	Gain
76.0	3	344.554	0.012	1337.211	6.3	-2.0	30.3137	1.0	955.0	5.0	Outcome1	6.3	-10.81	0.0	No		17.1053227633069				ShowResult	Gain
76.0	3	345.573	0.019	1338.23	6.3	-2.0	30.3137	3.931	955.0	5.0	Outcome1	6.3	-10.81	0.0	No		17.1053227633069				ISITrial	Gain
77.0	3	349.535	0.031	1342.192	0.9	-8.0	30.4262	3.0	955.0	0.4	Outcome1	0.9	-16.71	4000.0	Yes	2.0	17.6070215175538	1.668	351.203		GetAnswer	Mixed
77.0	3	351.224	0.021	1343.881	0.9	-8.0	30.4262	4.0	955.0	0.4	Outcome1	0.9	-16.71	4000.0	Yes		17.6070215175538				ShowChoice	Mixed
77.0	3	355.236	0.012	1347.893	0.9	-8.0	30.4262	1.0	955.0	0.4	Outcome1	0.9	-16.71	4000.0	Yes		17.6070215175538				ShowResult	Mixed
77.0	3	356.255	0.019	1348.912	0.9	-8.0	30.4262	7.022	955.0	0.4	Outcome1	0.9	-16.71	4000.0	Yes		17.6070215175538				ISITrial	Mixed
77.0	3	367.322	0.029	1359.979	0.9	-8.0	30.4262	2.977	955.0	0.4	Outcome1	0.9	-16.71	4000.0	Yes		17.6070215175538			524.0	TrialHappiness	Mixed
77.0	3	371.334	4.012	1363.991	0.9	-8.0	30.4262	8.0	955.0	0.4	Outcome1	0.9	-16.71	4000.0	Yes		17.6070215175538				ISIRate	Mixed
78.0	3	379.358	0.024	1372.015	7.3	-1.0	31.3387	3.0	955.0	2.48	Outcome1	7.3	-10.6	0.0	No	2.0	17.9048697621744	0.981	380.339		GetAnswer	Gain
78.0	3	380.361	0.022	1373.018	7.3	-1.0	31.3387	4.0	955.0	2.48	Outcome1	7.3	-10.6	0.0	No		17.9048697621744				ShowChoice	Gain
78.0	3	384.373	0.012	1377.03	7.3	-1.0	31.3387	1.0	955.0	2.48	Outcome1	7.3	-10.6	0.0	No		17.9048697621744				ShowResult	Gain
78.0	3	385.392	0.019	1378.049	7.3	-1.0	31.3387	2.078	955.0	2.48	Outcome1	7.3	-10.6	0.0	No		17.9048697621744				ISITrial	Gain
79.0	3	387.499	0.029	1380.156	3.1	-6.0	31.7262	3.0	955.0	0.52	Outcome1	3.1	-15.29	2729.5	Yes	2.0	18.3929784824462	0.96	388.459		GetAnswer	Mixed
79.0	3	388.485	0.026	1381.142	3.1	-6.0	31.7262	4.0	955.0	0.52	Outcome1	3.1	-15.29	2729.5	Yes		18.3929784824462				ShowChoice	Mixed
79.0	3	392.497	0.012	1385.154	3.1	-6.0	31.7262	1.0	955.0	0.52	Outcome1	3.1	-15.29	2729.5	Yes		18.3929784824462				ShowResult	Mixed
79.0	3	393.517	0.02	1386.174	3.1	-6.0	31.7262	3.829	955.0	0.52	Outcome1	3.1	-15.29	2729.5	Yes		18.3929784824462				ISITrial	Mixed
79.0	3	400.12	0.028	1392.777	3.1	-6.0	31.7262	0.0	955.0	0.52	Outcome1	3.1	-15.29	2729.5	Yes		18.3929784824462			512.0	TrialHappiness	Mixed
79.0	3	404.132	4.012	1396.789	3.1	-6.0	31.7262	2.918	955.0	0.52	Outcome1	3.1	-15.29	2729.5	Yes		18.3929784824462				ISIRate	Mixed
80.0	3	407.074	0.024	1399.731	11.3	2.0	33.1387	3.0	955.0	2.48	Outcome1	11.3	-7.78	0.0	No	2.0	19.0849377123443	0.962	408.036		GetAnswer	Loss
80.0	3	408.06	0.024	1400.717	11.3	2.0	33.1387	4.0	955.0	2.48	Outcome1	11.3	-7.78	0.0	No		19.0849377123443				ShowChoice	Loss
80.0	3	412.072	0.012	1404.729	11.3	2.0	33.1387	1.0	955.0	2.48	Outcome1	11.3	-7.78	0.0	No		19.0849377123443				ShowResult	Loss
80.0	3	413.092	0.02	1405.749	11.3	2.0	33.1387	3.336	955.0	2.48	Outcome1	11.3	-7.78	0.0	No		19.0849377123443				ISITrial	Loss
81.0	3	416.452	0.024	1409.109	12.3	2.0	34.6762	3.0	955.0	5.0	Outcome2	-7.29	12.3	3923.75	Yes	2.0	19.586636466591198	0.797	417.249		GetAnswer	Loss
81.0	3	417.271	0.022	1409.928	12.3	2.0	34.6762	4.0	955.0	5.0	Outcome2	-7.29	12.3	3923.75	Yes		19.586636466591198				ShowChoice	Loss
81.0	3	421.283	0.012	1413.94	12.3	2.0	34.6762	1.0	955.0	5.0	Outcome2	-7.29	12.3	3923.75	Yes		19.586636466591198				ShowResult	Loss
81.0	3	422.303	0.02	1414.96	12.3	2.0	34.6762	3.919	955.0	5.0	Outcome2	-7.29	12.3	3923.75	Yes		19.586636466591198				ISITrial	Loss
81.0	3	430.193	0.021	1422.85	12.3	2.0	34.6762	0.426	955.0	5.0	Outcome2	-7.29	12.3	3923.75	Yes	2{-2}	19.586636466591198	0.426	430.619	532.0	TrialHappiness	Loss
81.0	3	434.205	4.012	1426.862	12.3	2.0	34.6762	7.695	955.0	5.0	Outcome2	-7.29	12.3	3923.75	Yes		19.586636466591198				ISIRate	Loss
	3	441.928	0.028	1434.585				3.0													CurrentEarnings	
	3	444.954	0.026	1437.611				-0.001								{SPACE}		95.028	539.982		Goodbye	
