trial_number	block	onset	onset_delay	onset_unadjusted	amount_change	certain_amount	current_amount	duration	mood_target	multiplier	outcome	outcome1_amount	outcome2_amount	question_duration	rating	response	rpe	rt	rt_time	slider_response	trial_phase	trial_type
	0	-44.406	0.038	31.663				-0.001								{SPACE}		3.788	-40.618		Welcome	
	0	-40.594	0.024	35.475				5.0													LifeHappyPreview	
	0	-35.563	0.031	40.506				0.0												512.0	LifeHappiness	
	0	-18.662	0.02	57.407				4.0													BlockHappyPreview	
	0	-14.65	0.012	61.419				2.864								2{-2}		2.864	-11.786	584.0	BlockStartHappiness	
	0	-4.085	0.022	71.984				-0.001								5.0					ScanWait	
	1	0.027	0.027	76.096				10.0													GetReady	
1.0	1	10.057	0.03	86.126	2.8	2.8	10.35	3.0	955.0	3.6	Certain	5.6	11.9	0.0	No	4.0	6.30237825594564	1.56	11.617		GetAnswer	Loss
1.0	1	11.645	0.028	87.714	2.8	2.8	10.35	4.0	955.0	3.6	Certain	5.6	11.9	0.0	No		6.30237825594564				ShowChoice	Loss
1.0	1	15.657	0.012	91.726	2.8	2.8	10.35	1.0	955.0	3.6	Certain	5.6	11.9	0.0	No		6.30237825594564				ShowResult	Loss
1.0	1	16.677	0.02	92.746	2.8	2.8	10.35	2.431	955.0	3.6	Certain	5.6	11.9	0.0	No		6.30237825594564				ISITrial	Loss
2.0	1	19.134	0.026	95.203	3.1	0.0	10.7375	3.0	955.0	0.52	Outcome1	3.1	-3.62	0.0	No		6.72253680634202				GetAnswer	Mixed
2.0	1	22.16	0.026	98.229	3.1	0.0	10.7375	4.0	955.0	0.52	Outcome1	3.1	-3.62	0.0	No		6.72253680634202				ShowChoice	Mixed
2.0	1	26.172	0.012	102.241	3.1	0.0	10.7375	1.0	955.0	0.52	Outcome1	3.1	-3.62	0.0	No		6.72253680634202				ShowResult	Mixed
2.0	1	27.192	0.02	103.261	3.1	0.0	10.7375	4.568	955.0	0.52	Outcome1	3.1	-3.62	0.0	No		6.72253680634202				ISITrial	Mixed
3.0	1	31.789	0.029	107.858	-1.0	-1.0	10.6125	3.0	955.0	2.0	Certain	2.3	-4.84	2868.0	Yes	4.0	7.14269535673839	2.681	34.47		GetAnswer	Mixed
3.0	1	34.497	0.027	110.566	-1.0	-1.0	10.6125	4.0	955.0	2.0	Certain	2.3	-4.84	2868.0	Yes		7.14269535673839				ShowChoice	Mixed
3.0	1	38.526	0.029	114.595	-1.0	-1.0	10.6125	1.0	955.0	2.0	Certain	2.3	-4.84	2868.0	Yes		7.14269535673839				ShowResult	Mixed
3.0	1	39.546	0.02	115.615	-1.0	-1.0	10.6125	3.243	955.0	2.0	Certain	2.3	-4.84	2868.0	Yes		7.14269535673839				ISITrial	Mixed
3.0	1	45.697	0.024	121.766	-1.0	-1.0	10.6125	2.705	955.0	2.0	Certain	2.3	-4.84	2868.0	Yes		7.14269535673839			552.0	TrialHappiness	Mixed
3.0	1	49.726	4.029	125.795	-1.0	-1.0	10.6125	3.472	955.0	2.0	Certain	2.3	-4.84	2868.0	Yes		7.14269535673839				ISIRate	Mixed
4.0	1	53.22	0.022	129.289	5.88	5.88	11.3475	3.0	955.0	2.8	Certain	11.76	13.5	0.0	No	4.0	-1.7404681011702499	1.866	55.086		GetAnswer	Loss
4.0	1	55.109	0.023	131.178	5.88	5.88	11.3475	4.0	955.0	2.8	Certain	11.76	13.5	0.0	No		-1.7404681011702499				ShowChoice	Loss
4.0	1	59.138	0.029	135.207	5.88	5.88	11.3475	1.0	955.0	2.8	Certain	11.76	13.5	0.0	No		-1.7404681011702499				ShowResult	Loss
4.0	1	60.157	0.019	136.226	5.88	5.88	11.3475	2.011	955.0	2.8	Certain	11.76	13.5	0.0	No		-1.7404681011702499				ISITrial	Loss
5.0	1	62.197	0.029	138.266	5.9	1.0	12.085	3.0	955.0	3.6	Outcome2	-2.66	5.9	2582.5	Yes	2.0	8.56285390713477	2.492	64.689		GetAnswer	Gain
5.0	1	64.704	0.015	140.773	5.9	1.0	12.085	4.0	955.0	3.6	Outcome2	-2.66	5.9	2582.5	Yes		8.56285390713477				ShowChoice	Gain
5.0	1	68.733	0.029	144.802	5.9	1.0	12.085	1.0	955.0	3.6	Outcome2	-2.66	5.9	2582.5	Yes		8.56285390713477				ShowResult	Gain
5.0	1	69.753	0.02	145.822	5.9	1.0	12.085	5.129	955.0	3.6	Outcome2	-2.66	5.9	2582.5	Yes		8.56285390713477				ISITrial	Gain
5.0	1	77.509	0.025	153.578	5.9	1.0	12.085	2.263	955.0	3.6	Outcome2	-2.66	5.9	2582.5	Yes	2{-2}2{-2}	8.56285390713477	2.263	79.772	556.0	TrialHappiness	Gain
5.0	1	81.538	4.029	157.607	5.9	1.0	12.085	2.33	955.0	3.6	Outcome2	-2.66	5.9	2582.5	Yes		8.56285390713477				ISIRate	Gain
6.0	1	83.895	0.027	159.964	6.3	2.0	12.8725	3.0	955.0	5.0	Outcome1	6.3	-2.65	0.0	No	2.0	8.95130237825595	1.901	85.796		GetAnswer	Gain
6.0	1	85.818	0.022	161.887	6.3	2.0	12.8725	4.0	955.0	5.0	Outcome1	6.3	-2.65	0.0	No		8.95130237825595				ShowChoice	Gain
6.0	1	89.846	0.028	165.915	6.3	2.0	12.8725	1.0	955.0	5.0	Outcome1	6.3	-2.65	0.0	No		8.95130237825595				ShowResult	Gain
6.0	1	90.866	0.02	166.935	6.3	2.0	12.8725	6.232	955.0	5.0	Outcome1	6.3	-2.65	0.0	No		8.95130237825595				ISITrial	Gain
7.0	1	97.118	0.02	173.187	9.1	-0.15	14.01	3.0	955.0	2.22	Outcome1	9.1	-0.3	0.0	No		9.403171007927519				GetAnswer	Gain
7.0	1	100.144	0.026	176.213	9.1	-0.15	14.01	4.0	955.0	2.22	Outcome1	9.1	-0.3	0.0	No		9.403171007927519				ShowChoice	Gain
7.0	1	104.173	0.029	180.242	9.1	-0.15	14.01	1.0	955.0	2.22	Outcome1	9.1	-0.3	0.0	No		9.403171007927519				ShowResult	Gain
7.0	1	105.192	0.019	181.261	9.1	-0.15	14.01	2.305	955.0	2.22	Outcome1	9.1	-0.3	0.0	No		9.403171007927519				ISITrial	Gain
8.0	1	107.516	0.019	183.585	11.7	0.92	15.4725	3.0	955.0	3.16	Outcome1	11.7	1.84	3112.5	Yes	2.0	9.85503963759909	1.943	109.459		GetAnswer	Loss
8.0	1	109.489	0.029	185.558	11.7	0.92	15.4725	4.0	955.0	3.16	Outcome1	11.7	1.84	3112.5	Yes		9.85503963759909				ShowChoice	Loss
8.0	1	113.517	0.028	189.586	11.7	0.92	15.4725	1.0	955.0	3.16	Outcome1	11.7	1.84	3112.5	Yes		9.85503963759909				ShowResult	Loss
8.0	1	114.537	0.02	190.606	11.7	0.92	15.4725	3.506	955.0	3.16	Outcome1	11.7	1.84	3112.5	Yes		9.85503963759909				ISITrial	Loss
8.0	1	121.207	0.031	197.276	11.7	0.92	15.4725	2.266	955.0	3.16	Outcome1	11.7	1.84	3112.5	Yes		9.85503963759909			552.0	TrialHappiness	Loss
8.0	1	125.219	4.012	201.288	11.7	0.92	15.4725	4.45	955.0	3.16	Outcome1	11.7	1.84	3112.5	Yes		9.85503963759909				ISIRate	Loss
9.0	1	129.699	0.03	205.768	10.3	-0.04	16.76	3.0	955.0	5.0	Outcome2	-0.07	10.3	0.0	No	2.0	10.3748584371461	1.909	131.608		GetAnswer	Gain
9.0	1	131.638	0.03	207.707	10.3	-0.04	16.76	4.0	955.0	5.0	Outcome2	-0.07	10.3	0.0	No		10.3748584371461				ShowChoice	Gain
9.0	1	135.667	0.029	211.736	10.3	-0.04	16.76	1.0	955.0	5.0	Outcome2	-0.07	10.3	0.0	No		10.3748584371461				ShowResult	Gain
9.0	1	136.687	0.02	212.756	10.3	-0.04	16.76	2.0	955.0	5.0	Outcome2	-0.07	10.3	0.0	No		10.3748584371461				ISITrial	Gain
10.0	1	138.709	0.022	214.778	5.13	2.56	17.4012	3.0	955.0	2.22	Outcome1	5.13	7.1	4000.0	Yes	2.0	-1.9675349188373	2.677	141.386		GetAnswer	Gain
10.0	1	141.401	0.015	217.47	5.13	2.56	17.4012	4.0	955.0	2.22	Outcome1	5.13	7.1	4000.0	Yes		-1.9675349188373				ShowChoice	Gain
10.0	1	145.43	0.029	221.499	5.13	2.56	17.4012	1.0	955.0	2.22	Outcome1	5.13	7.1	4000.0	Yes		-1.9675349188373				ShowResult	Gain
10.0	1	146.449	0.019	222.518	5.13	2.56	17.4012	2.0	955.0	2.22	Outcome1	5.13	7.1	4000.0	Yes		-1.9675349188373				ISITrial	Gain
10.0	1	152.501	0.029	228.57	5.13	2.56	17.4012	1.176	955.0	2.22	Outcome1	5.13	7.1	4000.0	Yes		-1.9675349188373			552.0	TrialHappiness	Gain
10.0	1	156.53	4.029	232.599	5.13	2.56	17.4012	8.0	955.0	2.22	Outcome1	5.13	7.1	4000.0	Yes		-1.9675349188373				ISIRate	Gain
11.0	1	164.554	0.024	240.623	0.0	0.0	17.4012	3.0	955.0	0.52	Certain	-0.91	1.1	0.0	No	4.0	-2.00556813892035	1.365	165.919		GetAnswer	Mixed
11.0	1	165.941	0.022	242.01	0.0	0.0	17.4012	4.0	955.0	0.52	Certain	-0.91	1.1	0.0	No		-2.00556813892035				ShowChoice	Mixed
11.0	1	169.97	0.029	246.039	0.0	0.0	17.4012	1.0	955.0	0.52	Certain	-0.91	1.1	0.0	No		-2.00556813892035				ShowResult	Mixed
11.0	1	170.99	0.02	247.059	0.0	0.0	17.4012	3.324	955.0	0.52	Certain	-0.91	1.1	0.0	No		-2.00556813892035				ISITrial	Mixed
12.0	1	174.333	0.019	250.402	-0.5	-6.0	17.3387	3.0	955.0	0.82	Outcome1	-0.5	-12.24	2618.75	Yes	2.0	11.744054360135902	2.758	177.091		GetAnswer	Mixed
12.0	1	177.108	0.017	253.177	-0.5	-6.0	17.3387	4.0	955.0	0.82	Outcome1	-0.5	-12.24	2618.75	Yes		11.744054360135902				ShowChoice	Mixed
12.0	1	181.137	0.029	257.206	-0.5	-6.0	17.3387	1.0	955.0	0.82	Outcome1	-0.5	-12.24	2618.75	Yes		11.744054360135902				ShowResult	Mixed
12.0	1	182.156	0.019	258.225	-0.5	-6.0	17.3387	6.642	955.0	0.82	Outcome1	-0.5	-12.24	2618.75	Yes		11.744054360135902				ISITrial	Mixed
12.0	1	191.468	0.023	267.537	-0.5	-6.0	17.3387	1.15	955.0	0.82	Outcome1	-0.5	-12.24	2618.75	Yes		11.744054360135902			556.0	TrialHappiness	Mixed
12.0	1	195.496	4.028	271.565	-0.5	-6.0	17.3387	2.475	955.0	0.82	Outcome1	-0.5	-12.24	2618.75	Yes		11.744054360135902				ISIRate	Mixed
13.0	1	198.004	0.033	274.073	3.63	1.82	17.7925	3.0	955.0	3.16	Outcome2	5.7	3.63	0.0	No		-2.0654020385051				GetAnswer	Gain
13.0	1	201.03	0.026	277.099	3.63	1.82	17.7925	4.0	955.0	3.16	Outcome2	5.7	3.63	0.0	No		-2.0654020385051				ShowChoice	Gain
13.0	1	205.058	0.028	281.127	3.63	1.82	17.7925	1.0	955.0	3.16	Outcome2	5.7	3.63	0.0	No		-2.0654020385051				ShowResult	Gain
13.0	1	206.078	0.02	282.147	3.63	1.82	17.7925	3.48	955.0	3.16	Outcome2	5.7	3.63	0.0	No		-2.0654020385051				ISITrial	Gain
14.0	1	209.589	0.031	285.658	2.5	-4.0	18.105	3.0	955.0	0.2	Outcome1	2.5	-10.08	0.0	No	2.0	12.5843714609287	2.741	212.33		GetAnswer	Mixed
14.0	1	212.347	0.017	288.416	2.5	-4.0	18.105	4.0	955.0	0.2	Outcome1	2.5	-10.08	0.0	No		12.5843714609287				ShowChoice	Mixed
14.0	1	216.375	0.028	292.444	2.5	-4.0	18.105	1.0	955.0	0.2	Outcome1	2.5	-10.08	0.0	No		12.5843714609287				ShowResult	Mixed
14.0	1	217.395	0.02	293.464	2.5	-4.0	18.105	5.019	955.0	0.2	Outcome1	2.5	-10.08	0.0	No		12.5843714609287				ISITrial	Mixed
15.0	1	222.444	0.03	298.513	12.7	-0.17	19.6925	3.0	955.0	1.82	Outcome2	-0.34	12.7	3348.5	Yes	2.0	13.0362400906002	2.115	224.559		GetAnswer	Loss
15.0	1	224.583	0.024	300.652	12.7	-0.17	19.6925	4.0	955.0	1.82	Outcome2	-0.34	12.7	3348.5	Yes		13.0362400906002				ShowChoice	Loss
15.0	1	228.595	0.012	304.664	12.7	-0.17	19.6925	1.0	955.0	1.82	Outcome2	-0.34	12.7	3348.5	Yes		13.0362400906002				ShowResult	Loss
15.0	1	229.615	0.02	305.684	12.7	-0.17	19.6925	7.614	955.0	1.82	Outcome2	-0.34	12.7	3348.5	Yes		13.0362400906002				ISITrial	Loss
15.0	1	240.632	0.029	316.701	12.7	-0.17	19.6925	1.134	955.0	1.82	Outcome2	-0.34	12.7	3348.5	Yes		13.0362400906002			532.0	TrialHappiness	Loss
15.0	1	244.66	4.028	320.729	12.7	-0.17	19.6925	5.394	955.0	1.82	Outcome2	-0.34	12.7	3348.5	Yes		13.0362400906002				ISIRate	Loss
16.0	1	250.076	0.022	326.145	-1.78	0.0	19.47	3.0	955.0	0.2	Outcome1	-1.78	0.5	0.0	No	2.0	-2.2757644394111	2.24	252.316		GetAnswer	Mixed
16.0	1	252.333	0.017	328.402	-1.78	0.0	19.47	4.0	955.0	0.2	Outcome1	-1.78	0.5	0.0	No		-2.2757644394111				ShowChoice	Mixed
16.0	1	256.362	0.029	332.431	-1.78	0.0	19.47	1.0	955.0	0.2	Outcome1	-1.78	0.5	0.0	No		-2.2757644394111				ShowResult	Mixed
16.0	1	257.382	0.02	333.451	-1.78	0.0	19.47	3.008	955.0	0.2	Outcome1	-1.78	0.5	0.0	No		-2.2757644394111				ISITrial	Mixed
17.0	1	260.424	0.034	336.493	-2.42	-1.0	19.1675	3.0	955.0	1.2	Outcome2	-0.1	-2.42	3041.5	Yes		-2.31568516421291				GetAnswer	Mixed
17.0	1	263.45	0.026	339.519	-2.42	-1.0	19.1675	4.0	955.0	1.2	Outcome2	-0.1	-2.42	3041.5	Yes		-2.31568516421291				ShowChoice	Mixed
17.0	1	267.479	0.029	343.548	-2.42	-1.0	19.1675	1.0	955.0	1.2	Outcome2	-0.1	-2.42	3041.5	Yes		-2.31568516421291				ShowResult	Mixed
17.0	1	268.498	0.019	344.567	-2.42	-1.0	19.1675	3.566	955.0	1.2	Outcome2	-0.1	-2.42	3041.5	Yes		-2.31568516421291				ISITrial	Mixed
17.0	1	275.152	0.018	351.221	-2.42	-1.0	19.1675	2.523	955.0	1.2	Outcome2	-0.1	-2.42	3041.5	Yes		-2.31568516421291			532.0	TrialHappiness	Mixed
17.0	1	279.18	4.028	355.249	-2.42	-1.0	19.1675	4.166	955.0	1.2	Outcome2	-0.1	-2.42	3041.5	Yes		-2.31568516421291				ISIRate	Mixed
18.0	1	283.376	0.03	359.445	4.5	-3.0	19.73	3.0	955.0	1.68	Outcome2	-10.35	4.5	0.0	No	2.0	14.853907134767802	1.898	285.274		GetAnswer	Gain
18.0	1	285.299	0.025	361.368	4.5	-3.0	19.73	4.0	955.0	1.68	Outcome2	-10.35	4.5	0.0	No		14.853907134767802				ShowChoice	Gain
18.0	1	289.327	0.028	365.396	4.5	-3.0	19.73	1.0	955.0	1.68	Outcome2	-10.35	4.5	0.0	No		14.853907134767802				ShowResult	Gain
18.0	1	290.347	0.02	366.416	4.5	-3.0	19.73	6.787	955.0	1.68	Outcome2	-10.35	4.5	0.0	No		14.853907134767802				ISITrial	Gain
19.0	1	297.168	0.034	373.237	0.9	2.0	19.8425	3.0	955.0	0.66	Outcome2	3.3	0.9	0.0	No		-2.39552661381653				GetAnswer	Mixed
19.0	1	300.193	0.025	376.262	0.9	2.0	19.8425	4.0	955.0	0.66	Outcome2	3.3	0.9	0.0	No		-2.39552661381653				ShowChoice	Mixed
19.0	1	304.222	0.029	380.291	0.9	2.0	19.8425	1.0	955.0	0.66	Outcome2	3.3	0.9	0.0	No		-2.39552661381653				ShowResult	Mixed
19.0	1	305.242	0.02	381.311	0.9	2.0	19.8425	2.0	955.0	0.66	Outcome2	3.3	0.9	0.0	No		-2.39552661381653				ISITrial	Mixed
20.0	1	307.265	0.023	383.334	-9.0	-9.0	18.7175	3.0	955.0	0.4	Certain	-1.1	-16.91	2921.25	Yes	4.0	15.8120045300113	2.738	310.003		GetAnswer	Mixed
20.0	1	310.023	0.02	386.092	-9.0	-9.0	18.7175	4.0	955.0	0.4	Certain	-1.1	-16.91	2921.25	Yes		15.8120045300113				ShowChoice	Mixed
20.0	1	314.052	0.029	390.121	-9.0	-9.0	18.7175	1.0	955.0	0.4	Certain	-1.1	-16.91	2921.25	Yes		15.8120045300113				ShowResult	Mixed
20.0	1	315.071	0.019	391.14	-9.0	-9.0	18.7175	8.0	955.0	0.4	Certain	-1.1	-16.91	2921.25	Yes		15.8120045300113				ISITrial	Mixed
20.0	1	326.037	0.021	402.106	-9.0	-9.0	18.7175	2.67	955.0	0.4	Certain	-1.1	-16.91	2921.25	Yes		15.8120045300113			532.0	TrialHappiness	Mixed
20.0	1	330.066	4.029	406.135	-9.0	-9.0	18.7175	3.685	955.0	0.4	Certain	-1.1	-16.91	2921.25	Yes		15.8120045300113				ISIRate	Mixed
21.0	1	333.777	0.026	409.846	7.7	0.0	19.68	3.0	955.0	3.16	Outcome2	-8.59	7.7	0.0	No	2.0	16.2910532276331	2.456	336.233		GetAnswer	Gain
21.0	1	336.251	0.018	412.32	7.7	0.0	19.68	4.0	955.0	3.16	Outcome2	-8.59	7.7	0.0	No		16.2910532276331				ShowChoice	Gain
21.0	1	340.28	0.029	416.349	7.7	0.0	19.68	1.0	955.0	3.16	Outcome2	-8.59	7.7	0.0	No		16.2910532276331				ShowResult	Gain
21.0	1	341.3	0.02	417.369	7.7	0.0	19.68	3.555	955.0	3.16	Outcome2	-8.59	7.7	0.0	No		16.2910532276331				ISITrial	Gain
22.0	1	344.877	0.022	420.946	-0.7	-9.0	19.5925	3.0	955.0	0.66	Outcome2	-17.47	-0.7	3219.5	Yes		16.7701019252548				GetAnswer	Mixed
22.0	1	347.903	0.026	423.972	-0.7	-9.0	19.5925	4.0	955.0	0.66	Outcome2	-17.47	-0.7	3219.5	Yes		16.7701019252548				ShowChoice	Mixed
22.0	1	351.932	0.029	428.001	-0.7	-9.0	19.5925	1.0	955.0	0.66	Outcome2	-17.47	-0.7	3219.5	Yes		16.7701019252548				ShowResult	Mixed
22.0	1	352.951	0.019	429.02	-0.7	-9.0	19.5925	6.793	955.0	0.66	Outcome2	-17.47	-0.7	3219.5	Yes		16.7701019252548				ISITrial	Mixed
22.0	1	363.015	0.023	439.084	-0.7	-9.0	19.5925	0.765	955.0	0.66	Outcome2	-17.47	-0.7	3219.5	Yes		16.7701019252548			492.0	TrialHappiness	Mixed
22.0	1	367.044	4.029	443.113	-0.7	-9.0	19.5925	4.878	955.0	0.66	Outcome2	-17.47	-0.7	3219.5	Yes		16.7701019252548				ISIRate	Mixed
23.0	1	371.942	0.02	448.011	8.58	4.29	20.665	3.0	955.0	2.48	Outcome1	8.58	11.3	0.0	No	2.0	-2.7175349188373	1.568	373.51		GetAnswer	Loss
23.0	1	373.53	0.02	449.599	8.58	4.29	20.665	4.0	955.0	2.48	Outcome1	8.58	11.3	0.0	No		-2.7175349188373				ShowChoice	Loss
23.0	1	377.558	0.028	453.627	8.58	4.29	20.665	1.0	955.0	2.48	Outcome1	8.58	11.3	0.0	No		-2.7175349188373				ShowResult	Loss
23.0	1	378.578	0.02	454.647	8.58	4.29	20.665	8.0	955.0	2.48	Outcome1	8.58	11.3	0.0	No		-2.7175349188373				ISITrial	Loss
24.0	1	386.602	0.024	462.671	12.3	-3.08	22.2025	3.0	955.0	5.0	Outcome2	-6.15	12.3	3255.0	Yes	2.0	18.453001132502802	1.926	388.528		GetAnswer	Loss
24.0	1	388.558	0.03	464.627	12.3	-3.08	22.2025	4.0	955.0	5.0	Outcome2	-6.15	12.3	3255.0	Yes		18.453001132502802				ShowChoice	Loss
24.0	1	392.57	0.012	468.639	12.3	-3.08	22.2025	1.0	955.0	5.0	Outcome2	-6.15	12.3	3255.0	Yes		18.453001132502802				ShowResult	Loss
24.0	1	393.59	0.02	469.659	12.3	-3.08	22.2025	2.0	955.0	5.0	Outcome2	-6.15	12.3	3255.0	Yes		18.453001132502802				ISITrial	Loss
24.0	1	398.889	0.021	474.958	12.3	-3.08	22.2025	0.754	955.0	5.0	Outcome2	-6.15	12.3	3255.0	Yes		18.453001132502802			504.0	TrialHappiness	Loss
24.0	1	402.918	4.029	478.987	12.3	-3.08	22.2025	5.02	955.0	5.0	Outcome2	-6.15	12.3	3255.0	Yes		18.453001132502802				ISIRate	Loss
25.0	1	407.966	0.028	484.035	-6.0	-6.0	21.4525	3.0	955.0	0.82	Certain	3.5	-15.27	0.0	No	4.0	18.7734994337486	2.085	410.051		GetAnswer	Mixed
25.0	1	410.073	0.022	486.142	-6.0	-6.0	21.4525	4.0	955.0	0.82	Certain	3.5	-15.27	0.0	No		18.7734994337486				ShowChoice	Mixed
25.0	1	414.101	0.028	490.17	-6.0	-6.0	21.4525	1.0	955.0	0.82	Certain	3.5	-15.27	0.0	No		18.7734994337486				ShowResult	Mixed
25.0	1	415.121	0.02	491.19	-6.0	-6.0	21.4525	3.749	955.0	0.82	Certain	3.5	-15.27	0.0	No		18.7734994337486				ISITrial	Mixed
26.0	1	418.899	0.029	494.968	-3.7	-2.0	20.99	3.0	955.0	0.52	Outcome2	-0.9	-3.7	0.0	No	2.0	-2.79879199697999	2.85	421.749		GetAnswer	Mixed
26.0	1	421.774	0.025	497.843	-3.7	-2.0	20.99	4.0	955.0	0.52	Outcome2	-0.9	-3.7	0.0	No		-2.79879199697999				ShowChoice	Mixed
26.0	1	425.803	0.029	501.872	-3.7	-2.0	20.99	1.0	955.0	0.52	Outcome2	-0.9	-3.7	0.0	No		-2.79879199697999				ShowResult	Mixed
26.0	1	426.823	0.02	502.892	-3.7	-2.0	20.99	7.834	955.0	0.52	Outcome2	-0.9	-3.7	0.0	No		-2.79879199697999				ISITrial	Mixed
27.0	1	434.68	0.023	510.749	0.9	-9.0	21.1025	3.0	955.0	0.4	Outcome1	0.9	-18.9	2549.75	Yes	2.0	19.7950169875425	1.71	436.39		GetAnswer	Mixed
27.0	1	436.418	0.028	512.487	0.9	-9.0	21.1025	4.0	955.0	0.4	Outcome1	0.9	-18.9	2549.75	Yes		19.7950169875425				ShowChoice	Mixed
27.0	1	440.447	0.029	516.516	0.9	-9.0	21.1025	1.0	955.0	0.4	Outcome1	0.9	-18.9	2549.75	Yes		19.7950169875425				ShowResult	Mixed
27.0	1	441.467	0.02	517.536	0.9	-9.0	21.1025	4.225	955.0	0.4	Outcome1	0.9	-18.9	2549.75	Yes		19.7950169875425				ISITrial	Mixed
27.0	1	448.287	0.024	524.356	0.9	-9.0	21.1025	0.701	955.0	0.4	Outcome1	0.9	-18.9	2549.75	Yes		19.7950169875425			532.0	TrialHappiness	Mixed
27.0	1	452.316	4.029	528.385	0.9	-9.0	21.1025	2.199	955.0	0.4	Outcome1	0.9	-18.9	2549.75	Yes		19.7950169875425				ISIRate	Mixed
	1	454.539	0.024	530.608				-0.001								{SPACE}		56.45	510.989		Rest	
	1	511.008	0.019	587.077				4.0													BlockHappyPreview	
	1	515.02	0.012	591.089				2.851												532.0	BlockStartHappiness	
	1	522.493	0.016	598.562				-0.001								5.0		3.652	526.145		ScanWait	
	2	0.025	0.025	602.239				10.0													GetReady	
28.0	2	10.055	0.03	612.269	-6.56	-2.0	20.2825	3.0	70.0	0.66	Outcome1	-6.56	1.3	0.0	No	2.0	-7.857142857142861	1.373	11.428		GetAnswer	Mixed
28.0	2	11.46	0.032	613.674	-6.56	-2.0	20.2825	4.0	70.0	0.66	Outcome1	-6.56	1.3	0.0	No		-7.857142857142861				ShowChoice	Mixed
28.0	2	15.488	0.028	617.702	-6.56	-2.0	20.2825	1.0	70.0	0.66	Outcome1	-6.56	1.3	0.0	No		-7.857142857142861				ShowResult	Mixed
28.0	2	16.508	0.02	618.722	-6.56	-2.0	20.2825	3.575	70.0	0.66	Outcome1	-6.56	1.3	0.0	No		-7.857142857142861				ISITrial	Mixed
29.0	2	20.102	0.019	622.316	2.0	2.0	20.5325	3.0	70.0	2.0	Certain	2.72	0.8	3529.0	Yes	4.0	1.92063492063492	1.459	21.561		GetAnswer	Loss
29.0	2	21.59	0.029	623.804	2.0	2.0	20.5325	4.0	70.0	2.0	Certain	2.72	0.8	3529.0	Yes		1.92063492063492				ShowChoice	Loss
29.0	2	25.619	0.029	627.833	2.0	2.0	20.5325	1.0	70.0	2.0	Certain	2.72	0.8	3529.0	Yes		1.92063492063492				ShowResult	Loss
29.0	2	26.639	0.02	628.853	2.0	2.0	20.5325	3.955	70.0	2.0	Certain	2.72	0.8	3529.0	Yes		1.92063492063492				ISITrial	Loss
29.0	2	34.178	0.032	636.392	2.0	2.0	20.5325	0.558	70.0	2.0	Certain	2.72	0.8	3529.0	Yes		1.92063492063492			544.0	TrialHappiness	Loss
29.0	2	38.207	4.029	640.421	2.0	2.0	20.5325	6.116	70.0	2.0	Certain	2.72	0.8	3529.0	Yes		1.92063492063492				ISIRate	Loss
30.0	2	44.342	0.019	646.556	-0.6	-0.6	20.4575	3.0	70.0	3.6	Certain	-1.21	7.9	0.0	No	4.0	-9.10884353741497	2.42	46.762		GetAnswer	Gain
30.0	2	46.782	0.02	648.996	-0.6	-0.6	20.4575	4.0	70.0	3.6	Certain	-1.21	7.9	0.0	No		-9.10884353741497				ShowChoice	Gain
30.0	2	50.811	0.029	653.025	-0.6	-0.6	20.4575	1.0	70.0	3.6	Certain	-1.21	7.9	0.0	No		-9.10884353741497				ShowResult	Gain
30.0	2	51.831	0.02	654.045	-0.6	-0.6	20.4575	4.453	70.0	3.6	Certain	-1.21	7.9	0.0	No		-9.10884353741497				ISITrial	Gain
31.0	2	56.311	0.027	658.525	-1.15	-0.57	20.3137	3.0	70.0	1.68	Outcome1	-1.15	8.5	2503.25	Yes	2.0	-9.64625850340136	1.267	57.578		GetAnswer	Gain
31.0	2	57.598	0.02	659.812	-1.15	-0.57	20.3137	4.0	70.0	1.68	Outcome1	-1.15	8.5	2503.25	Yes		-9.64625850340136				ShowChoice	Gain
31.0	2	61.627	0.029	663.841	-1.15	-0.57	20.3137	1.0	70.0	1.68	Outcome1	-1.15	8.5	2503.25	Yes		-9.64625850340136				ShowResult	Gain
31.0	2	62.646	0.019	664.86	-1.15	-0.57	20.3137	4.786	70.0	1.68	Outcome1	-1.15	8.5	2503.25	Yes		-9.64625850340136				ISITrial	Gain
31.0	2	69.985	0.021	672.199	-1.15	-0.57	20.3137	0.576	70.0	1.68	Outcome1	-1.15	8.5	2503.25	Yes	4{-4}	-9.64625850340136	0.576	70.561	488.0	TrialHappiness	Gain
31.0	2	74.014	4.029	676.228	-1.15	-0.57	20.3137	2.013	70.0	1.68	Outcome1	-1.15	8.5	2503.25	Yes		-9.64625850340136				ISIRate	Gain
32.0	2	76.053	0.026	678.267	-0.33	-0.16	20.2725	3.0	70.0	2.0	Outcome2	8.9	-0.33	0.0	No	2.0	-9.231292517006802	1.402	77.455		GetAnswer	Gain
32.0	2	77.474	0.019	679.688	-0.33	-0.16	20.2725	4.0	70.0	2.0	Outcome2	8.9	-0.33	0.0	No		-9.231292517006802				ShowChoice	Gain
32.0	2	81.503	0.029	683.717	-0.33	-0.16	20.2725	1.0	70.0	2.0	Outcome2	8.9	-0.33	0.0	No		-9.231292517006802				ShowResult	Gain
32.0	2	82.523	0.02	684.737	-0.33	-0.16	20.2725	2.0	70.0	2.0	Outcome2	8.9	-0.33	0.0	No		-9.231292517006802				ISITrial	Gain
33.0	2	84.545	0.022	686.759	0.0	0.0	20.2725	3.0	70.0	0.3	Certain	-1.23	0.68	0.0	No	4.0	1.9145880574452	2.017	86.562		GetAnswer	Mixed
33.0	2	86.585	0.023	688.799	0.0	0.0	20.2725	4.0	70.0	0.3	Certain	-1.23	0.68	0.0	No		1.9145880574452				ShowChoice	Mixed
33.0	2	90.614	0.029	692.828	0.0	0.0	20.2725	1.0	70.0	0.3	Certain	-1.23	0.68	0.0	No		1.9145880574452				ShowResult	Mixed
33.0	2	91.633	0.019	693.847	0.0	0.0	20.2725	5.099	70.0	0.3	Certain	-1.23	0.68	0.0	No		1.9145880574452				ISITrial	Mixed
34.0	2	96.765	0.033	698.979	-4.0	-4.0	19.7725	3.0	70.0	0.3	Certain	0.7	-9.48	3231.5	Yes	4.0	-10.1791383219955	2.542	99.307		GetAnswer	Mixed
34.0	2	99.323	0.016	701.537	-4.0	-4.0	19.7725	4.0	70.0	0.3	Certain	0.7	-9.48	3231.5	Yes		-10.1791383219955				ShowChoice	Mixed
34.0	2	103.335	0.012	705.549	-4.0	-4.0	19.7725	1.0	70.0	0.3	Certain	0.7	-9.48	3231.5	Yes		-10.1791383219955				ShowResult	Mixed
34.0	2	104.355	0.02	706.569	-4.0	-4.0	19.7725	4.784	70.0	0.3	Certain	0.7	-9.48	3231.5	Yes		-10.1791383219955				ISITrial	Mixed
34.0	2	112.412	0.028	714.626	-4.0	-4.0	19.7725	2.733	70.0	0.3	Certain	0.7	-9.48	3231.5	Yes		-10.1791383219955			452.0	TrialHappiness	Mixed
34.0	2	116.441	4.029	718.655	-4.0	-4.0	19.7725	4.926	70.0	0.3	Certain	0.7	-9.48	3231.5	Yes		-10.1791383219955				ISIRate	Mixed
35.0	2	121.389	0.022	723.603	0.46	0.23	19.83	3.0	70.0	1.68	Outcome2	10.5	0.46	0.0	No	2.0	-10.0408163265306	1.649	123.038		GetAnswer	Loss
35.0	2	123.061	0.023	725.275	0.46	0.23	19.83	4.0	70.0	1.68	Outcome2	10.5	0.46	0.0	No		-10.0408163265306				ShowChoice	Loss
35.0	2	127.09	0.029	729.304	0.46	0.23	19.83	1.0	70.0	1.68	Outcome2	10.5	0.46	0.0	No		-10.0408163265306				ShowResult	Loss
35.0	2	128.109	0.019	730.323	0.46	0.23	19.83	2.098	70.0	1.68	Outcome2	10.5	0.46	0.0	No		-10.0408163265306				ISITrial	Loss
36.0	2	130.232	0.025	732.446	-4.37	1.0	19.2838	3.0	70.0	4.2	Outcome1	-4.37	6.1	3335.75	Yes	2.0	-10.473922902494301	2.848	133.08		GetAnswer	Gain
36.0	2	133.108	0.028	735.322	-4.37	1.0	19.2838	4.0	70.0	4.2	Outcome1	-4.37	6.1	3335.75	Yes		-10.473922902494301				ShowChoice	Gain
36.0	2	137.136	0.028	739.35	-4.37	1.0	19.2838	1.0	70.0	4.2	Outcome1	-4.37	6.1	3335.75	Yes		-10.473922902494301				ShowResult	Gain
36.0	2	138.156	0.02	740.37	-4.37	1.0	19.2838	5.156	70.0	4.2	Outcome1	-4.37	6.1	3335.75	Yes		-10.473922902494301				ISITrial	Gain
36.0	2	146.698	0.024	748.912	-4.37	1.0	19.2838	0.61	70.0	4.2	Outcome1	-4.37	6.1	3335.75	Yes		-10.473922902494301			492.0	TrialHappiness	Gain
36.0	2	150.71	4.012	752.924	-4.37	1.0	19.2838	5.343	70.0	4.2	Outcome1	-4.37	6.1	3335.75	Yes		-10.473922902494301				ISIRate	Gain
37.0	2	156.076	0.023	758.29	1.68	0.0	19.4938	3.0	70.0	1.82	Outcome2	-0.4	1.68	0.0	No	2.0	2.08201058201058	1.523	157.599		GetAnswer	Gain
37.0	2	157.614	0.015	759.828	1.68	0.0	19.4938	4.0	70.0	1.82	Outcome2	-0.4	1.68	0.0	No		2.08201058201058				ShowChoice	Gain
37.0	2	161.643	0.029	763.857	1.68	0.0	19.4938	1.0	70.0	1.82	Outcome2	-0.4	1.68	0.0	No		2.08201058201058				ShowResult	Gain
37.0	2	162.663	0.02	764.877	1.68	0.0	19.4938	3.598	70.0	1.82	Outcome2	-0.4	1.68	0.0	No		2.08201058201058				ISITrial	Gain
38.0	2	166.29	0.029	768.504	-2.77	-1.38	19.1476	3.0	70.0	2.48	Outcome2	9.3	-2.77	0.0	No	2.0	-12.065759637188199	1.925	168.215		GetAnswer	Gain
38.0	2	168.246	0.031	770.46	-2.77	-1.38	19.1476	4.0	70.0	2.48	Outcome2	9.3	-2.77	0.0	No		-12.065759637188199				ShowChoice	Gain
38.0	2	172.275	0.029	774.489	-2.77	-1.38	19.1476	1.0	70.0	2.48	Outcome2	9.3	-2.77	0.0	No		-12.065759637188199				ShowResult	Gain
38.0	2	173.295	0.02	775.509	-2.77	-1.38	19.1476	4.787	70.0	2.48	Outcome2	9.3	-2.77	0.0	No		-12.065759637188199				ISITrial	Gain
39.0	2	178.109	0.027	780.323	1.18	0.0	19.2951	3.0	70.0	1.82	Outcome1	1.18	-0.98	2864.25	Yes	2.0	2.16175359032502	2.056	180.165		GetAnswer	Gain
39.0	2	180.182	0.017	782.396	1.18	0.0	19.2951	4.0	70.0	1.82	Outcome1	1.18	-0.98	2864.25	Yes		2.16175359032502				ShowChoice	Gain
39.0	2	184.194	0.012	786.408	1.18	0.0	19.2951	1.0	70.0	1.82	Outcome1	1.18	-0.98	2864.25	Yes		2.16175359032502				ShowResult	Gain
39.0	2	185.214	0.02	787.428	1.18	0.0	19.2951	2.348	70.0	1.82	Outcome1	1.18	-0.98	2864.25	Yes		2.16175359032502				ISITrial	Gain
39.0	2	190.479	0.028	792.693	1.18	0.0	19.2951	1.178	70.0	1.82	Outcome1	1.18	-0.98	2864.25	Yes		2.16175359032502			544.0	TrialHappiness	Gain
39.0	2	194.508	4.029	796.722	1.18	0.0	19.2951	3.457	70.0	1.82	Outcome1	1.18	-0.98	2864.25	Yes		2.16175359032502				ISIRate	Gain
40.0	2	197.985	0.02	800.199	-0.01	0.0	19.2939	3.0	70.0	3.6	Outcome1	-0.01	13.9	0.0	No	2.0	-13.9070294784581	2.036	200.021		GetAnswer	Loss
40.0	2	200.041	0.02	802.255	-0.01	0.0	19.2939	4.0	70.0	3.6	Outcome1	-0.01	13.9	0.0	No		-13.9070294784581				ShowChoice	Loss
40.0	2	204.07	0.029	806.284	-0.01	0.0	19.2939	1.0	70.0	3.6	Outcome1	-0.01	13.9	0.0	No		-13.9070294784581				ShowResult	Loss
40.0	2	205.09	0.02	807.304	-0.01	0.0	19.2939	3.158	70.0	3.6	Outcome1	-0.01	13.9	0.0	No		-13.9070294784581				ISITrial	Loss
41.0	2	208.266	0.018	810.48	-1.0	-1.0	19.1689	3.0	70.0	1.0	Certain	-2.54	-0.08	4000.0	Yes	4.0	2.45767195767196	2.17	210.436		GetAnswer	Mixed
41.0	2	210.456	0.02	812.67	-1.0	-1.0	19.1689	4.0	70.0	1.0	Certain	-2.54	-0.08	4000.0	Yes		2.45767195767196				ShowChoice	Mixed
41.0	2	214.485	0.029	816.699	-1.0	-1.0	19.1689	1.0	70.0	1.0	Certain	-2.54	-0.08	4000.0	Yes		2.45767195767196				ShowResult	Mixed
41.0	2	215.504	0.019	817.718	-1.0	-1.0	19.1689	4.506	70.0	1.0	Certain	-2.54	-0.08	4000.0	Yes		2.45767195767196				ISITrial	Mixed
41.0	2	224.063	0.028	826.277	-1.0	-1.0	19.1689	1.462	70.0	1.0	Certain	-2.54	-0.08	4000.0	Yes		2.45767195767196			472.0	TrialHappiness	Mixed
41.0	2	228.092	4.029	830.306	-1.0	-1.0	19.1689	8.0	70.0	1.0	Certain	-2.54	-0.08	4000.0	Yes		2.45767195767196				ISIRate	Mixed
42.0	2	236.116	0.024	838.33	-5.46	1.0	18.4864	3.0	70.0	5.0	Outcome1	-5.46	8.3	0.0	No	2.0	-13.7573696145125	2.088	238.204		GetAnswer	Gain
42.0	2	238.222	0.018	840.436	-5.46	1.0	18.4864	4.0	70.0	5.0	Outcome1	-5.46	8.3	0.0	No		-13.7573696145125				ShowChoice	Gain
42.0	2	242.235	0.013	844.449	-5.46	1.0	18.4864	1.0	70.0	5.0	Outcome1	-5.46	8.3	0.0	No		-13.7573696145125				ShowResult	Gain
42.0	2	243.254	0.019	845.468	-5.46	1.0	18.4864	6.248	70.0	5.0	Outcome1	-5.46	8.3	0.0	No		-13.7573696145125				ISITrial	Gain
43.0	2	249.523	0.021	851.737	-4.31	-2.15	17.9476	3.0	70.0	3.6	Outcome1	-4.31	9.9	2775.75	Yes	2.0	-14.213151927437599	2.968	252.491		GetAnswer	Gain
43.0	2	252.515	0.024	854.729	-4.31	-2.15	17.9476	4.0	70.0	3.6	Outcome1	-4.31	9.9	2775.75	Yes		-14.213151927437599				ShowChoice	Gain
43.0	2	256.544	0.029	858.758	-4.31	-2.15	17.9476	1.0	70.0	3.6	Outcome1	-4.31	9.9	2775.75	Yes		-14.213151927437599				ShowResult	Gain
43.0	2	257.564	0.02	859.778	-4.31	-2.15	17.9476	4.596	70.0	3.6	Outcome1	-4.31	9.9	2775.75	Yes		-14.213151927437599				ISITrial	Gain
43.0	2	264.986	0.032	867.2	-4.31	-2.15	17.9476	1.428	70.0	3.6	Outcome1	-4.31	9.9	2775.75	Yes		-14.213151927437599			560.0	TrialHappiness	Gain
43.0	2	269.015	4.029	871.229	-4.31	-2.15	17.9476	3.103	70.0	3.6	Outcome1	-4.31	9.9	2775.75	Yes		-14.213151927437599				ISIRate	Gain
44.0	2	272.141	0.023	874.355	-14.47	-6.0	16.1388	3.0	70.0	1.0	Outcome2	1.7	-14.47	0.0	No	2.0	-16.1655328798186	2.93	275.071		GetAnswer	Mixed
44.0	2	275.1	0.029	877.314	-14.47	-6.0	16.1388	4.0	70.0	1.0	Outcome2	1.7	-14.47	0.0	No		-16.1655328798186				ShowChoice	Mixed
44.0	2	279.128	0.028	881.342	-14.47	-6.0	16.1388	1.0	70.0	1.0	Outcome2	1.7	-14.47	0.0	No		-16.1655328798186				ShowResult	Mixed
44.0	2	280.148	0.02	882.362	-14.47	-6.0	16.1388	2.42	70.0	1.0	Outcome2	1.7	-14.47	0.0	No		-16.1655328798186				ISITrial	Mixed
45.0	2	282.589	0.021	884.803	-6.0	-6.0	15.3888	3.0	70.0	1.5	Certain	2.1	-14.62	0.0	No	4.0	-16.7210884353741	2.277	284.866		GetAnswer	Mixed
45.0	2	284.879	0.013	887.093	-6.0	-6.0	15.3888	4.0	70.0	1.5	Certain	2.1	-14.62	0.0	No		-16.7210884353741				ShowChoice	Mixed
45.0	2	288.891	0.012	891.105	-6.0	-6.0	15.3888	1.0	70.0	1.5	Certain	2.1	-14.62	0.0	No		-16.7210884353741				ShowResult	Mixed
45.0	2	289.911	0.02	892.125	-6.0	-6.0	15.3888	3.144	70.0	1.5	Certain	2.1	-14.62	0.0	No		-16.7210884353741				ISITrial	Mixed
46.0	2	293.087	0.032	895.301	-14.38	-5.0	13.5913	3.0	70.0	0.4	Outcome1	-14.38	2.9	3841.25	Yes	2.0	-17.2766439909297	0.809	293.896		GetAnswer	Mixed
46.0	2	293.923	0.027	896.137	-14.38	-5.0	13.5913	4.0	70.0	0.4	Outcome1	-14.38	2.9	3841.25	Yes		-17.2766439909297				ShowChoice	Mixed
46.0	2	297.951	0.028	900.165	-14.38	-5.0	13.5913	1.0	70.0	0.4	Outcome1	-14.38	2.9	3841.25	Yes		-17.2766439909297				ShowResult	Mixed
46.0	2	298.971	0.02	901.185	-14.38	-5.0	13.5913	2.246	70.0	0.4	Outcome1	-14.38	2.9	3841.25	Yes		-17.2766439909297				ISITrial	Mixed
46.0	2	305.106	0.02	907.32	-14.38	-5.0	13.5913	1.763	70.0	0.4	Outcome1	-14.38	2.9	3841.25	Yes		-17.2766439909297			464.0	TrialHappiness	Mixed
46.0	2	309.135	4.029	911.349	-14.38	-5.0	13.5913	7.365	70.0	0.4	Outcome1	-14.38	2.9	3841.25	Yes		-17.2766439909297				ISIRate	Mixed
47.0	2	316.524	0.024	918.738	-4.1	-2.05	13.0788	3.0	70.0	4.2	Outcome2	12.1	-4.1	0.0	No	2.0	-16.1995464852608	1.786	318.31		GetAnswer	Loss
47.0	2	318.329	0.019	920.543	-4.1	-2.05	13.0788	4.0	70.0	4.2	Outcome2	12.1	-4.1	0.0	No		-16.1995464852608				ShowChoice	Loss
47.0	2	322.358	0.029	924.572	-4.1	-2.05	13.0788	1.0	70.0	4.2	Outcome2	12.1	-4.1	0.0	No		-16.1995464852608				ShowResult	Loss
47.0	2	323.378	0.02	925.592	-4.1	-2.05	13.0788	2.0	70.0	4.2	Outcome2	12.1	-4.1	0.0	No		-16.1995464852608				ISITrial	Loss
48.0	2	325.4	0.022	927.614	-7.0	-7.0	12.2038	3.0	70.0	0.82	Certain	-15.15	1.5	2831.75	Yes	4.0	-16.646258503401402	2.143	327.543		GetAnswer	Mixed
48.0	2	327.574	0.031	929.788	-7.0	-7.0	12.2038	4.0	70.0	0.82	Certain	-15.15	1.5	2831.75	Yes		-16.646258503401402				ShowChoice	Mixed
48.0	2	331.602	0.028	933.816	-7.0	-7.0	12.2038	1.0	70.0	0.82	Certain	-15.15	1.5	2831.75	Yes		-16.646258503401402				ShowResult	Mixed
48.0	2	332.622	0.02	934.836	-7.0	-7.0	12.2038	3.692	70.0	0.82	Certain	-15.15	1.5	2831.75	Yes		-16.646258503401402				ISITrial	Mixed
48.0	2	339.192	0.027	941.406	-7.0	-7.0	12.2038	2.163	70.0	0.82	Certain	-15.15	1.5	2831.75	Yes		-16.646258503401402			468.0	TrialHappiness	Mixed
48.0	2	343.204	4.012	945.418	-7.0	-7.0	12.2038	3.327	70.0	0.82	Certain	-15.15	1.5	2831.75	Yes		-16.646258503401402				ISIRate	Mixed
49.0	2	346.564	0.033	948.778	-4.0	-4.0	11.7038	3.0	70.0	1.2	Certain	-13.26	3.9	0.0	No	4.0	-17.1609977324263	1.595	348.159		GetAnswer	Mixed
49.0	2	348.185	0.026	950.399	-4.0	-4.0	11.7038	4.0	70.0	1.2	Certain	-13.26	3.9	0.0	No		-17.1609977324263				ShowChoice	Mixed
49.0	2	352.197	0.012	954.411	-4.0	-4.0	11.7038	1.0	70.0	1.2	Certain	-13.26	3.9	0.0	No		-17.1609977324263				ShowResult	Mixed
49.0	2	353.217	0.02	955.431	-4.0	-4.0	11.7038	8.0	70.0	1.2	Certain	-13.26	3.9	0.0	No		-17.1609977324263				ISITrial	Mixed
50.0	2	361.241	0.024	963.455	-3.0	-3.0	11.3288	3.0	70.0	2.8	Certain	5.5	-12.11	3547.25	Yes	4.0	-17.612244897959197	1.721	362.962		GetAnswer	Gain
50.0	2	362.98	0.018	965.194	-3.0	-3.0	11.3288	4.0	70.0	2.8	Certain	5.5	-12.11	3547.25	Yes		-17.612244897959197				ShowChoice	Gain
50.0	2	366.992	0.012	969.206	-3.0	-3.0	11.3288	1.0	70.0	2.8	Certain	5.5	-12.11	3547.25	Yes		-17.612244897959197				ShowResult	Gain
50.0	2	368.011	0.019	970.225	-3.0	-3.0	11.3288	7.537	70.0	2.8	Certain	5.5	-12.11	3547.25	Yes		-17.612244897959197				ISITrial	Gain
50.0	2	379.128	0.014	981.342	-3.0	-3.0	11.3288	1.162	70.0	2.8	Certain	5.5	-12.11	3547.25	Yes		-17.612244897959197			468.0	TrialHappiness	Gain
50.0	2	383.14	4.012	985.354	-3.0	-3.0	11.3288	6.189	70.0	2.8	Certain	5.5	-12.11	3547.25	Yes		-17.612244897959197				ISIRate	Gain
51.0	2	389.359	0.03	991.573	-4.76	-2.38	10.7338	3.0	70.0	2.48	Outcome2	13.3	-4.76	0.0	No	2.0	-18.063492063492102	1.334	390.693		GetAnswer	Loss
51.0	2	390.713	0.02	992.927	-4.76	-2.38	10.7338	4.0	70.0	2.48	Outcome2	13.3	-4.76	0.0	No		-18.063492063492102				ShowChoice	Loss
51.0	2	394.725	0.012	996.939	-4.76	-2.38	10.7338	1.0	70.0	2.48	Outcome2	13.3	-4.76	0.0	No		-18.063492063492102				ShowResult	Loss
51.0	2	395.744	0.019	997.958	-4.76	-2.38	10.7338	5.508	70.0	2.48	Outcome2	13.3	-4.76	0.0	No		-18.063492063492102				ISITrial	Loss
52.0	2	401.278	0.026	1003.492	1.32	0.0	10.8988	3.0	70.0	2.48	Outcome1	1.32	-1.28	0.0	No	2.0	2.5958049886621297	2.006	403.284		GetAnswer	Gain
52.0	2	403.3	0.016	1005.514	1.32	0.0	10.8988	4.0	70.0	2.48	Outcome1	1.32	-1.28	0.0	No		2.5958049886621297				ShowChoice	Gain
52.0	2	407.312	0.012	1009.526	1.32	0.0	10.8988	1.0	70.0	2.48	Outcome1	1.32	-1.28	0.0	No		2.5958049886621297				ShowResult	Gain
52.0	2	408.332	0.02	1010.546	1.32	0.0	10.8988	5.913	70.0	2.48	Outcome1	1.32	-1.28	0.0	No		2.5958049886621297				ISITrial	Gain
53.0	2	414.267	0.022	1016.481	-15.27	-6.0	8.99	3.0	70.0	1.0	Outcome1	-15.27	3.7	2996.75	Yes		-18.9659863945578				GetAnswer	Mixed
53.0	2	417.292	0.025	1019.506	-15.27	-6.0	8.99	4.0	70.0	1.0	Outcome1	-15.27	3.7	2996.75	Yes		-18.9659863945578				ShowChoice	Mixed
53.0	2	421.304	0.012	1023.518	-15.27	-6.0	8.99	1.0	70.0	1.0	Outcome1	-15.27	3.7	2996.75	Yes		-18.9659863945578				ShowResult	Mixed
53.0	2	422.324	0.02	1024.538	-15.27	-6.0	8.99	3.66	70.0	1.0	Outcome1	-15.27	3.7	2996.75	Yes		-18.9659863945578				ISITrial	Mixed
53.0	2	429.028	0.029	1031.242	-15.27	-6.0	8.99	1.476	70.0	1.0	Outcome1	-15.27	3.7	2996.75	Yes		-18.9659863945578			392.0	TrialHappiness	Mixed
53.0	2	433.04	4.012	1035.254	-15.27	-6.0	8.99	3.987	70.0	1.0	Outcome1	-15.27	3.7	2996.75	Yes		-18.9659863945578				ISIRate	Mixed
54.0	2	437.052	0.025	1039.266	-4.0	-4.0	8.49	3.0	70.0	2.0	Certain	4.9	-13.22	0.0	No	4.0	-18.124716553288	2.037	439.089		GetAnswer	Gain
54.0	2	439.108	0.019	1041.322	-4.0	-4.0	8.49	4.0	70.0	2.0	Certain	4.9	-13.22	0.0	No		-18.124716553288				ShowChoice	Gain
54.0	2	443.12	0.012	1045.334	-4.0	-4.0	8.49	1.0	70.0	2.0	Certain	4.9	-13.22	0.0	No		-18.124716553288				ShowResult	Gain
54.0	2	444.14	0.02	1046.354	-4.0	-4.0	8.49	8.0	70.0	2.0	Certain	4.9	-13.22	0.0	No		-18.124716553288				ISITrial	Gain
	2	452.164	0.024	1054.378				-0.001								{SPACE}		41.759	493.923		Rest	
	2	493.939	0.016	1096.153				4.0													BlockHappyPreview	
	2	497.951	0.012	1100.165				1.046												492.0	BlockStartHappiness	
	2	505.674	0.023	1107.888				-0.001								5.0		1.507	507.181		ScanWait	
	3	0.014	0.014	1109.409				10.0													GetReady	
55.0	3	10.027	0.013	1119.422	0.02	1.0	8.4925	3.0	955.0	1.2	Outcome2	1.9	0.02	2533.25	Yes	2.0	-1.8789165722914298	1.951	11.978		GetAnswer	Mixed
55.0	3	12.0	0.022	1121.395	0.02	1.0	8.4925	4.0	955.0	1.2	Outcome2	1.9	0.02	2533.25	Yes		-1.8789165722914298				ShowChoice	Mixed
55.0	3	16.012	0.012	1125.407	0.02	1.0	8.4925	1.0	955.0	1.2	Outcome2	1.9	0.02	2533.25	Yes		-1.8789165722914298				ShowResult	Mixed
55.0	3	17.032	0.02	1126.427	0.02	1.0	8.4925	7.709	955.0	1.2	Outcome2	1.9	0.02	2533.25	Yes		-1.8789165722914298				ISITrial	Mixed
55.0	3	27.313	0.025	1136.708	0.02	1.0	8.4925	0.759	955.0	1.2	Outcome2	1.9	0.02	2533.25	Yes		-1.8789165722914298			532.0	TrialHappiness	Mixed
55.0	3	31.325	4.012	1140.72	0.02	1.0	8.4925	2.133	955.0	1.2	Outcome2	1.9	0.02	2533.25	Yes		-1.8789165722914298				ISIRate	Mixed
56.0	3	33.481	0.023	1142.876	1.5	1.5	8.68	3.0	955.0	1.82	Certain	10.7	2.99	0.0	No	4.0	7.71007927519819	1.39	34.871		GetAnswer	Loss
56.0	3	34.885	0.014	1144.28	1.5	1.5	8.68	4.0	955.0	1.82	Certain	10.7	2.99	0.0	No		7.71007927519819				ShowChoice	Loss
56.0	3	38.897	0.012	1148.292	1.5	1.5	8.68	1.0	955.0	1.82	Certain	10.7	2.99	0.0	No		7.71007927519819				ShowResult	Loss
56.0	3	39.917	0.02	1149.312	1.5	1.5	8.68	4.697	955.0	1.82	Certain	10.7	2.99	0.0	No		7.71007927519819				ISITrial	Loss
57.0	3	44.631	0.017	1154.026	-5.0	-5.0	8.055	3.0	955.0	0.3	Certain	-1.3	-9.49	0.0	No	4.0	8.189127972819929	2.13	46.761		GetAnswer	Mixed
57.0	3	46.788	0.027	1156.183	-5.0	-5.0	8.055	4.0	955.0	0.3	Certain	-1.3	-9.49	0.0	No		8.189127972819929				ShowChoice	Mixed
57.0	3	50.8	0.012	1160.195	-5.0	-5.0	8.055	1.0	955.0	0.3	Certain	-1.3	-9.49	0.0	No		8.189127972819929				ShowResult	Mixed
57.0	3	51.819	0.019	1161.214	-5.0	-5.0	8.055	4.291	955.0	0.3	Certain	-1.3	-9.49	0.0	No		8.189127972819929				ISITrial	Mixed
58.0	3	56.132	0.022	1165.527	2.26	1.13	8.3375	3.0	955.0	1.5	Outcome2	4.1	2.26	3045.75	Yes	2.0	-1.8401283503208798	1.623	57.755		GetAnswer	Mixed
58.0	3	57.771	0.016	1167.166	2.26	1.13	8.3375	4.0	955.0	1.5	Outcome2	4.1	2.26	3045.75	Yes		-1.8401283503208798				ShowChoice	Mixed
58.0	3	61.783	0.012	1171.178	2.26	1.13	8.3375	1.0	955.0	1.5	Outcome2	4.1	2.26	3045.75	Yes		-1.8401283503208798				ShowResult	Mixed
58.0	3	62.802	0.019	1172.197	2.26	1.13	8.3375	2.037	955.0	1.5	Outcome2	4.1	2.26	3045.75	Yes		-1.8401283503208798				ISITrial	Mixed
58.0	3	67.934	0.03	1177.329	2.26	1.13	8.3375	2.678	955.0	1.5	Outcome2	4.1	2.26	3045.75	Yes	2{-2}2{-2}	-1.8401283503208798	2.678	70.612	548.0	TrialHappiness	Mixed
58.0	3	71.946	4.012	1181.341	2.26	1.13	8.3375	4.183	955.0	1.5	Outcome2	4.1	2.26	3045.75	Yes		-1.8401283503208798				ISIRate	Mixed
59.0	3	76.159	0.03	1185.554	0.0	0.0	8.3375	3.0	955.0	2.0	Certain	4.3	-4.58	0.0	No	4.0	8.87542468856172	2.139	78.298		GetAnswer	Mixed
59.0	3	78.315	0.017	1187.71	0.0	0.0	8.3375	4.0	955.0	2.0	Certain	4.3	-4.58	0.0	No		8.87542468856172				ShowChoice	Mixed
59.0	3	82.327	0.012	1191.722	0.0	0.0	8.3375	1.0	955.0	2.0	Certain	4.3	-4.58	0.0	No		8.87542468856172				ShowResult	Mixed
59.0	3	83.347	0.02	1192.742	0.0	0.0	8.3375	5.064	955.0	2.0	Certain	4.3	-4.58	0.0	No		8.87542468856172				ISITrial	Mixed
60.0	3	88.429	0.018	1197.824	13.1	1.88	9.975	3.0	955.0	2.22	Outcome2	3.76	13.1	3562.5	Yes	2.0	9.336353340883349	1.294	89.723		GetAnswer	Loss
60.0	3	89.75	0.027	1199.145	13.1	1.88	9.975	4.0	955.0	2.22	Outcome2	3.76	13.1	3562.5	Yes		9.336353340883349				ShowChoice	Loss
60.0	3	93.762	0.012	1203.157	13.1	1.88	9.975	1.0	955.0	2.22	Outcome2	3.76	13.1	3562.5	Yes		9.336353340883349				ShowResult	Loss
60.0	3	94.781	0.019	1204.176	13.1	1.88	9.975	8.0	955.0	2.22	Outcome2	3.76	13.1	3562.5	Yes		9.336353340883349				ISITrial	Loss
60.0	3	106.383	0.016	1215.778	13.1	1.88	9.975	3.975	955.0	2.22	Outcome2	3.76	13.1	3562.5	Yes		9.336353340883349			568.0	TrialHappiness	Loss
60.0	3	110.395	4.012	1219.79	13.1	1.88	9.975	6.25	955.0	2.22	Outcome2	3.76	13.1	3562.5	Yes		9.336353340883349				ISIRate	Loss
61.0	3	116.664	0.019	1226.059	-4.0	-4.0	9.475	3.0	955.0	1.5	Certain	0.1	-9.36	0.0	No	4.0	9.45753114382786	1.931	118.595		GetAnswer	Mixed
61.0	3	118.62	0.025	1228.015	-4.0	-4.0	9.475	4.0	955.0	1.5	Certain	0.1	-9.36	0.0	No		9.45753114382786				ShowChoice	Mixed
61.0	3	122.632	0.012	1232.027	-4.0	-4.0	9.475	1.0	955.0	1.5	Certain	0.1	-9.36	0.0	No		9.45753114382786				ShowResult	Mixed
61.0	3	123.651	0.019	1233.046	-4.0	-4.0	9.475	4.586	955.0	1.5	Certain	0.1	-9.36	0.0	No		9.45753114382786				ISITrial	Mixed
62.0	3	128.265	0.028	1237.66	-1.5	-6.0	9.2875	3.0	955.0	0.2	Outcome2	-11.4	-1.5	3748.75	Yes	2.0	9.895809739524351	2.58	130.845		GetAnswer	Mixed
62.0	3	130.856	0.011	1240.251	-1.5	-6.0	9.2875	4.0	955.0	0.2	Outcome2	-11.4	-1.5	3748.75	Yes		9.895809739524351				ShowChoice	Mixed
62.0	3	134.868	0.012	1244.263	-1.5	-6.0	9.2875	1.0	955.0	0.2	Outcome2	-11.4	-1.5	3748.75	Yes		9.895809739524351				ShowResult	Mixed
62.0	3	135.888	0.02	1245.283	-1.5	-6.0	9.2875	5.212	955.0	0.2	Outcome2	-11.4	-1.5	3748.75	Yes		9.895809739524351				ISITrial	Mixed
62.0	3	144.898	0.029	1254.293	-1.5	-6.0	9.2875	0.633	955.0	0.2	Outcome2	-11.4	-1.5	3748.75	Yes		9.895809739524351			532.0	TrialHappiness	Mixed
62.0	3	148.91	4.012	1258.305	-1.5	-6.0	9.2875	6.995	955.0	0.2	Outcome2	-11.4	-1.5	3748.75	Yes		9.895809739524351				ISIRate	Mixed
63.0	3	155.931	0.026	1265.326	11.5	0.28	10.725	3.0	955.0	2.8	Outcome1	11.5	0.55	0.0	No		10.945639864099698				GetAnswer	Loss
63.0	3	158.957	0.026	1268.352	11.5	0.28	10.725	4.0	955.0	2.8	Outcome1	11.5	0.55	0.0	No		10.945639864099698				ShowChoice	Loss
63.0	3	162.969	0.012	1272.364	11.5	0.28	10.725	1.0	955.0	2.8	Outcome1	11.5	0.55	0.0	No		10.945639864099698				ShowResult	Loss
63.0	3	163.989	0.02	1273.384	11.5	0.28	10.725	5.595	955.0	2.8	Outcome1	11.5	0.55	0.0	No		10.945639864099698				ISITrial	Loss
64.0	3	169.606	0.022	1279.001	7.3	1.0	11.6375	3.0	955.0	2.48	Outcome2	-4.12	7.3	0.0	No	2.0	11.424688561721402	2.267	171.873		GetAnswer	Gain
64.0	3	171.896	0.023	1281.291	7.3	1.0	11.6375	4.0	955.0	2.48	Outcome2	-4.12	7.3	0.0	No		11.424688561721402				ShowChoice	Gain
64.0	3	175.908	0.012	1285.303	7.3	1.0	11.6375	1.0	955.0	2.48	Outcome2	-4.12	7.3	0.0	No		11.424688561721402				ShowResult	Gain
64.0	3	176.928	0.02	1286.323	7.3	1.0	11.6375	5.47	955.0	2.48	Outcome2	-4.12	7.3	0.0	No		11.424688561721402				ISITrial	Gain
65.0	3	182.427	0.029	1291.822	4.79	2.4	12.2363	3.0	955.0	2.0	Outcome2	6.9	4.79	2996.75	Yes	2.0	-2.109758399396	1.432	183.859		GetAnswer	Gain
65.0	3	183.882	0.023	1293.277	4.79	2.4	12.2363	4.0	955.0	2.0	Outcome2	6.9	4.79	2996.75	Yes		-2.109758399396				ShowChoice	Gain
65.0	3	187.894	0.012	1297.289	4.79	2.4	12.2363	1.0	955.0	2.0	Outcome2	6.9	4.79	2996.75	Yes		-2.109758399396				ShowResult	Gain
65.0	3	188.913	0.019	1298.308	4.79	2.4	12.2363	3.344	955.0	2.0	Outcome2	6.9	4.79	2996.75	Yes		-2.109758399396				ISITrial	Gain
65.0	3	195.299	0.028	1304.694	4.79	2.4	12.2363	0.843	955.0	2.0	Outcome2	6.9	4.79	2996.75	Yes		-2.109758399396			552.0	TrialHappiness	Gain
65.0	3	199.311	4.012	1308.706	4.79	2.4	12.2363	3.987	955.0	2.0	Outcome2	6.9	4.79	2996.75	Yes		-2.109758399396				ISIRate	Gain
66.0	3	203.323	0.025	1312.718	0.0	0.0	12.2363	3.0	955.0	2.0	Certain	-1.77	0.3	0.0	No	4.0	-2.06851642129105	1.822	205.145		GetAnswer	Mixed
66.0	3	205.162	0.017	1314.557	0.0	0.0	12.2363	4.0	955.0	2.0	Certain	-1.77	0.3	0.0	No		-2.06851642129105				ShowChoice	Mixed
66.0	3	209.174	0.012	1318.569	0.0	0.0	12.2363	1.0	955.0	2.0	Certain	-1.77	0.3	0.0	No		-2.06851642129105				ShowResult	Mixed
66.0	3	210.194	0.02	1319.589	0.0	0.0	12.2363	3.959	955.0	2.0	Certain	-1.77	0.3	0.0	No		-2.06851642129105				ISITrial	Mixed
67.0	3	214.172	0.019	1323.567	5.8	5.8	12.9613	3.0	955.0	3.16	Certain	11.59	13.7	2918.5	Yes	4.0	-2.1065496413741003	1.724	215.896		GetAnswer	Loss
67.0	3	215.911	0.015	1325.306	5.8	5.8	12.9613	4.0	955.0	3.16	Certain	11.59	13.7	2918.5	Yes		-2.1065496413741003				ShowChoice	Loss
67.0	3	219.923	0.012	1329.318	5.8	5.8	12.9613	1.0	955.0	3.16	Certain	11.59	13.7	2918.5	Yes		-2.1065496413741003				ShowResult	Loss
67.0	3	220.943	0.02	1330.338	5.8	5.8	12.9613	4.199	955.0	3.16	Certain	11.59	13.7	2918.5	Yes		-2.1065496413741003				ISITrial	Loss
67.0	3	228.098	0.025	1337.493	5.8	5.8	12.9613	2.798	955.0	3.16	Certain	11.59	13.7	2918.5	Yes		-2.1065496413741003			584.0	TrialHappiness	Loss
67.0	3	232.11	4.012	1341.505	5.8	5.8	12.9613	3.674	955.0	3.16	Certain	11.59	13.7	2918.5	Yes		-2.1065496413741003				ISIRate	Loss
68.0	3	235.804	0.02	1345.199	11.1	-0.66	14.3488	3.0	955.0	2.22	Outcome1	11.1	-1.31	0.0	No	2.0	12.4122310305776	1.896	237.7		GetAnswer	Loss
68.0	3	237.726	0.026	1347.121	11.1	-0.66	14.3488	4.0	955.0	2.22	Outcome1	11.1	-1.31	0.0	No		12.4122310305776				ShowChoice	Loss
68.0	3	241.738	0.012	1351.133	11.1	-0.66	14.3488	1.0	955.0	2.22	Outcome1	11.1	-1.31	0.0	No		12.4122310305776				ShowResult	Loss
68.0	3	242.758	0.02	1352.153	11.1	-0.66	14.3488	2.185	955.0	2.22	Outcome1	11.1	-1.31	0.0	No		12.4122310305776				ISITrial	Loss
69.0	3	244.965	0.022	1354.36	-1.36	-1.36	14.1788	3.0	955.0	4.2	Certain	10.1	-2.73	0.0	No	4.0	12.832389580973999	2.19	247.155		GetAnswer	Gain
69.0	3	247.171	0.016	1356.566	-1.36	-1.36	14.1788	4.0	955.0	4.2	Certain	10.1	-2.73	0.0	No		12.832389580973999				ShowChoice	Gain
69.0	3	251.183	0.012	1360.578	-1.36	-1.36	14.1788	1.0	955.0	4.2	Certain	10.1	-2.73	0.0	No		12.832389580973999				ShowResult	Gain
69.0	3	252.203	0.02	1361.598	-1.36	-1.36	14.1788	2.0	955.0	4.2	Certain	10.1	-2.73	0.0	No		12.832389580973999				ISITrial	Gain
70.0	3	254.226	0.023	1363.621	8.1	1.0	15.1913	3.0	955.0	4.2	Outcome1	8.1	-5.15	3651.25	Yes	2.0	13.2525481313703	1.763	255.989		GetAnswer	Gain
70.0	3	256.015	0.026	1365.41	8.1	1.0	15.1913	4.0	955.0	4.2	Outcome1	8.1	-5.15	3651.25	Yes		13.2525481313703				ShowChoice	Gain
70.0	3	260.027	0.012	1369.422	8.1	1.0	15.1913	1.0	955.0	4.2	Outcome1	8.1	-5.15	3651.25	Yes		13.2525481313703				ShowResult	Gain
70.0	3	261.046	0.019	1370.441	8.1	1.0	15.1913	2.623	955.0	4.2	Outcome1	8.1	-5.15	3651.25	Yes		13.2525481313703				ISITrial	Gain
70.0	3	267.365	0.026	1376.76	8.1	1.0	15.1913	1.881	955.0	4.2	Outcome1	8.1	-5.15	3651.25	Yes		13.2525481313703			544.0	TrialHappiness	Gain
70.0	3	271.377	4.012	1380.772	8.1	1.0	15.1913	6.605	955.0	4.2	Outcome1	8.1	-5.15	3651.25	Yes		13.2525481313703				ISIRate	Gain
71.0	3	278.014	0.032	1387.409	0.0	0.0	15.1913	3.0	955.0	1.68	Certain	6.5	-7.85	0.0	No	4.0	14.352208380520999	1.725	279.739		GetAnswer	Gain
71.0	3	279.752	0.013	1389.147	0.0	0.0	15.1913	4.0	955.0	1.68	Certain	6.5	-7.85	0.0	No		14.352208380520999				ShowChoice	Gain
71.0	3	283.764	0.012	1393.159	0.0	0.0	15.1913	1.0	955.0	1.68	Certain	6.5	-7.85	0.0	No		14.352208380520999				ShowResult	Gain
71.0	3	284.784	0.02	1394.179	0.0	0.0	15.1913	5.499	955.0	1.68	Certain	6.5	-7.85	0.0	No		14.352208380520999				ISITrial	Gain
72.0	3	290.301	0.018	1399.696	5.29	5.29	15.8525	3.0	955.0	2.0	Certain	10.58	12.9	3080.5	Yes	4.0	-2.32087580218951	1.601	291.902		GetAnswer	Loss
72.0	3	291.922	0.02	1401.317	5.29	5.29	15.8525	4.0	955.0	2.0	Certain	10.58	12.9	3080.5	Yes		-2.32087580218951				ShowChoice	Loss
72.0	3	295.934	0.012	1405.329	5.29	5.29	15.8525	1.0	955.0	2.0	Certain	10.58	12.9	3080.5	Yes		-2.32087580218951				ShowResult	Loss
72.0	3	296.954	0.02	1406.349	5.29	5.29	15.8525	5.672	955.0	2.0	Certain	10.58	12.9	3080.5	Yes		-2.32087580218951				ISITrial	Loss
72.0	3	305.747	0.029	1415.142	5.29	5.29	15.8525	2.397	955.0	2.0	Certain	10.58	12.9	3080.5	Yes		-2.32087580218951			576.0	TrialHappiness	Loss
72.0	3	309.759	4.012	1419.154	5.29	5.29	15.8525	4.322	955.0	2.0	Certain	10.58	12.9	3080.5	Yes		-2.32087580218951				ISIRate	Loss
73.0	3	314.105	0.024	1423.5	-2.0	-2.0	15.6025	3.0	955.0	2.22	Certain	5.1	-9.64	0.0	No	4.0	14.7395243488109	2.187	316.292		GetAnswer	Gain
73.0	3	316.312	0.02	1425.707	-2.0	-2.0	15.6025	4.0	955.0	2.22	Certain	5.1	-9.64	0.0	No		14.7395243488109				ShowChoice	Gain
73.0	3	320.324	0.012	1429.719	-2.0	-2.0	15.6025	1.0	955.0	2.22	Certain	5.1	-9.64	0.0	No		14.7395243488109				ShowResult	Gain
73.0	3	321.344	0.02	1430.739	-2.0	-2.0	15.6025	4.616	955.0	2.22	Certain	5.1	-9.64	0.0	No		14.7395243488109				ISITrial	Gain
74.0	3	325.991	0.031	1435.386	0.0	0.0	15.6025	3.0	955.0	2.8	Certain	7.5	-7.67	3056.25	Yes	4.0	15.1687429218573	1.599	327.59		GetAnswer	Gain
74.0	3	327.612	0.021	1437.007	0.0	0.0	15.6025	4.0	955.0	2.8	Certain	7.5	-7.67	3056.25	Yes		15.1687429218573				ShowChoice	Gain
74.0	3	331.624	0.012	1441.019	0.0	0.0	15.6025	1.0	955.0	2.8	Certain	7.5	-7.67	3056.25	Yes		15.1687429218573				ShowResult	Gain
74.0	3	332.644	0.02	1442.039	0.0	0.0	15.6025	3.909	955.0	2.8	Certain	7.5	-7.67	3056.25	Yes		15.1687429218573				ISITrial	Gain
74.0	3	339.648	0.019	1449.043	0.0	0.0	15.6025	2.047	955.0	2.8	Certain	7.5	-7.67	3056.25	Yes	4{-4}	15.1687429218573	2.047	341.695	472.0	TrialHappiness	Gain
74.0	3	343.66	4.012	1453.055	0.0	0.0	15.6025	4.225	955.0	2.8	Certain	7.5	-7.67	3056.25	Yes		15.1687429218573				ISIRate	Gain
75.0	3	347.907	0.022	1457.302	9.78	4.89	16.825	3.0	955.0	1.68	Outcome1	9.78	12.5	0.0	No	2.0	-2.72338618346546	2.168	350.075		GetAnswer	Loss
75.0	3	350.096	0.021	1459.491	9.78	4.89	16.825	4.0	955.0	1.68	Outcome1	9.78	12.5	0.0	No		-2.72338618346546				ShowChoice	Loss
75.0	3	354.108	0.012	1463.503	9.78	4.89	16.825	1.0	955.0	1.68	Outcome1	9.78	12.5	0.0	No		-2.72338618346546				ShowResult	Loss
75.0	3	355.128	0.02	1464.523	9.78	4.89	16.825	4.979	955.0	1.68	Outcome1	9.78	12.5	0.0	No		-2.72338618346546				ISITrial	Loss
76.0	3	360.126	0.019	1469.521	0.0	0.0	16.825	3.0	955.0	2.8	Certain	9.5	-8.41	0.0	No	4.0	17.911664779162	1.784	361.91		GetAnswer	Gain
76.0	3	361.932	0.022	1471.327	0.0	0.0	16.825	4.0	955.0	2.8	Certain	9.5	-8.41	0.0	No		17.911664779162				ShowChoice	Gain
76.0	3	365.944	0.012	1475.339	0.0	0.0	16.825	1.0	955.0	2.8	Certain	9.5	-8.41	0.0	No		17.911664779162				ShowResult	Gain
76.0	3	366.964	0.02	1476.359	0.0	0.0	16.825	3.931	955.0	2.8	Certain	9.5	-8.41	0.0	No		17.911664779162				ISITrial	Gain
77.0	3	370.926	0.031	1480.321	0.0	0.0	16.825	3.0	955.0	3.16	Certain	9.7	-8.76	4000.0	Yes	4.0	18.4586636466591	2.589	373.515		GetAnswer	Gain
77.0	3	373.533	0.018	1482.928	0.0	0.0	16.825	4.0	955.0	3.16	Certain	9.7	-8.76	4000.0	Yes		18.4586636466591				ShowChoice	Gain
77.0	3	377.545	0.012	1486.94	0.0	0.0	16.825	1.0	955.0	3.16	Certain	9.7	-8.76	4000.0	Yes		18.4586636466591				ShowResult	Gain
77.0	3	378.565	0.02	1487.96	0.0	0.0	16.825	7.022	955.0	3.16	Certain	9.7	-8.76	4000.0	Yes		18.4586636466591				ISITrial	Gain
77.0	3	389.632	0.029	1499.027	0.0	0.0	16.825	2.775	955.0	3.16	Certain	9.7	-8.76	4000.0	Yes		18.4586636466591			604.0	TrialHappiness	Gain
77.0	3	393.644	4.012	1503.039	0.0	0.0	16.825	8.0	955.0	3.16	Certain	9.7	-8.76	4000.0	Yes		18.4586636466591				ISIRate	Gain
78.0	3	401.668	0.024	1511.063	8.7	0.0	17.9125	3.0	955.0	1.82	Outcome1	8.7	-8.06	0.0	No	2.0	16.7633069082673	2.15	403.818		GetAnswer	Gain
78.0	3	403.841	0.023	1513.236	8.7	0.0	17.9125	4.0	955.0	1.82	Outcome1	8.7	-8.06	0.0	No		16.7633069082673				ShowChoice	Gain
78.0	3	407.853	0.012	1517.248	8.7	0.0	17.9125	1.0	955.0	1.82	Outcome1	8.7	-8.06	0.0	No		16.7633069082673				ShowResult	Gain
78.0	3	408.873	0.02	1518.268	8.7	0.0	17.9125	2.078	955.0	1.82	Outcome1	8.7	-8.06	0.0	No		16.7633069082673				ISITrial	Gain
79.0	3	410.979	0.028	1520.374	-1.0	-1.0	17.7875	3.0	955.0	1.2	Certain	-0.1	-2.46	2729.5	Yes	4.0	-2.35758776896942	2.413	413.392		GetAnswer	Mixed
79.0	3	413.403	0.011	1522.798	-1.0	-1.0	17.7875	4.0	955.0	1.2	Certain	-0.1	-2.46	2729.5	Yes		-2.35758776896942				ShowChoice	Mixed
79.0	3	417.415	0.012	1526.81	-1.0	-1.0	17.7875	1.0	955.0	1.2	Certain	-0.1	-2.46	2729.5	Yes		-2.35758776896942				ShowResult	Mixed
79.0	3	418.435	0.02	1527.83	-1.0	-1.0	17.7875	3.829	955.0	1.2	Certain	-0.1	-2.46	2729.5	Yes		-2.35758776896942				ISITrial	Mixed
79.0	3	425.038	0.029	1534.433	-1.0	-1.0	17.7875	2.648	955.0	1.2	Certain	-0.1	-2.46	2729.5	Yes	2{-2}2{-2}2{-2}	-2.35758776896942	2.648	427.686	608.0	TrialHappiness	Mixed
79.0	3	429.05	4.012	1538.445	-1.0	-1.0	17.7875	2.918	955.0	1.2	Certain	-0.1	-2.46	2729.5	Yes		-2.35758776896942				ISIRate	Mixed
80.0	3	431.992	0.024	1541.387	-9.0	-9.0	16.6625	3.0	955.0	0.52	Certain	-0.9	-18.39	0.0	No	4.0	17.4903737259343	2.208	434.2		GetAnswer	Mixed
80.0	3	434.215	0.015	1543.61	-9.0	-9.0	16.6625	4.0	955.0	0.52	Certain	-0.9	-18.39	0.0	No		17.4903737259343				ShowChoice	Mixed
80.0	3	438.227	0.012	1547.622	-9.0	-9.0	16.6625	1.0	955.0	0.52	Certain	-0.9	-18.39	0.0	No		17.4903737259343				ShowResult	Mixed
80.0	3	439.247	0.02	1548.642	-9.0	-9.0	16.6625	3.336	955.0	0.52	Certain	-0.9	-18.39	0.0	No		17.4903737259343				ISITrial	Mixed
81.0	3	442.607	0.024	1552.002	5.69	2.84	17.3738	3.0	955.0	4.2	Outcome2	8.1	5.69	3923.75	Yes	2.0	-2.40722914307286	2.354	444.961		GetAnswer	Gain
81.0	3	444.981	0.02	1554.376	5.69	2.84	17.3738	4.0	955.0	4.2	Outcome2	8.1	5.69	3923.75	Yes		-2.40722914307286				ShowChoice	Gain
81.0	3	449.009	0.028	1558.404	5.69	2.84	17.3738	1.0	955.0	4.2	Outcome2	8.1	5.69	3923.75	Yes		-2.40722914307286				ShowResult	Gain
81.0	3	450.029	0.02	1559.424	5.69	2.84	17.3738	3.919	955.0	4.2	Outcome2	8.1	5.69	3923.75	Yes		-2.40722914307286				ISITrial	Gain
81.0	3	457.919	0.021	1567.314	5.69	2.84	17.3738	0.894	955.0	4.2	Outcome2	8.1	5.69	3923.75	Yes		-2.40722914307286			568.0	TrialHappiness	Gain
81.0	3	461.932	4.013	1571.327	5.69	2.84	17.3738	7.695	955.0	4.2	Outcome2	8.1	5.69	3923.75	Yes		-2.40722914307286				ISIRate	Gain
	3	469.655	0.028	1579.05				3.0													CurrentEarnings	
	3	472.68	0.025	1582.075				-0.001								{SPACE}		172.419	645.099		Goodbye	
