trial_number	block	onset	onset_delay	onset_unadjusted	amount_change	certain_amount	current_amount	duration	mood_target	multiplier	outcome	outcome1_amount	outcome2_amount	question_duration	rating	response	rpe	rt	rt_time	slider_response	trial_phase	trial_type
	0	-43.12	0.039	35.625				-0.001								{SPACE}		7.166	-35.954		Welcome	
	0	-35.923	0.031	42.822				5.0													LifeHappyPreview	
	0	-30.891	0.032	47.854				1.489												904.0	LifeHappiness	
	0	-14.53	0.016	64.215				4.0													BlockHappyPreview	
	0	-10.515	0.015	68.23				1.672												840.0	BlockStartHappiness	
	0	-3.184	0.018	75.561				-0.001								5.0					ScanWait	
	1	0.015	0.015	78.76				10.0													GetReady	
1.0	1	10.045	0.03	88.79	7.5	2.78	10.9375	3.0	955.0	2.8	Outcome2	5.55	7.5	0.0	No	2.0	1.95356738391846	1.24	11.285		GetAnswer	Gain
1.0	1	11.311	0.026	90.056	7.5	2.78	10.9375	4.0	955.0	2.8	Outcome2	5.55	7.5	0.0	No		1.95356738391846				ShowChoice	Gain
1.0	1	15.326	0.015	94.071	7.5	2.78	10.9375	1.0	955.0	2.8	Outcome2	5.55	7.5	0.0	No		1.95356738391846				ShowResult	Gain
1.0	1	16.343	0.017	95.088	7.5	2.78	10.9375	2.431	955.0	2.8	Outcome2	5.55	7.5	0.0	No		1.95356738391846				ISITrial	Gain
2.0	1	18.792	0.018	97.537	3.81	3.81	11.4137	3.0	955.0	3.16	Certain	7.62	9.7	0.0	No	4.0	2.0838052095130197	2.781	21.573		GetAnswer	Gain
2.0	1	21.591	0.018	100.336	3.81	3.81	11.4137	4.0	955.0	3.16	Certain	7.62	9.7	0.0	No		2.0838052095130197				ShowChoice	Gain
2.0	1	25.606	0.015	104.351	3.81	3.81	11.4137	1.0	955.0	3.16	Certain	7.62	9.7	0.0	No		2.0838052095130197				ShowResult	Gain
2.0	1	26.622	0.016	105.367	3.81	3.81	11.4137	4.568	955.0	3.16	Certain	7.62	9.7	0.0	No		2.0838052095130197				ISITrial	Gain
3.0	1	31.221	0.031	109.966	8.1	2.94	12.4262	3.0	955.0	4.2	Outcome1	8.1	5.89	2868.0	Yes	2.0	2.21404303510759	1.987	33.208		GetAnswer	Gain
3.0	1	33.22	0.012	111.965	8.1	2.94	12.4262	4.0	955.0	4.2	Outcome1	8.1	5.89	2868.0	Yes		2.21404303510759				ShowChoice	Gain
3.0	1	37.235	0.015	115.98	8.1	2.94	12.4262	1.0	955.0	4.2	Outcome1	8.1	5.89	2868.0	Yes		2.21404303510759				ShowResult	Gain
3.0	1	38.252	0.017	116.997	8.1	2.94	12.4262	3.243	955.0	4.2	Outcome1	8.1	5.89	2868.0	Yes		2.21404303510759				ISITrial	Gain
3.0	1	44.399	0.014	123.144	8.1	2.94	12.4262	1.856	955.0	4.2	Outcome1	8.1	5.89	2868.0	Yes		2.21404303510759			872.0	TrialHappiness	Gain
3.0	1	48.415	4.016	127.16	8.1	2.94	12.4262	3.472	955.0	4.2	Outcome1	8.1	5.89	2868.0	Yes		2.21404303510759				ISIRate	Gain
4.0	1	51.914	0.027	130.659	4.9	1.55	13.0387	3.0	955.0	2.0	Outcome1	4.9	3.1	0.0	No	2.0	1.80067950169875	2.264	54.178		GetAnswer	Gain
4.0	1	54.196	0.018	132.941	4.9	1.55	13.0387	4.0	955.0	2.0	Outcome1	4.9	3.1	0.0	No		1.80067950169875				ShowChoice	Gain
4.0	1	58.211	0.015	136.956	4.9	1.55	13.0387	1.0	955.0	2.0	Outcome1	4.9	3.1	0.0	No		1.80067950169875				ShowResult	Gain
4.0	1	59.228	0.017	137.973	4.9	1.55	13.0387	2.011	955.0	2.0	Outcome1	4.9	3.1	0.0	No		1.80067950169875				ISITrial	Gain
5.0	1	61.26	0.021	140.005	0.92	1.0	13.1537	3.0	955.0	0.66	Outcome1	0.92	1.3	2582.5	Yes		-0.37721781804454496				GetAnswer	Mixed
5.0	1	64.276	0.016	143.021	0.92	1.0	13.1537	4.0	955.0	0.66	Outcome1	0.92	1.3	2582.5	Yes		-0.37721781804454496				ShowChoice	Mixed
5.0	1	68.291	0.015	147.036	0.92	1.0	13.1537	1.0	955.0	0.66	Outcome1	0.92	1.3	2582.5	Yes		-0.37721781804454496				ShowResult	Mixed
5.0	1	69.308	0.017	148.053	0.92	1.0	13.1537	5.129	955.0	0.66	Outcome1	0.92	1.3	2582.5	Yes		-0.37721781804454496				ISITrial	Mixed
5.0	1	77.055	0.017	155.8	0.92	1.0	13.1537	1.956	955.0	0.66	Outcome1	0.92	1.3	2582.5	Yes		-0.37721781804454496			832.0	TrialHappiness	Mixed
5.0	1	81.07	4.015	159.815	0.92	1.0	13.1537	2.33	955.0	0.66	Outcome1	0.92	1.3	2582.5	Yes		-0.37721781804454496				ISIRate	Mixed
6.0	1	83.419	0.019	162.164	7.1	2.22	14.0412	3.0	955.0	2.22	Outcome1	7.1	4.43	0.0	No	2.0	2.6681766704416803	1.319	84.738		GetAnswer	Gain
6.0	1	84.752	0.014	163.497	7.1	2.22	14.0412	4.0	955.0	2.22	Outcome1	7.1	4.43	0.0	No		2.6681766704416803				ShowChoice	Gain
6.0	1	88.767	0.015	167.512	7.1	2.22	14.0412	1.0	955.0	2.22	Outcome1	7.1	4.43	0.0	No		2.6681766704416803				ShowResult	Gain
6.0	1	89.784	0.017	168.529	7.1	2.22	14.0412	6.232	955.0	2.22	Outcome1	7.1	4.43	0.0	No		2.6681766704416803				ISITrial	Gain
7.0	1	96.032	0.016	174.777	1.0	1.0	14.1662	3.0	955.0	0.3	Certain	-0.11	2.7	0.0	No	4.0	2.8074745186862997	1.398	97.43		GetAnswer	Mixed
7.0	1	97.448	0.018	176.193	1.0	1.0	14.1662	4.0	955.0	0.3	Certain	-0.11	2.7	0.0	No		2.8074745186862997				ShowChoice	Mixed
7.0	1	101.463	0.015	180.208	1.0	1.0	14.1662	1.0	955.0	0.3	Certain	-0.11	2.7	0.0	No		2.8074745186862997				ShowResult	Mixed
7.0	1	102.479	0.016	181.224	1.0	1.0	14.1662	2.305	955.0	0.3	Certain	-0.11	2.7	0.0	No		2.8074745186862997				ISITrial	Mixed
8.0	1	104.812	0.028	183.557	10.33	5.16	15.4574	3.0	955.0	2.0	Outcome1	10.33	10.9	3112.5	Yes	2.0	-0.570592676481691	1.203	106.015		GetAnswer	Loss
8.0	1	106.028	0.013	184.773	10.33	5.16	15.4574	4.0	955.0	2.0	Outcome1	10.33	10.9	3112.5	Yes		-0.570592676481691				ShowChoice	Loss
8.0	1	110.043	0.015	188.788	10.33	5.16	15.4574	1.0	955.0	2.0	Outcome1	10.33	10.9	3112.5	Yes		-0.570592676481691				ShowResult	Loss
8.0	1	111.06	0.017	189.805	10.33	5.16	15.4574	3.506	955.0	2.0	Outcome1	10.33	10.9	3112.5	Yes		-0.570592676481691				ISITrial	Loss
8.0	1	117.724	0.02	196.469	10.33	5.16	15.4574	1.457	955.0	2.0	Outcome1	10.33	10.9	3112.5	Yes		-0.570592676481691			832.0	TrialHappiness	Loss
8.0	1	121.739	4.015	200.484	10.33	5.16	15.4574	4.45	955.0	2.0	Outcome1	10.33	10.9	3112.5	Yes		-0.570592676481691				ISIRate	Loss
9.0	1	126.205	0.016	204.95	13.3	5.11	17.1199	3.0	955.0	2.48	Outcome1	13.3	10.21	0.0	No	2.0	3.08607021517554	1.025	127.23		GetAnswer	Loss
9.0	1	127.254	0.024	205.999	13.3	5.11	17.1199	4.0	955.0	2.48	Outcome1	13.3	10.21	0.0	No		3.08607021517554				ShowChoice	Loss
9.0	1	131.269	0.015	210.014	13.3	5.11	17.1199	1.0	955.0	2.48	Outcome1	13.3	10.21	0.0	No		3.08607021517554				ShowResult	Loss
9.0	1	132.286	0.017	211.031	13.3	5.11	17.1199	2.0	955.0	2.48	Outcome1	13.3	10.21	0.0	No		3.08607021517554				ISITrial	Loss
10.0	1	134.302	0.016	213.047	6.56	6.56	17.9399	3.0	955.0	3.16	Certain	13.7	13.11	4000.0	Yes	4.0	-0.5938089845224611	1.309	135.611		GetAnswer	Loss
10.0	1	135.635	0.024	214.38	6.56	6.56	17.9399	4.0	955.0	3.16	Certain	13.7	13.11	4000.0	Yes		-0.5938089845224611				ShowChoice	Loss
10.0	1	139.65	0.015	218.395	6.56	6.56	17.9399	1.0	955.0	3.16	Certain	13.7	13.11	4000.0	Yes		-0.5938089845224611				ShowResult	Loss
10.0	1	140.666	0.016	219.411	6.56	6.56	17.9399	2.0	955.0	3.16	Certain	13.7	13.11	4000.0	Yes		-0.5938089845224611				ISITrial	Loss
10.0	1	146.697	0.015	225.442	6.56	6.56	17.9399	1.472	955.0	3.16	Certain	13.7	13.11	4000.0	Yes		-0.5938089845224611			920.0	TrialHappiness	Loss
10.0	1	150.713	4.016	229.458	6.56	6.56	17.9399	8.0	955.0	3.16	Certain	13.7	13.11	4000.0	Yes		-0.5938089845224611				ISIRate	Loss
11.0	1	158.743	0.03	237.488	12.5	5.32	19.5024	3.0	955.0	1.68	Outcome2	10.63	12.5	0.0	No	2.0	1.8697621744054398	1.648	160.391		GetAnswer	Loss
11.0	1	160.409	0.018	239.154	12.5	5.32	19.5024	4.0	955.0	1.68	Outcome2	10.63	12.5	0.0	No		1.8697621744054398				ShowChoice	Loss
11.0	1	164.425	0.016	243.17	12.5	5.32	19.5024	1.0	955.0	1.68	Outcome2	10.63	12.5	0.0	No		1.8697621744054398				ShowResult	Loss
11.0	1	165.441	0.016	244.186	12.5	5.32	19.5024	3.324	955.0	1.68	Outcome2	10.63	12.5	0.0	No		1.8697621744054398				ISITrial	Loss
12.0	1	168.79	0.025	247.535	2.1	2.1	19.7649	3.0	955.0	4.2	Certain	4.19	6.1	2618.75	Yes	4.0	1.90939977349943	1.532	170.322		GetAnswer	Gain
12.0	1	170.339	0.017	249.084	2.1	2.1	19.7649	4.0	955.0	4.2	Certain	4.19	6.1	2618.75	Yes		1.90939977349943				ShowChoice	Gain
12.0	1	174.355	0.016	253.1	2.1	2.1	19.7649	1.0	955.0	4.2	Certain	4.19	6.1	2618.75	Yes		1.90939977349943				ShowResult	Gain
12.0	1	175.371	0.016	254.116	2.1	2.1	19.7649	6.642	955.0	4.2	Certain	4.19	6.1	2618.75	Yes		1.90939977349943				ISITrial	Gain
12.0	1	184.668	0.014	263.413	2.1	2.1	19.7649	2.073	955.0	4.2	Certain	4.19	6.1	2618.75	Yes		1.90939977349943			840.0	TrialHappiness	Gain
12.0	1	188.683	4.015	267.428	2.1	2.1	19.7649	2.475	955.0	4.2	Certain	4.19	6.1	2618.75	Yes		1.90939977349943				ISIRate	Gain
13.0	1	191.182	0.024	269.927	-1.1	-3.0	19.6274	3.0	955.0	0.4	Outcome1	-1.1	-4.41	0.0	No	2.0	3.3080407701019197	1.244	192.426		GetAnswer	Mixed
13.0	1	192.448	0.022	271.193	-1.1	-3.0	19.6274	4.0	955.0	0.4	Outcome1	-1.1	-4.41	0.0	No		3.3080407701019197				ShowChoice	Mixed
13.0	1	196.464	0.016	275.209	-1.1	-3.0	19.6274	1.0	955.0	0.4	Outcome1	-1.1	-4.41	0.0	No		3.3080407701019197				ShowResult	Mixed
13.0	1	197.48	0.016	276.225	-1.1	-3.0	19.6274	3.48	955.0	0.4	Outcome1	-1.1	-4.41	0.0	No		3.3080407701019197				ISITrial	Mixed
14.0	1	200.979	0.019	279.724	9.1	2.83	20.7649	3.0	955.0	2.22	Outcome1	9.1	5.66	0.0	No	2.0	3.4382785956964903	1.418	202.397		GetAnswer	Gain
14.0	1	202.412	0.015	281.157	9.1	2.83	20.7649	4.0	955.0	2.22	Outcome1	9.1	5.66	0.0	No		3.4382785956964903				ShowChoice	Gain
14.0	1	206.427	0.015	285.172	9.1	2.83	20.7649	1.0	955.0	2.22	Outcome1	9.1	5.66	0.0	No		3.4382785956964903				ShowResult	Gain
14.0	1	207.443	0.016	286.188	9.1	2.83	20.7649	5.019	955.0	2.22	Outcome1	9.1	5.66	0.0	No		3.4382785956964903				ISITrial	Gain
15.0	1	212.491	0.029	291.236	5.3	0.86	21.4274	3.0	955.0	2.48	Outcome1	5.3	1.73	3348.5	Yes	2.0	3.56851642129105	1.49	213.981		GetAnswer	Gain
15.0	1	214.007	0.026	292.752	5.3	0.86	21.4274	4.0	955.0	2.48	Outcome1	5.3	1.73	3348.5	Yes		3.56851642129105				ShowChoice	Gain
15.0	1	218.023	0.016	296.768	5.3	0.86	21.4274	1.0	955.0	2.48	Outcome1	5.3	1.73	3348.5	Yes		3.56851642129105				ShowResult	Gain
15.0	1	219.039	0.016	297.784	5.3	0.86	21.4274	7.614	955.0	2.48	Outcome1	5.3	1.73	3348.5	Yes		3.56851642129105				ISITrial	Gain
15.0	1	230.035	0.017	308.78	5.3	0.86	21.4274	2.373	955.0	2.48	Outcome1	5.3	1.73	3348.5	Yes		3.56851642129105			832.0	TrialHappiness	Gain
15.0	1	234.051	4.016	312.796	5.3	0.86	21.4274	5.394	955.0	2.48	Outcome1	5.3	1.73	3348.5	Yes		3.56851642129105				ISIRate	Gain
16.0	1	239.465	0.02	318.21	1.0	1.0	21.5524	3.0	955.0	0.52	Certain	3.1	-0.73	0.0	No	4.0	3.83465458663647	1.286	240.751		GetAnswer	Mixed
16.0	1	240.765	0.014	319.51	1.0	1.0	21.5524	4.0	955.0	0.52	Certain	3.1	-0.73	0.0	No		3.83465458663647				ShowChoice	Mixed
16.0	1	244.78	0.015	323.525	1.0	1.0	21.5524	1.0	955.0	0.52	Certain	3.1	-0.73	0.0	No		3.83465458663647				ShowResult	Mixed
16.0	1	245.796	0.016	324.541	1.0	1.0	21.5524	3.008	955.0	0.52	Certain	3.1	-0.73	0.0	No		3.83465458663647				ISITrial	Mixed
17.0	1	248.829	0.025	327.574	6.5	1.26	22.3649	3.0	955.0	1.68	Outcome2	2.53	6.5	3041.5	Yes	2.0	3.97395243488109	0.928	249.757		GetAnswer	Gain
17.0	1	249.778	0.021	328.523	6.5	1.26	22.3649	4.0	955.0	1.68	Outcome2	2.53	6.5	3041.5	Yes		3.97395243488109				ShowChoice	Gain
17.0	1	253.794	0.016	332.539	6.5	1.26	22.3649	1.0	955.0	1.68	Outcome2	2.53	6.5	3041.5	Yes		3.97395243488109				ShowResult	Gain
17.0	1	254.81	0.016	333.555	6.5	1.26	22.3649	3.566	955.0	1.68	Outcome2	2.53	6.5	3041.5	Yes		3.97395243488109				ISITrial	Gain
17.0	1	261.458	0.024	340.203	6.5	1.26	22.3649	1.455	955.0	1.68	Outcome2	2.53	6.5	3041.5	Yes		3.97395243488109			856.0	TrialHappiness	Gain
17.0	1	265.473	4.015	344.218	6.5	1.26	22.3649	4.166	955.0	1.68	Outcome2	2.53	6.5	3041.5	Yes		3.97395243488109				ISIRate	Gain
18.0	1	269.655	0.016	348.4	13.1	4.7	24.0024	3.0	955.0	2.22	Outcome1	13.1	9.39	0.0	No	2.0	3.7055492638731597	1.016	270.671		GetAnswer	Loss
18.0	1	270.688	0.017	349.433	13.1	4.7	24.0024	4.0	955.0	2.22	Outcome1	13.1	9.39	0.0	No		3.7055492638731597				ShowChoice	Loss
18.0	1	274.703	0.015	353.448	13.1	4.7	24.0024	1.0	955.0	2.22	Outcome1	13.1	9.39	0.0	No		3.7055492638731597				ShowResult	Loss
18.0	1	275.719	0.016	354.464	13.1	4.7	24.0024	6.787	955.0	2.22	Outcome1	13.1	9.39	0.0	No		3.7055492638731597				ISITrial	Loss
19.0	1	282.534	0.028	361.279	10.7	3.44	25.3399	3.0	955.0	1.82	Outcome1	10.7	6.88	0.0	No	2.0	3.8176670441676097	1.665	284.199		GetAnswer	Loss
19.0	1	284.217	0.018	362.962	10.7	3.44	25.3399	4.0	955.0	1.82	Outcome1	10.7	6.88	0.0	No		3.8176670441676097				ShowChoice	Loss
19.0	1	288.232	0.015	366.977	10.7	3.44	25.3399	1.0	955.0	1.82	Outcome1	10.7	6.88	0.0	No		3.8176670441676097				ShowResult	Loss
19.0	1	289.248	0.016	367.993	10.7	3.44	25.3399	2.0	955.0	1.82	Outcome1	10.7	6.88	0.0	No		3.8176670441676097				ISITrial	Loss
20.0	1	291.264	0.016	370.009	4.66	4.66	25.9224	3.0	955.0	3.6	Certain	9.31	9.9	2921.25	Yes	4.0	-0.589090222725557	1.621	292.885		GetAnswer	Gain
20.0	1	292.897	0.012	371.642	4.66	4.66	25.9224	4.0	955.0	3.6	Certain	9.31	9.9	2921.25	Yes		-0.589090222725557				ShowChoice	Gain
20.0	1	296.912	0.015	375.657	4.66	4.66	25.9224	1.0	955.0	3.6	Certain	9.31	9.9	2921.25	Yes		-0.589090222725557				ShowResult	Gain
20.0	1	297.928	0.016	376.673	4.66	4.66	25.9224	8.0	955.0	3.6	Certain	9.31	9.9	2921.25	Yes		-0.589090222725557				ISITrial	Gain
20.0	1	308.891	0.028	387.636	4.66	4.66	25.9224	1.556	955.0	3.6	Certain	9.31	9.9	2921.25	Yes		-0.589090222725557			840.0	TrialHappiness	Gain
20.0	1	312.907	4.016	391.652	4.66	4.66	25.9224	3.685	955.0	3.6	Certain	9.31	9.9	2921.25	Yes		-0.589090222725557				ISIRate	Gain
21.0	1	316.622	0.03	395.367	4.3	4.3	26.4599	3.0	955.0	2.0	Certain	8.59	12.9	0.0	No	4.0	4.31370328425821	1.589	318.211		GetAnswer	Loss
21.0	1	318.238	0.027	396.983	4.3	4.3	26.4599	4.0	955.0	2.0	Certain	8.59	12.9	0.0	No		4.31370328425821				ShowChoice	Loss
21.0	1	322.253	0.015	400.998	4.3	4.3	26.4599	1.0	955.0	2.0	Certain	8.59	12.9	0.0	No		4.31370328425821				ShowResult	Loss
21.0	1	323.27	0.017	402.015	4.3	4.3	26.4599	3.555	955.0	2.0	Certain	8.59	12.9	0.0	No		4.31370328425821				ISITrial	Loss
22.0	1	326.852	0.027	405.597	3.63	1.82	26.9137	3.0	955.0	2.0	Outcome2	4.3	3.63	3219.5	Yes	2.0	-0.674216685541714	1.656	328.508		GetAnswer	Mixed
22.0	1	328.535	0.027	407.28	3.63	1.82	26.9137	4.0	955.0	2.0	Outcome2	4.3	3.63	3219.5	Yes		-0.674216685541714				ShowChoice	Mixed
22.0	1	332.55	0.015	411.295	3.63	1.82	26.9137	1.0	955.0	2.0	Outcome2	4.3	3.63	3219.5	Yes		-0.674216685541714				ShowResult	Mixed
22.0	1	333.566	0.016	412.311	3.63	1.82	26.9137	6.793	955.0	2.0	Outcome2	4.3	3.63	3219.5	Yes		-0.674216685541714				ISITrial	Mixed
22.0	1	343.629	0.029	422.374	3.63	1.82	26.9137	2.135	955.0	2.0	Outcome2	4.3	3.63	3219.5	Yes		-0.674216685541714			800.0	TrialHappiness	Mixed
22.0	1	347.645	4.016	426.39	3.63	1.82	26.9137	4.878	955.0	2.0	Outcome2	4.3	3.63	3219.5	Yes		-0.674216685541714				ISIRate	Mixed
23.0	1	352.543	0.02	431.288	-2.0	-2.0	26.6637	3.0	955.0	0.3	Certain	-4.55	0.7	0.0	No	4.0	5.25368063420159	1.585	354.128		GetAnswer	Mixed
23.0	1	354.142	0.014	432.887	-2.0	-2.0	26.6637	4.0	955.0	0.3	Certain	-4.55	0.7	0.0	No		5.25368063420159				ShowChoice	Mixed
23.0	1	358.158	0.016	436.903	-2.0	-2.0	26.6637	1.0	955.0	0.3	Certain	-4.55	0.7	0.0	No		5.25368063420159				ShowResult	Mixed
23.0	1	359.174	0.016	437.919	-2.0	-2.0	26.6637	8.0	955.0	0.3	Certain	-4.55	0.7	0.0	No		5.25368063420159				ISITrial	Mixed
24.0	1	367.205	0.031	445.95	9.5	2.04	27.8512	3.0	955.0	2.8	Outcome2	4.07	9.5	3255.0	Yes	2.0	5.4292185730464295	1.674	368.879		GetAnswer	Gain
24.0	1	368.904	0.025	447.649	9.5	2.04	27.8512	4.0	955.0	2.8	Outcome2	4.07	9.5	3255.0	Yes		5.4292185730464295				ShowChoice	Gain
24.0	1	372.919	0.015	451.664	9.5	2.04	27.8512	1.0	955.0	2.8	Outcome2	4.07	9.5	3255.0	Yes		5.4292185730464295				ShowResult	Gain
24.0	1	373.936	0.017	452.681	9.5	2.04	27.8512	2.0	955.0	2.8	Outcome2	4.07	9.5	3255.0	Yes		5.4292185730464295				ISITrial	Gain
24.0	1	379.234	0.028	457.979	9.5	2.04	27.8512	1.606	955.0	2.8	Outcome2	4.07	9.5	3255.0	Yes		5.4292185730464295			784.0	TrialHappiness	Gain
24.0	1	383.249	4.015	461.994	9.5	2.04	27.8512	5.02	955.0	2.8	Outcome2	4.07	9.5	3255.0	Yes		5.4292185730464295				ISIRate	Gain
25.0	1	388.297	0.028	467.042	-1.0	-1.0	27.7262	3.0	955.0	0.82	Certain	1.5	-4.38	0.0	No	4.0	5.876557191392981	1.301	389.598		GetAnswer	Mixed
25.0	1	389.613	0.015	468.358	-1.0	-1.0	27.7262	4.0	955.0	0.82	Certain	1.5	-4.38	0.0	No		5.876557191392981				ShowChoice	Mixed
25.0	1	393.629	0.016	472.374	-1.0	-1.0	27.7262	1.0	955.0	0.82	Certain	1.5	-4.38	0.0	No		5.876557191392981				ShowResult	Mixed
25.0	1	394.645	0.016	473.39	-1.0	-1.0	27.7262	3.749	955.0	0.82	Certain	1.5	-4.38	0.0	No		5.876557191392981				ISITrial	Mixed
26.0	1	398.427	0.033	477.172	2.0	2.0	27.9762	3.0	955.0	2.8	Certain	-0.57	5.5	0.0	No	4.0	6.07021517553794	1.132	399.559		GetAnswer	Gain
26.0	1	399.577	0.018	478.322	2.0	2.0	27.9762	4.0	955.0	2.8	Certain	-0.57	5.5	0.0	No		6.07021517553794				ShowChoice	Gain
26.0	1	403.592	0.015	482.337	2.0	2.0	27.9762	1.0	955.0	2.8	Certain	-0.57	5.5	0.0	No		6.07021517553794				ShowResult	Gain
26.0	1	404.608	0.016	483.353	2.0	2.0	27.9762	7.834	955.0	2.8	Certain	-0.57	5.5	0.0	No		6.07021517553794				ISITrial	Gain
27.0	1	412.472	0.03	491.217	-1.0	-1.0	27.8512	3.0	955.0	0.52	Certain	-0.9	-1.87	2549.75	Yes	4.0	-0.9738580596451492	1.805	414.277		GetAnswer	Mixed
27.0	1	414.305	0.028	493.05	-1.0	-1.0	27.8512	4.0	955.0	0.52	Certain	-0.9	-1.87	2549.75	Yes		-0.9738580596451492				ShowChoice	Mixed
27.0	1	418.32	0.015	497.065	-1.0	-1.0	27.8512	1.0	955.0	0.52	Certain	-0.9	-1.87	2549.75	Yes		-0.9738580596451492				ShowResult	Mixed
27.0	1	419.336	0.016	498.081	-1.0	-1.0	27.8512	4.225	955.0	0.52	Certain	-0.9	-1.87	2549.75	Yes		-0.9738580596451492				ISITrial	Mixed
27.0	1	426.151	0.016	504.896	-1.0	-1.0	27.8512	1.505	955.0	0.52	Certain	-0.9	-1.87	2549.75	Yes		-0.9738580596451492			856.0	TrialHappiness	Mixed
27.0	1	430.166	4.015	508.911	-1.0	-1.0	27.8512	2.199	955.0	0.52	Certain	-0.9	-1.87	2549.75	Yes		-0.9738580596451492				ISIRate	Mixed
	1	432.399	0.034	511.144				-0.001								{SPACE}		38.183	470.582		Rest	
	1	470.602	0.02	549.347				4.0													BlockHappyPreview	
	1	474.617	0.015	553.362				1.572												880.0	BlockStartHappiness	
	1	483.514	0.021	562.259				-0.001								5.0		3.503	487.017		ScanWait	
	2	0.013	0.013	565.775				10.0													GetReady	
28.0	2	10.043	0.03	575.805	1.0	1.0	27.9762	3.0	70.0	2.48	Certain	-0.47	2.82	0.0	No	4.0	3.2908163265306096	1.23	11.273		GetAnswer	Loss
28.0	2	11.292	0.019	577.054	1.0	1.0	27.9762	4.0	70.0	2.48	Certain	-0.47	2.82	0.0	No		3.2908163265306096				ShowChoice	Loss
28.0	2	15.307	0.015	581.069	1.0	1.0	27.9762	1.0	70.0	2.48	Certain	-0.47	2.82	0.0	No		3.2908163265306096				ShowResult	Loss
28.0	2	16.324	0.017	582.086	1.0	1.0	27.9762	3.575	70.0	2.48	Certain	-0.47	2.82	0.0	No		3.2908163265306096				ISITrial	Loss
29.0	2	19.923	0.024	585.685	-2.0	-2.0	27.7262	3.0	70.0	1.82	Certain	4.7	-9.99	3529.0	Yes	4.0	-14.693877551020401	1.515	21.438		GetAnswer	Gain
29.0	2	21.455	0.017	587.217	-2.0	-2.0	27.7262	4.0	70.0	1.82	Certain	4.7	-9.99	3529.0	Yes		-14.693877551020401				ShowChoice	Gain
29.0	2	25.471	0.016	591.233	-2.0	-2.0	27.7262	1.0	70.0	1.82	Certain	4.7	-9.99	3529.0	Yes		-14.693877551020401				ShowResult	Gain
29.0	2	26.487	0.016	592.249	-2.0	-2.0	27.7262	3.955	70.0	1.82	Certain	4.7	-9.99	3529.0	Yes		-14.693877551020401				ISITrial	Gain
29.0	2	34.018	0.02	599.78	-2.0	-2.0	27.7262	2.373	70.0	1.82	Certain	4.7	-9.99	3529.0	Yes		-14.693877551020401			872.0	TrialHappiness	Gain
29.0	2	38.033	4.015	603.795	-2.0	-2.0	27.7262	6.116	70.0	1.82	Certain	4.7	-9.99	3529.0	Yes		-14.693877551020401				ISIRate	Gain
30.0	2	44.181	0.032	609.943	-11.58	-4.0	26.2787	3.0	70.0	1.2	Outcome2	3.9	-11.58	0.0	No	2.0	-15.476190476190501	1.183	45.364		GetAnswer	Mixed
30.0	2	45.38	0.016	611.142	-11.58	-4.0	26.2787	4.0	70.0	1.2	Outcome2	3.9	-11.58	0.0	No		-15.476190476190501				ShowChoice	Mixed
30.0	2	49.396	0.016	615.158	-11.58	-4.0	26.2787	1.0	70.0	1.2	Outcome2	3.9	-11.58	0.0	No		-15.476190476190501				ShowResult	Mixed
30.0	2	50.412	0.016	616.174	-11.58	-4.0	26.2787	4.453	70.0	1.2	Outcome2	3.9	-11.58	0.0	No		-15.476190476190501				ISITrial	Mixed
31.0	2	54.894	0.029	620.656	-1.0	-1.0	26.1537	3.0	70.0	1.82	Certain	-9.69	6.7	2503.25	Yes	4.0	-16.3854875283447	1.434	56.328		GetAnswer	Gain
31.0	2	56.343	0.015	622.105	-1.0	-1.0	26.1537	4.0	70.0	1.82	Certain	-9.69	6.7	2503.25	Yes		-16.3854875283447				ShowChoice	Gain
31.0	2	60.359	0.016	626.121	-1.0	-1.0	26.1537	1.0	70.0	1.82	Certain	-9.69	6.7	2503.25	Yes		-16.3854875283447				ShowResult	Gain
31.0	2	61.375	0.016	627.137	-1.0	-1.0	26.1537	4.786	70.0	1.82	Certain	-9.69	6.7	2503.25	Yes		-16.3854875283447				ISITrial	Gain
31.0	2	68.706	0.03	634.468	-1.0	-1.0	26.1537	1.355	70.0	1.82	Certain	-9.69	6.7	2503.25	Yes		-16.3854875283447			768.0	TrialHappiness	Gain
31.0	2	72.721	4.015	638.483	-1.0	-1.0	26.1537	2.013	70.0	1.82	Certain	-9.69	6.7	2503.25	Yes		-16.3854875283447				ISIRate	Gain
32.0	2	74.754	0.02	640.516	-9.83	-2.0	24.9249	3.0	70.0	3.16	Outcome2	5.7	-9.83	0.0	No	2.0	-15.526077097505699	1.114	75.868		GetAnswer	Gain
32.0	2	75.887	0.019	641.649	-9.83	-2.0	24.9249	4.0	70.0	3.16	Outcome2	5.7	-9.83	0.0	No		-15.526077097505699				ShowChoice	Gain
32.0	2	79.902	0.015	645.664	-9.83	-2.0	24.9249	1.0	70.0	3.16	Outcome2	5.7	-9.83	0.0	No		-15.526077097505699				ShowResult	Gain
32.0	2	80.918	0.016	646.68	-9.83	-2.0	24.9249	2.0	70.0	3.16	Outcome2	5.7	-9.83	0.0	No		-15.526077097505699				ISITrial	Gain
33.0	2	82.951	0.033	648.713	-14.62	-6.0	23.0974	3.0	70.0	1.0	Outcome2	1.7	-14.62	0.0	No	2.0	-16.317460317460302	1.483	84.434		GetAnswer	Mixed
33.0	2	84.45	0.016	650.212	-14.62	-6.0	23.0974	4.0	70.0	1.0	Outcome2	1.7	-14.62	0.0	No		-16.317460317460302				ShowChoice	Mixed
33.0	2	88.466	0.016	654.228	-14.62	-6.0	23.0974	1.0	70.0	1.0	Outcome2	1.7	-14.62	0.0	No		-16.317460317460302				ShowResult	Mixed
33.0	2	89.482	0.016	655.244	-14.62	-6.0	23.0974	5.099	70.0	1.0	Outcome2	1.7	-14.62	0.0	No		-16.317460317460302				ISITrial	Mixed
34.0	2	94.613	0.032	660.375	-8.0	-8.0	22.0974	3.0	70.0	2.0	Certain	-16.81	0.3	3231.5	Yes	4.0	-17.108843537414998	1.329	95.942		GetAnswer	Mixed
34.0	2	95.963	0.021	661.725	-8.0	-8.0	22.0974	4.0	70.0	2.0	Certain	-16.81	0.3	3231.5	Yes		-17.108843537414998				ShowChoice	Mixed
34.0	2	99.978	0.015	665.74	-8.0	-8.0	22.0974	1.0	70.0	2.0	Certain	-16.81	0.3	3231.5	Yes		-17.108843537414998				ShowResult	Mixed
34.0	2	100.995	0.017	666.757	-8.0	-8.0	22.0974	4.784	70.0	2.0	Certain	-16.81	0.3	3231.5	Yes		-17.108843537414998				ISITrial	Mixed
34.0	2	109.042	0.017	674.804	-8.0	-8.0	22.0974	2.356	70.0	2.0	Certain	-16.81	0.3	3231.5	Yes		-17.108843537414998			716.0	TrialHappiness	Mixed
34.0	2	113.057	4.015	678.819	-8.0	-8.0	22.0974	4.926	70.0	2.0	Certain	-16.81	0.3	3231.5	Yes		-17.108843537414998				ISIRate	Mixed
35.0	2	118.005	0.022	683.767	-12.52	-4.0	20.5324	3.0	70.0	1.68	Outcome2	4.5	-12.52	0.0	No	2.0	-17.015873015873	0.959	118.964		GetAnswer	Gain
35.0	2	118.988	0.024	684.75	-12.52	-4.0	20.5324	4.0	70.0	1.68	Outcome2	4.5	-12.52	0.0	No		-17.015873015873				ShowChoice	Gain
35.0	2	123.004	0.016	688.766	-12.52	-4.0	20.5324	1.0	70.0	1.68	Outcome2	4.5	-12.52	0.0	No		-17.015873015873				ShowResult	Gain
35.0	2	124.02	0.016	689.782	-12.52	-4.0	20.5324	2.098	70.0	1.68	Outcome2	4.5	-12.52	0.0	No		-17.015873015873				ISITrial	Gain
36.0	2	126.136	0.018	691.898	-16.65	-8.0	18.4511	3.0	70.0	0.52	Outcome2	1.1	-16.65	3335.75	Yes	2.0	-17.7482993197279	1.354	127.49		GetAnswer	Mixed
36.0	2	127.502	0.012	693.264	-16.65	-8.0	18.4511	4.0	70.0	0.52	Outcome2	1.1	-16.65	3335.75	Yes		-17.7482993197279				ShowChoice	Mixed
36.0	2	131.517	0.015	697.279	-16.65	-8.0	18.4511	1.0	70.0	0.52	Outcome2	1.1	-16.65	3335.75	Yes		-17.7482993197279				ShowResult	Mixed
36.0	2	132.534	0.017	698.296	-16.65	-8.0	18.4511	5.156	70.0	0.52	Outcome2	1.1	-16.65	3335.75	Yes		-17.7482993197279				ISITrial	Mixed
36.0	2	141.081	0.03	706.843	-16.65	-8.0	18.4511	1.605	70.0	0.52	Outcome2	1.1	-16.65	3335.75	Yes		-17.7482993197279			752.0	TrialHappiness	Mixed
36.0	2	145.096	4.015	710.858	-16.65	-8.0	18.4511	5.343	70.0	0.52	Outcome2	1.1	-16.65	3335.75	Yes		-17.7482993197279				ISIRate	Mixed
37.0	2	150.461	0.022	716.223	-15.59	-6.0	16.5023	3.0	70.0	0.82	Outcome2	3.5	-15.59	0.0	No	2.0	-19.092970521542	1.105	151.566		GetAnswer	Mixed
37.0	2	151.594	0.028	717.356	-15.59	-6.0	16.5023	4.0	70.0	0.82	Outcome2	3.5	-15.59	0.0	No		-19.092970521542				ShowChoice	Mixed
37.0	2	155.609	0.015	721.371	-15.59	-6.0	16.5023	1.0	70.0	0.82	Outcome2	3.5	-15.59	0.0	No		-19.092970521542				ShowResult	Mixed
37.0	2	156.625	0.016	722.387	-15.59	-6.0	16.5023	3.598	70.0	0.82	Outcome2	3.5	-15.59	0.0	No		-19.092970521542				ISITrial	Mixed
38.0	2	160.241	0.018	726.003	-6.37	-3.18	15.7061	3.0	70.0	2.8	Outcome2	13.5	-6.37	0.0	No	2.0	-19.866213151927397	0.913	161.154		GetAnswer	Loss
38.0	2	161.174	0.02	726.936	-6.37	-3.18	15.7061	4.0	70.0	2.8	Outcome2	13.5	-6.37	0.0	No		-19.866213151927397				ShowChoice	Loss
38.0	2	165.189	0.015	730.951	-6.37	-3.18	15.7061	1.0	70.0	2.8	Outcome2	13.5	-6.37	0.0	No		-19.866213151927397				ShowResult	Loss
38.0	2	166.205	0.016	731.967	-6.37	-3.18	15.7061	4.787	70.0	2.8	Outcome2	13.5	-6.37	0.0	No		-19.866213151927397				ISITrial	Loss
39.0	2	171.02	0.028	736.782	-8.94	1.0	14.5886	3.0	70.0	3.16	Outcome2	11.7	-8.94	2864.25	Yes	2.0	-20.639455782312897	1.178	172.198		GetAnswer	Loss
39.0	2	172.22	0.022	737.982	-8.94	1.0	14.5886	4.0	70.0	3.16	Outcome2	11.7	-8.94	2864.25	Yes		-20.639455782312897				ShowChoice	Loss
39.0	2	176.235	0.015	741.997	-8.94	1.0	14.5886	1.0	70.0	3.16	Outcome2	11.7	-8.94	2864.25	Yes		-20.639455782312897				ShowResult	Loss
39.0	2	177.251	0.016	743.013	-8.94	1.0	14.5886	2.348	70.0	3.16	Outcome2	11.7	-8.94	2864.25	Yes		-20.639455782312897				ISITrial	Loss
39.0	2	182.5	0.019	748.262	-8.94	1.0	14.5886	1.84	70.0	3.16	Outcome2	11.7	-8.94	2864.25	Yes	2{-2}2{-2}	-20.639455782312897	1.84	184.34	736.0	TrialHappiness	Loss
39.0	2	186.515	4.015	752.277	-8.94	1.0	14.5886	3.457	70.0	3.16	Outcome2	11.7	-8.94	2864.25	Yes		-20.639455782312897				ISIRate	Loss
40.0	2	189.997	0.025	755.759	-1.0	-1.0	14.4636	3.0	70.0	0.4	Certain	-3.3	0.22	0.0	No	4.0	3.52362055933485	0.989	190.986		GetAnswer	Mixed
40.0	2	190.997	0.011	756.759	-1.0	-1.0	14.4636	4.0	70.0	0.4	Certain	-3.3	0.22	0.0	No		3.52362055933485				ShowChoice	Mixed
40.0	2	195.012	0.015	760.774	-1.0	-1.0	14.4636	1.0	70.0	0.4	Certain	-3.3	0.22	0.0	No		3.52362055933485				ShowResult	Mixed
40.0	2	196.028	0.016	761.79	-1.0	-1.0	14.4636	3.158	70.0	0.4	Certain	-3.3	0.22	0.0	No		3.52362055933485				ISITrial	Mixed
41.0	2	199.211	0.025	764.973	-9.0	-9.0	13.3386	3.0	70.0	1.5	Certain	2.1	-19.8	4000.0	Yes	4.0	-21.895691609977302	1.321	200.532		GetAnswer	Mixed
41.0	2	200.543	0.011	766.305	-9.0	-9.0	13.3386	4.0	70.0	1.5	Certain	2.1	-19.8	4000.0	Yes		-21.895691609977302				ShowChoice	Mixed
41.0	2	204.559	0.016	770.321	-9.0	-9.0	13.3386	1.0	70.0	1.5	Certain	2.1	-19.8	4000.0	Yes		-21.895691609977302				ShowResult	Mixed
41.0	2	205.575	0.016	771.337	-9.0	-9.0	13.3386	4.506	70.0	1.5	Certain	2.1	-19.8	4000.0	Yes		-21.895691609977302				ISITrial	Mixed
41.0	2	214.122	0.015	779.884	-9.0	-9.0	13.3386	1.272	70.0	1.5	Certain	2.1	-19.8	4000.0	Yes		-21.895691609977302			744.0	TrialHappiness	Mixed
41.0	2	218.137	4.015	783.899	-9.0	-9.0	13.3386	8.0	70.0	1.5	Certain	2.1	-19.8	4000.0	Yes		-21.895691609977302				ISIRate	Mixed
42.0	2	226.168	0.031	791.93	-15.09	-3.0	11.4524	3.0	70.0	3.16	Outcome2	7.7	-15.09	0.0	No	2.0	-22.7868480725624	1.424	227.592		GetAnswer	Gain
42.0	2	227.617	0.025	793.379	-15.09	-3.0	11.4524	4.0	70.0	3.16	Outcome2	7.7	-15.09	0.0	No		-22.7868480725624				ShowChoice	Gain
42.0	2	231.633	0.016	797.395	-15.09	-3.0	11.4524	1.0	70.0	3.16	Outcome2	7.7	-15.09	0.0	No		-22.7868480725624				ShowResult	Gain
42.0	2	232.649	0.016	798.411	-15.09	-3.0	11.4524	6.248	70.0	3.16	Outcome2	7.7	-15.09	0.0	No		-22.7868480725624				ISITrial	Gain
43.0	2	238.913	0.016	804.675	-14.65	-3.0	9.6212	3.0	70.0	2.0	Outcome2	8.9	-14.65	2775.75	Yes	2.0	-23.5510204081633	0.939	239.852		GetAnswer	Gain
43.0	2	239.88	0.028	805.642	-14.65	-3.0	9.6212	4.0	70.0	2.0	Outcome2	8.9	-14.65	2775.75	Yes		-23.5510204081633				ShowChoice	Gain
43.0	2	243.895	0.015	809.657	-14.65	-3.0	9.6212	1.0	70.0	2.0	Outcome2	8.9	-14.65	2775.75	Yes		-23.5510204081633				ShowResult	Gain
43.0	2	244.911	0.016	810.673	-14.65	-3.0	9.6212	4.596	70.0	2.0	Outcome2	8.9	-14.65	2775.75	Yes		-23.5510204081633				ISITrial	Gain
43.0	2	252.325	0.023	818.087	-14.65	-3.0	9.6212	1.223	70.0	2.0	Outcome2	8.9	-14.65	2775.75	Yes		-23.5510204081633			768.0	TrialHappiness	Gain
43.0	2	256.341	4.016	822.103	-14.65	-3.0	9.6212	3.103	70.0	2.0	Outcome2	8.9	-14.65	2775.75	Yes		-23.5510204081633				ISIRate	Gain
44.0	2	259.473	0.029	825.235	-14.62	-2.0	7.7937	3.0	70.0	4.2	Outcome2	10.1	-14.62	0.0	No	2.0	-24.7233560090703	0.582	260.055		GetAnswer	Gain
44.0	2	260.073	0.018	825.835	-14.62	-2.0	7.7937	4.0	70.0	4.2	Outcome2	10.1	-14.62	0.0	No		-24.7233560090703				ShowChoice	Gain
44.0	2	264.088	0.015	829.85	-14.62	-2.0	7.7937	1.0	70.0	4.2	Outcome2	10.1	-14.62	0.0	No		-24.7233560090703				ShowResult	Gain
44.0	2	265.104	0.016	830.866	-14.62	-2.0	7.7937	2.42	70.0	4.2	Outcome2	10.1	-14.62	0.0	No		-24.7233560090703				ISITrial	Gain
45.0	2	267.554	0.03	833.316	-12.0	-12.0	6.2937	3.0	70.0	0.2	Certain	-25.01	0.5	0.0	No	4.0	-25.514739229024897	1.554	269.108		GetAnswer	Mixed
45.0	2	269.12	0.012	834.882	-12.0	-12.0	6.2937	4.0	70.0	0.2	Certain	-25.01	0.5	0.0	No		-25.514739229024897				ShowChoice	Mixed
45.0	2	273.135	0.015	838.897	-12.0	-12.0	6.2937	1.0	70.0	0.2	Certain	-25.01	0.5	0.0	No		-25.514739229024897				ShowResult	Mixed
45.0	2	274.151	0.016	839.913	-12.0	-12.0	6.2937	3.144	70.0	0.2	Certain	-25.01	0.5	0.0	No		-25.514739229024897				ISITrial	Mixed
46.0	2	277.317	0.022	843.079	-24.01	-11.0	3.2924	3.0	70.0	2.0	Outcome2	2.3	-24.01	3841.25	Yes	2.0	-26.3061224489796	1.284	278.601		GetAnswer	Mixed
46.0	2	278.616	0.015	844.378	-24.01	-11.0	3.2924	4.0	70.0	2.0	Outcome2	2.3	-24.01	3841.25	Yes		-26.3061224489796				ShowChoice	Mixed
46.0	2	282.632	0.016	848.394	-24.01	-11.0	3.2924	1.0	70.0	2.0	Outcome2	2.3	-24.01	3841.25	Yes		-26.3061224489796				ShowResult	Mixed
46.0	2	283.648	0.016	849.41	-24.01	-11.0	3.2924	2.246	70.0	2.0	Outcome2	2.3	-24.01	3841.25	Yes		-26.3061224489796				ISITrial	Mixed
46.0	2	289.779	0.024	855.541	-24.01	-11.0	3.2924	1.389	70.0	2.0	Outcome2	2.3	-24.01	3841.25	Yes	2{-2}	-26.3061224489796	1.389	291.168	816.0	TrialHappiness	Mixed
46.0	2	293.794	4.015	859.556	-24.01	-11.0	3.2924	7.365	70.0	2.0	Outcome2	2.3	-24.01	3841.25	Yes		-26.3061224489796				ISIRate	Mixed
47.0	2	301.175	0.016	866.937	-16.01	-2.0	1.2911	3.0	70.0	3.6	Outcome1	-16.01	11.9	0.0	No	2.0	-27.913832199546498	0.995	302.17		GetAnswer	Loss
47.0	2	302.192	0.022	867.954	-16.01	-2.0	1.2911	4.0	70.0	3.6	Outcome1	-16.01	11.9	0.0	No		-27.913832199546498				ShowChoice	Loss
47.0	2	306.207	0.015	871.969	-16.01	-2.0	1.2911	1.0	70.0	3.6	Outcome1	-16.01	11.9	0.0	No		-27.913832199546498				ShowResult	Loss
47.0	2	307.223	0.016	872.985	-16.01	-2.0	1.2911	2.0	70.0	3.6	Outcome1	-16.01	11.9	0.0	No		-27.913832199546498				ISITrial	Loss
48.0	2	309.239	0.016	875.001	-18.26	-4.0	-0.9914	3.0	70.0	1.68	Outcome2	10.5	-18.26	2831.75	Yes	2.0	-28.759637188208604	0.95	310.189		GetAnswer	Loss
48.0	2	310.205	0.016	875.967	-18.26	-4.0	-0.9914	4.0	70.0	1.68	Outcome2	10.5	-18.26	2831.75	Yes		-28.759637188208604				ShowChoice	Loss
48.0	2	314.221	0.016	879.983	-18.26	-4.0	-0.9914	1.0	70.0	1.68	Outcome2	10.5	-18.26	2831.75	Yes		-28.759637188208604				ShowResult	Loss
48.0	2	315.237	0.016	880.999	-18.26	-4.0	-0.9914	3.692	70.0	1.68	Outcome2	10.5	-18.26	2831.75	Yes		-28.759637188208604				ISITrial	Loss
48.0	2	321.801	0.017	887.563	-18.26	-4.0	-0.9914	1.172	70.0	1.68	Outcome2	10.5	-18.26	2831.75	Yes		-28.759637188208604			760.0	TrialHappiness	Loss
48.0	2	325.817	4.016	891.579	-18.26	-4.0	-0.9914	3.327	70.0	1.68	Outcome2	10.5	-18.26	2831.75	Yes		-28.759637188208604				ISIRate	Loss
49.0	2	329.166	0.022	894.928	3.08	1.0	-0.6064	3.0	70.0	5.0	Outcome2	-1.13	3.08	0.0	No	2.0	4.21315192743764	1.354	330.52		GetAnswer	Loss
49.0	2	330.532	0.012	896.294	3.08	1.0	-0.6064	4.0	70.0	5.0	Outcome2	-1.13	3.08	0.0	No		4.21315192743764				ShowChoice	Loss
49.0	2	334.547	0.015	900.309	3.08	1.0	-0.6064	1.0	70.0	5.0	Outcome2	-1.13	3.08	0.0	No		4.21315192743764				ShowResult	Loss
49.0	2	335.563	0.016	901.325	3.08	1.0	-0.6064	8.0	70.0	5.0	Outcome2	-1.13	3.08	0.0	No		4.21315192743764				ISITrial	Loss
50.0	2	343.594	0.031	909.356	-25.74	-11.0	-3.8239	3.0	70.0	1.0	Outcome2	3.7	-25.74	3547.25	Yes	2.0	-29.4353741496599	1.785	345.379		GetAnswer	Mixed
50.0	2	345.393	0.014	911.155	-25.74	-11.0	-3.8239	4.0	70.0	1.0	Outcome2	3.7	-25.74	3547.25	Yes		-29.4353741496599				ShowChoice	Mixed
50.0	2	349.409	0.016	915.171	-25.74	-11.0	-3.8239	1.0	70.0	1.0	Outcome2	3.7	-25.74	3547.25	Yes		-29.4353741496599				ShowResult	Mixed
50.0	2	350.425	0.016	916.187	-25.74	-11.0	-3.8239	7.537	70.0	1.0	Outcome2	3.7	-25.74	3547.25	Yes		-29.4353741496599				ISITrial	Mixed
50.0	2	361.538	0.019	927.3	-25.74	-11.0	-3.8239	1.238	70.0	1.0	Outcome2	3.7	-25.74	3547.25	Yes		-29.4353741496599			792.0	TrialHappiness	Mixed
50.0	2	365.553	4.015	931.315	-25.74	-11.0	-3.8239	6.189	70.0	1.0	Outcome2	3.7	-25.74	3547.25	Yes		-29.4353741496599				ISIRate	Mixed
51.0	2	371.768	0.026	937.53	-0.32	-2.0	-3.8639	3.0	70.0	0.3	Outcome2	-4.79	-0.32	0.0	No	2.0	4.4735449735449695	1.145	372.913		GetAnswer	Mixed
51.0	2	372.934	0.021	938.696	-0.32	-2.0	-3.8639	4.0	70.0	0.3	Outcome2	-4.79	-0.32	0.0	No		4.4735449735449695				ShowChoice	Mixed
51.0	2	376.949	0.015	942.711	-0.32	-2.0	-3.8639	1.0	70.0	0.3	Outcome2	-4.79	-0.32	0.0	No		4.4735449735449695				ShowResult	Mixed
51.0	2	377.965	0.016	943.727	-0.32	-2.0	-3.8639	5.508	70.0	0.3	Outcome2	-4.79	-0.32	0.0	No		4.4735449735449695				ISITrial	Mixed
52.0	2	383.497	0.024	949.259	-32.08	-16.0	-7.8739	3.0	70.0	0.82	Outcome2	-0.5	-32.08	0.0	No	2.0	-31.5804988662131	1.338	384.835		GetAnswer	Mixed
52.0	2	384.846	0.011	950.608	-32.08	-16.0	-7.8739	4.0	70.0	0.82	Outcome2	-0.5	-32.08	0.0	No		-31.5804988662131				ShowChoice	Mixed
52.0	2	388.862	0.016	954.624	-32.08	-16.0	-7.8739	1.0	70.0	0.82	Outcome2	-0.5	-32.08	0.0	No		-31.5804988662131				ShowResult	Mixed
52.0	2	389.878	0.016	955.64	-32.08	-16.0	-7.8739	5.913	70.0	0.82	Outcome2	-0.5	-32.08	0.0	No		-31.5804988662131				ISITrial	Mixed
53.0	2	395.809	0.018	961.571	-22.1	-6.0	-10.6364	3.0	70.0	5.0	Outcome1	-22.1	10.3	2996.75	Yes	2.0	-32.3990929705215	1.129	396.938		GetAnswer	Gain
53.0	2	396.959	0.021	962.721	-22.1	-6.0	-10.6364	4.0	70.0	5.0	Outcome1	-22.1	10.3	2996.75	Yes		-32.3990929705215				ShowChoice	Gain
53.0	2	400.974	0.015	966.736	-22.1	-6.0	-10.6364	1.0	70.0	5.0	Outcome1	-22.1	10.3	2996.75	Yes		-32.3990929705215				ShowResult	Gain
53.0	2	401.99	0.016	967.752	-22.1	-6.0	-10.6364	3.66	70.0	5.0	Outcome1	-22.1	10.3	2996.75	Yes		-32.3990929705215				ISITrial	Gain
53.0	2	408.688	0.019	974.45	-22.1	-6.0	-10.6364	1.239	70.0	5.0	Outcome1	-22.1	10.3	2996.75	Yes		-32.3990929705215			808.0	TrialHappiness	Gain
53.0	2	412.703	4.015	978.465	-22.1	-6.0	-10.6364	3.987	70.0	5.0	Outcome1	-22.1	10.3	2996.75	Yes		-32.3990929705215				ISIRate	Gain
54.0	2	416.719	0.029	982.481	-33.39	-16.0	-14.8102	3.0	70.0	1.5	Outcome2	0.1	-33.39	0.0	No	2.0	-33.4897959183673	1.02	417.739		GetAnswer	Mixed
54.0	2	417.768	0.029	983.53	-33.39	-16.0	-14.8102	4.0	70.0	1.5	Outcome2	0.1	-33.39	0.0	No		-33.4897959183673				ShowChoice	Mixed
54.0	2	421.784	0.016	987.546	-33.39	-16.0	-14.8102	1.0	70.0	1.5	Outcome2	0.1	-33.39	0.0	No		-33.4897959183673				ShowResult	Mixed
54.0	2	422.8	0.016	988.562	-33.39	-16.0	-14.8102	8.0	70.0	1.5	Outcome2	0.1	-33.39	0.0	No		-33.4897959183673				ISITrial	Mixed
	2	430.83	0.03	996.592				-0.001								{SPACE}		24.423	455.253		Rest	
	2	455.272	0.019	1021.034				4.0													BlockHappyPreview	
	2	459.287	0.015	1025.049				1.289												768.0	BlockStartHappiness	
	2	464.635	0.022	1030.397				-0.001								5.0		2.215	466.85		ScanWait	
	3	0.018	0.018	1032.63				10.0													GetReady	
55.0	3	10.031	0.013	1042.643	11.94	5.97	-13.3177	3.0	955.0	1.82	Outcome2	12.7	11.94	2533.25	Yes	2.0	-0.7588712721781801	1.007	11.038		GetAnswer	Loss
55.0	3	11.064	0.026	1043.676	11.94	5.97	-13.3177	4.0	955.0	1.82	Outcome2	12.7	11.94	2533.25	Yes		-0.7588712721781801				ShowChoice	Loss
55.0	3	15.079	0.015	1047.691	11.94	5.97	-13.3177	1.0	955.0	1.82	Outcome2	12.7	11.94	2533.25	Yes		-0.7588712721781801				ShowResult	Loss
55.0	3	16.096	0.017	1048.708	11.94	5.97	-13.3177	7.709	955.0	1.82	Outcome2	12.7	11.94	2533.25	Yes		-0.7588712721781801				ISITrial	Loss
55.0	3	26.376	0.017	1058.988	11.94	5.97	-13.3177	1.355	955.0	1.82	Outcome2	12.7	11.94	2533.25	Yes		-0.7588712721781801			824.0	TrialHappiness	Loss
55.0	3	30.391	4.015	1063.003	11.94	5.97	-13.3177	2.133	955.0	1.82	Outcome2	12.7	11.94	2533.25	Yes		-0.7588712721781801				ISIRate	Loss
56.0	3	32.54	0.016	1065.152	13.9	5.73	-11.5802	3.0	955.0	3.6	Outcome1	13.9	11.46	0.0	No	2.0	2.43714609286523	0.8	33.34		GetAnswer	Loss
56.0	3	33.356	0.016	1065.968	13.9	5.73	-11.5802	4.0	955.0	3.6	Outcome1	13.9	11.46	0.0	No		2.43714609286523				ShowChoice	Loss
56.0	3	37.372	0.016	1069.984	13.9	5.73	-11.5802	1.0	955.0	3.6	Outcome1	13.9	11.46	0.0	No		2.43714609286523				ShowResult	Loss
56.0	3	38.388	0.016	1071.0	13.9	5.73	-11.5802	4.697	955.0	3.6	Outcome1	13.9	11.46	0.0	No		2.43714609286523				ISITrial	Loss
57.0	3	43.103	0.018	1075.715	3.3	2.0	-11.1677	3.0	955.0	0.66	Outcome2	0.71	3.3	0.0	No	2.0	2.58550396375991	1.273	44.376		GetAnswer	Mixed
57.0	3	44.403	0.027	1077.015	3.3	2.0	-11.1677	4.0	955.0	0.66	Outcome2	0.71	3.3	0.0	No		2.58550396375991				ShowChoice	Mixed
57.0	3	48.418	0.015	1081.03	3.3	2.0	-11.1677	1.0	955.0	0.66	Outcome2	0.71	3.3	0.0	No		2.58550396375991				ShowResult	Mixed
57.0	3	49.434	0.016	1082.046	3.3	2.0	-11.1677	4.291	955.0	0.66	Outcome2	0.71	3.3	0.0	No		2.58550396375991				ISITrial	Mixed
58.0	3	53.749	0.024	1086.361	8.3	2.78	-10.1302	3.0	955.0	5.0	Outcome2	5.57	8.3	3045.75	Yes	2.0	2.73386183465459	0.899	54.648		GetAnswer	Gain
58.0	3	54.666	0.018	1087.278	8.3	2.78	-10.1302	4.0	955.0	5.0	Outcome2	5.57	8.3	3045.75	Yes		2.73386183465459				ShowChoice	Gain
58.0	3	58.681	0.015	1091.293	8.3	2.78	-10.1302	1.0	955.0	5.0	Outcome2	5.57	8.3	3045.75	Yes		2.73386183465459				ShowResult	Gain
58.0	3	59.697	0.016	1092.309	8.3	2.78	-10.1302	2.037	955.0	5.0	Outcome2	5.57	8.3	3045.75	Yes		2.73386183465459				ISITrial	Gain
58.0	3	64.812	0.019	1097.424	8.3	2.78	-10.1302	1.339	955.0	5.0	Outcome2	5.57	8.3	3045.75	Yes		2.73386183465459			776.0	TrialHappiness	Gain
58.0	3	68.828	4.016	1101.44	8.3	2.78	-10.1302	4.183	955.0	5.0	Outcome2	5.57	8.3	3045.75	Yes		2.73386183465459				ISIRate	Gain
59.0	3	73.026	0.015	1105.638	6.52	3.26	-9.3152	3.0	955.0	2.48	Outcome1	6.52	7.3	0.0	No	2.0	-0.7811438278595699	1.09	74.116		GetAnswer	Gain
59.0	3	74.142	0.026	1106.754	6.52	3.26	-9.3152	4.0	955.0	2.48	Outcome1	6.52	7.3	0.0	No		-0.7811438278595699				ShowChoice	Gain
59.0	3	78.158	0.016	1110.77	6.52	3.26	-9.3152	1.0	955.0	2.48	Outcome1	6.52	7.3	0.0	No		-0.7811438278595699				ShowResult	Gain
59.0	3	79.174	0.016	1111.786	6.52	3.26	-9.3152	5.064	955.0	2.48	Outcome1	6.52	7.3	0.0	No		-0.7811438278595699				ISITrial	Gain
60.0	3	84.256	0.018	1116.868	-0.1	-2.0	-9.3277	3.0	955.0	1.2	Outcome2	-4.0	-0.1	3562.5	Yes	2.0	3.90033975084938	1.507	85.763		GetAnswer	Mixed
60.0	3	85.788	0.025	1118.4	-0.1	-2.0	-9.3277	4.0	955.0	1.2	Outcome2	-4.0	-0.1	3562.5	Yes		3.90033975084938				ShowChoice	Mixed
60.0	3	89.804	0.016	1122.416	-0.1	-2.0	-9.3277	1.0	955.0	1.2	Outcome2	-4.0	-0.1	3562.5	Yes		3.90033975084938				ShowResult	Mixed
60.0	3	90.82	0.016	1123.432	-0.1	-2.0	-9.3277	8.0	955.0	1.2	Outcome2	-4.0	-0.1	3562.5	Yes		3.90033975084938				ISITrial	Mixed
60.0	3	102.416	0.02	1135.028	-0.1	-2.0	-9.3277	1.455	955.0	1.2	Outcome2	-4.0	-0.1	3562.5	Yes		3.90033975084938			792.0	TrialHappiness	Mixed
60.0	3	106.431	4.015	1139.043	-0.1	-2.0	-9.3277	6.25	955.0	1.2	Outcome2	-4.0	-0.1	3562.5	Yes		3.90033975084938				ISIRate	Mixed
61.0	3	112.712	0.031	1145.324	8.7	2.44	-8.2402	3.0	955.0	1.82	Outcome1	8.7	4.87	0.0	No	2.0	3.83125707814269	0.961	113.673		GetAnswer	Gain
61.0	3	113.695	0.022	1146.307	8.7	2.44	-8.2402	4.0	955.0	1.82	Outcome1	8.7	4.87	0.0	No		3.83125707814269				ShowChoice	Gain
61.0	3	117.711	0.016	1150.323	8.7	2.44	-8.2402	1.0	955.0	1.82	Outcome1	8.7	4.87	0.0	No		3.83125707814269				ShowResult	Gain
61.0	3	118.727	0.016	1151.339	8.7	2.44	-8.2402	4.586	955.0	1.82	Outcome1	8.7	4.87	0.0	No		3.83125707814269				ISITrial	Gain
62.0	3	123.342	0.029	1155.954	5.9	0.94	-7.5027	3.0	955.0	3.6	Outcome2	1.88	5.9	3748.75	Yes	2.0	4.0158550396376	0.974	124.316		GetAnswer	Gain
62.0	3	124.342	0.026	1156.954	5.9	0.94	-7.5027	4.0	955.0	3.6	Outcome2	1.88	5.9	3748.75	Yes		4.0158550396376				ShowChoice	Gain
62.0	3	128.357	0.015	1160.969	5.9	0.94	-7.5027	1.0	955.0	3.6	Outcome2	1.88	5.9	3748.75	Yes		4.0158550396376				ShowResult	Gain
62.0	3	129.373	0.016	1161.985	5.9	0.94	-7.5027	5.212	955.0	3.6	Outcome2	1.88	5.9	3748.75	Yes		4.0158550396376				ISITrial	Gain
62.0	3	138.37	0.016	1170.982	5.9	0.94	-7.5027	1.472	955.0	3.6	Outcome2	1.88	5.9	3748.75	Yes		4.0158550396376			832.0	TrialHappiness	Gain
62.0	3	142.385	4.015	1174.997	5.9	0.94	-7.5027	6.995	955.0	3.6	Outcome2	1.88	5.9	3748.75	Yes		4.0158550396376				ISIRate	Gain
63.0	3	149.4	0.02	1182.012	11.5	3.99	-6.0652	3.0	955.0	2.8	Outcome1	11.5	7.98	0.0	No	2.0	3.52095130237826	1.016	150.416		GetAnswer	Loss
63.0	3	150.433	0.017	1183.045	11.5	3.99	-6.0652	4.0	955.0	2.8	Outcome1	11.5	7.98	0.0	No		3.52095130237826				ShowChoice	Loss
63.0	3	154.448	0.015	1187.06	11.5	3.99	-6.0652	1.0	955.0	2.8	Outcome1	11.5	7.98	0.0	No		3.52095130237826				ShowResult	Loss
63.0	3	155.464	0.016	1188.076	11.5	3.99	-6.0652	5.595	955.0	2.8	Outcome1	11.5	7.98	0.0	No		3.52095130237826				ISITrial	Loss
64.0	3	161.079	0.02	1193.691	2.9	1.0	-5.7027	3.0	955.0	0.4	Outcome1	2.9	-0.76	0.0	No	2.0	3.66024915062288	0.91	161.989		GetAnswer	Mixed
64.0	3	162.012	0.023	1194.624	2.9	1.0	-5.7027	4.0	955.0	0.4	Outcome1	2.9	-0.76	0.0	No		3.66024915062288				ShowChoice	Mixed
64.0	3	166.027	0.015	1198.639	2.9	1.0	-5.7027	1.0	955.0	0.4	Outcome1	2.9	-0.76	0.0	No		3.66024915062288				ShowResult	Mixed
64.0	3	167.044	0.017	1199.656	2.9	1.0	-5.7027	5.47	955.0	0.4	Outcome1	2.9	-0.76	0.0	No		3.66024915062288				ISITrial	Mixed
65.0	3	172.542	0.028	1205.154	0.0	0.0	-5.7027	3.0	955.0	1.2	Certain	-1.9	1.9	2996.75	Yes	4.0	3.7995469988674997	1.372	173.914		GetAnswer	Mixed
65.0	3	173.925	0.011	1206.537	0.0	0.0	-5.7027	4.0	955.0	1.2	Certain	-1.9	1.9	2996.75	Yes		3.7995469988674997				ShowChoice	Mixed
65.0	3	177.94	0.015	1210.552	0.0	0.0	-5.7027	1.0	955.0	1.2	Certain	-1.9	1.9	2996.75	Yes		3.7995469988674997				ShowResult	Mixed
65.0	3	178.956	0.016	1211.568	0.0	0.0	-5.7027	3.344	955.0	1.2	Certain	-1.9	1.9	2996.75	Yes		3.7995469988674997				ISITrial	Mixed
65.0	3	185.337	0.018	1217.949	0.0	0.0	-5.7027	1.422	955.0	1.2	Certain	-1.9	1.9	2996.75	Yes		3.7995469988674997			784.0	TrialHappiness	Mixed
65.0	3	189.353	4.016	1221.965	0.0	0.0	-5.7027	3.987	955.0	1.2	Certain	-1.9	1.9	2996.75	Yes		3.7995469988674997				ISIRate	Mixed
66.0	3	193.368	0.028	1225.98	0.0	0.0	-5.7027	3.0	955.0	0.2	Certain	-2.25	2.5	0.0	No	4.0	4.75424688561721	1.068	194.436		GetAnswer	Mixed
66.0	3	194.451	0.015	1227.063	0.0	0.0	-5.7027	4.0	955.0	0.2	Certain	-2.25	2.5	0.0	No		4.75424688561721				ShowChoice	Mixed
66.0	3	198.466	0.015	1231.078	0.0	0.0	-5.7027	1.0	955.0	0.2	Certain	-2.25	2.5	0.0	No		4.75424688561721				ShowResult	Mixed
66.0	3	199.482	0.016	1232.094	0.0	0.0	-5.7027	3.959	955.0	0.2	Certain	-2.25	2.5	0.0	No		4.75424688561721				ISITrial	Mixed
67.0	3	203.464	0.023	1236.076	6.9	0.98	-4.8402	3.0	955.0	2.0	Outcome1	6.9	1.95	2918.5	Yes	2.0	4.94790486976217	1.358	204.822		GetAnswer	Gain
67.0	3	204.847	0.025	1237.459	6.9	0.98	-4.8402	4.0	955.0	2.0	Outcome1	6.9	1.95	2918.5	Yes		4.94790486976217				ShowChoice	Gain
67.0	3	208.862	0.015	1241.474	6.9	0.98	-4.8402	1.0	955.0	2.0	Outcome1	6.9	1.95	2918.5	Yes		4.94790486976217				ShowResult	Gain
67.0	3	209.879	0.017	1242.491	6.9	0.98	-4.8402	4.199	955.0	2.0	Outcome1	6.9	1.95	2918.5	Yes		4.94790486976217				ISITrial	Gain
67.0	3	217.026	0.014	1249.638	6.9	0.98	-4.8402	1.455	955.0	2.0	Outcome1	6.9	1.95	2918.5	Yes		4.94790486976217			832.0	TrialHappiness	Gain
67.0	3	221.042	4.016	1253.654	6.9	0.98	-4.8402	3.674	955.0	2.0	Outcome1	6.9	1.95	2918.5	Yes		4.94790486976217				ISIRate	Gain
68.0	3	224.74	0.024	1257.352	-2.19	-2.0	-5.114	3.0	955.0	0.2	Outcome1	-2.19	-1.5	0.0	No	2.0	-0.6855417138542851	1.628	226.368		GetAnswer	Mixed
68.0	3	226.39	0.022	1259.002	-2.19	-2.0	-5.114	4.0	955.0	0.2	Outcome1	-2.19	-1.5	0.0	No		-0.6855417138542851				ShowChoice	Mixed
68.0	3	230.405	0.015	1263.017	-2.19	-2.0	-5.114	1.0	955.0	0.2	Outcome1	-2.19	-1.5	0.0	No		-0.6855417138542851				ShowResult	Mixed
68.0	3	231.421	0.016	1264.033	-2.19	-2.0	-5.114	2.185	955.0	0.2	Outcome1	-2.19	-1.5	0.0	No		-0.6855417138542851				ISITrial	Mixed
69.0	3	233.637	0.031	1266.249	12.1	3.82	-3.6015	3.0	955.0	4.2	Outcome2	7.63	12.1	0.0	No	2.0	4.46545866364666	1.051	234.688		GetAnswer	Loss
69.0	3	234.704	0.016	1267.316	12.1	3.82	-3.6015	4.0	955.0	4.2	Outcome2	7.63	12.1	0.0	No		4.46545866364666				ShowChoice	Loss
69.0	3	238.719	0.015	1271.331	12.1	3.82	-3.6015	1.0	955.0	4.2	Outcome2	7.63	12.1	0.0	No		4.46545866364666				ShowResult	Loss
69.0	3	239.735	0.016	1272.347	12.1	3.82	-3.6015	2.0	955.0	4.2	Outcome2	7.63	12.1	0.0	No		4.46545866364666				ISITrial	Loss
70.0	3	241.751	0.016	1274.363	7.79	3.9	-2.6277	3.0	955.0	1.68	Outcome1	7.79	8.5	3651.25	Yes	2.0	-0.708758021895055	0.989	242.74		GetAnswer	Gain
70.0	3	242.767	0.027	1275.379	7.79	3.9	-2.6277	4.0	955.0	1.68	Outcome1	7.79	8.5	3651.25	Yes		-0.708758021895055				ShowChoice	Gain
70.0	3	246.783	0.016	1279.395	7.79	3.9	-2.6277	1.0	955.0	1.68	Outcome1	7.79	8.5	3651.25	Yes		-0.708758021895055				ShowResult	Gain
70.0	3	247.799	0.016	1280.411	7.79	3.9	-2.6277	2.623	955.0	1.68	Outcome1	7.79	8.5	3651.25	Yes		-0.708758021895055				ISITrial	Gain
70.0	3	254.113	0.014	1286.725	7.79	3.9	-2.6277	1.289	955.0	1.68	Outcome1	7.79	8.5	3651.25	Yes		-0.708758021895055			800.0	TrialHappiness	Gain
70.0	3	258.129	4.016	1290.741	7.79	3.9	-2.6277	6.605	955.0	1.68	Outcome1	7.79	8.5	3651.25	Yes		-0.708758021895055				ISIRate	Gain
71.0	3	264.76	0.026	1297.372	5.1	2.0	-1.9902	3.0	955.0	2.22	Outcome2	-0.19	5.1	0.0	No	2.0	5.2876557191393	1.114	265.874		GetAnswer	Gain
71.0	3	265.893	0.019	1298.505	5.1	2.0	-1.9902	4.0	955.0	2.22	Outcome2	-0.19	5.1	0.0	No		5.2876557191393				ShowChoice	Gain
71.0	3	269.908	0.015	1302.52	5.1	2.0	-1.9902	1.0	955.0	2.22	Outcome2	-0.19	5.1	0.0	No		5.2876557191393				ShowResult	Gain
71.0	3	270.924	0.016	1303.536	5.1	2.0	-1.9902	5.499	955.0	2.22	Outcome2	-0.19	5.1	0.0	No		5.2876557191393				ISITrial	Gain
72.0	3	276.439	0.016	1309.051	6.3	0.42	-1.2027	3.0	955.0	5.0	Outcome2	0.84	6.3	3080.5	Yes	2.0	5.46319365798414	1.104	277.543		GetAnswer	Gain
72.0	3	277.555	0.012	1310.167	6.3	0.42	-1.2027	4.0	955.0	5.0	Outcome2	0.84	6.3	3080.5	Yes		5.46319365798414				ShowChoice	Gain
72.0	3	281.571	0.016	1314.183	6.3	0.42	-1.2027	1.0	955.0	5.0	Outcome2	0.84	6.3	3080.5	Yes		5.46319365798414				ShowResult	Gain
72.0	3	282.587	0.016	1315.199	6.3	0.42	-1.2027	5.672	955.0	5.0	Outcome2	0.84	6.3	3080.5	Yes		5.46319365798414				ISITrial	Gain
72.0	3	291.384	0.019	1323.996	6.3	0.42	-1.2027	1.439	955.0	5.0	Outcome2	0.84	6.3	3080.5	Yes		5.46319365798414			888.0	TrialHappiness	Gain
72.0	3	295.399	4.015	1328.011	6.3	0.42	-1.2027	4.322	955.0	5.0	Outcome2	0.84	6.3	3080.5	Yes		5.46319365798414				ISIRate	Gain
73.0	3	299.748	0.027	1332.36	2.0	2.0	-0.9527	3.0	955.0	1.5	Certain	-0.04	4.1	0.0	No	4.0	4.14382785956965	1.396	301.144		GetAnswer	Mixed
73.0	3	301.164	0.02	1333.776	2.0	2.0	-0.9527	4.0	955.0	1.5	Certain	-0.04	4.1	0.0	No		4.14382785956965				ShowChoice	Mixed
73.0	3	305.179	0.015	1337.791	2.0	2.0	-0.9527	1.0	955.0	1.5	Certain	-0.04	4.1	0.0	No		4.14382785956965				ShowResult	Mixed
73.0	3	306.195	0.016	1338.807	2.0	2.0	-0.9527	4.616	955.0	1.5	Certain	-0.04	4.1	0.0	No		4.14382785956965				ISITrial	Mixed
74.0	3	310.827	0.016	1343.439	0.0	0.0	-0.9527	3.0	955.0	1.0	Certain	-0.3	-0.83	3056.25	Yes	4.0	-0.528690071725179	1.028	311.855		GetAnswer	Mixed
74.0	3	311.877	0.022	1344.489	0.0	0.0	-0.9527	4.0	955.0	1.0	Certain	-0.3	-0.83	3056.25	Yes		-0.528690071725179				ShowChoice	Mixed
74.0	3	315.892	0.015	1348.504	0.0	0.0	-0.9527	1.0	955.0	1.0	Certain	-0.3	-0.83	3056.25	Yes		-0.528690071725179				ShowResult	Mixed
74.0	3	316.908	0.016	1349.52	0.0	0.0	-0.9527	3.909	955.0	1.0	Certain	-0.3	-0.83	3056.25	Yes		-0.528690071725179				ISITrial	Mixed
74.0	3	323.923	0.027	1356.535	0.0	0.0	-0.9527	1.606	955.0	1.0	Certain	-0.3	-0.83	3056.25	Yes		-0.528690071725179			816.0	TrialHappiness	Mixed
74.0	3	327.938	4.015	1360.55	0.0	0.0	-0.9527	4.225	955.0	1.0	Certain	-0.3	-0.83	3056.25	Yes		-0.528690071725179				ISIRate	Mixed
75.0	3	332.186	0.023	1364.798	7.9	1.19	0.0348	3.0	955.0	3.6	Outcome1	7.9	2.38	0.0	No	2.0	5.51868629671574	1.2	333.386		GetAnswer	Gain
75.0	3	333.403	0.017	1366.015	7.9	1.19	0.0348	4.0	955.0	3.6	Outcome1	7.9	2.38	0.0	No		5.51868629671574				ShowChoice	Gain
75.0	3	337.418	0.015	1370.03	7.9	1.19	0.0348	1.0	955.0	3.6	Outcome1	7.9	2.38	0.0	No		5.51868629671574				ShowResult	Gain
75.0	3	338.434	0.016	1371.046	7.9	1.19	0.0348	4.979	955.0	3.6	Outcome1	7.9	2.38	0.0	No		5.51868629671574				ISITrial	Gain
76.0	3	343.433	0.02	1376.045	8.46	4.23	1.0923	3.0	955.0	2.48	Outcome1	8.46	9.3	0.0	No	2.0	-0.840317100792752	1.039	344.472		GetAnswer	Gain
76.0	3	344.499	0.027	1377.111	8.46	4.23	1.0923	4.0	955.0	2.48	Outcome1	8.46	9.3	0.0	No		-0.840317100792752				ShowChoice	Gain
76.0	3	348.514	0.015	1381.126	8.46	4.23	1.0923	1.0	955.0	2.48	Outcome1	8.46	9.3	0.0	No		-0.840317100792752				ShowResult	Gain
76.0	3	349.53	0.016	1382.142	8.46	4.23	1.0923	3.931	955.0	2.48	Outcome1	8.46	9.3	0.0	No		-0.840317100792752				ISITrial	Gain
77.0	3	353.479	0.018	1386.091	-0.7	-3.0	1.0048	3.0	955.0	0.66	Outcome2	-6.53	-0.7	4000.0	Yes	2.0	5.833522083805209	1.439	354.918		GetAnswer	Mixed
77.0	3	354.945	0.027	1387.557	-0.7	-3.0	1.0048	4.0	955.0	0.66	Outcome2	-6.53	-0.7	4000.0	Yes		5.833522083805209				ShowChoice	Mixed
77.0	3	358.961	0.016	1391.573	-0.7	-3.0	1.0048	1.0	955.0	0.66	Outcome2	-6.53	-0.7	4000.0	Yes		5.833522083805209				ShowResult	Mixed
77.0	3	359.977	0.016	1392.589	-0.7	-3.0	1.0048	7.022	955.0	0.66	Outcome2	-6.53	-0.7	4000.0	Yes		5.833522083805209				ISITrial	Mixed
77.0	3	371.04	0.016	1403.652	-0.7	-3.0	1.0048	1.305	955.0	0.66	Outcome2	-6.53	-0.7	4000.0	Yes		5.833522083805209			832.0	TrialHappiness	Mixed
77.0	3	375.055	4.015	1407.667	-0.7	-3.0	1.0048	8.0	955.0	0.66	Outcome2	-6.53	-0.7	4000.0	Yes		5.833522083805209				ISIRate	Mixed
78.0	3	383.086	0.031	1415.698	11.1	2.69	2.3923	3.0	955.0	2.22	Outcome2	5.38	11.1	0.0	No	2.0	5.7191392978482405	1.076	384.162		GetAnswer	Loss
78.0	3	384.185	0.023	1416.797	11.1	2.69	2.3923	4.0	955.0	2.22	Outcome2	5.38	11.1	0.0	No		5.7191392978482405				ShowChoice	Loss
78.0	3	388.2	0.015	1420.812	11.1	2.69	2.3923	1.0	955.0	2.22	Outcome2	5.38	11.1	0.0	No		5.7191392978482405				ShowResult	Loss
78.0	3	389.217	0.017	1421.829	11.1	2.69	2.3923	2.078	955.0	2.22	Outcome2	5.38	11.1	0.0	No		5.7191392978482405				ISITrial	Loss
79.0	3	391.316	0.021	1423.928	-1.0	-1.0	2.2673	3.0	955.0	1.2	Certain	1.9	-3.96	2729.5	Yes	4.0	5.858437146092871	1.304	392.62		GetAnswer	Mixed
79.0	3	392.632	0.012	1425.244	-1.0	-1.0	2.2673	4.0	955.0	1.2	Certain	1.9	-3.96	2729.5	Yes		5.858437146092871				ShowChoice	Mixed
79.0	3	396.648	0.016	1429.26	-1.0	-1.0	2.2673	1.0	955.0	1.2	Certain	1.9	-3.96	2729.5	Yes		5.858437146092871				ShowResult	Mixed
79.0	3	397.664	0.016	1430.276	-1.0	-1.0	2.2673	3.829	955.0	1.2	Certain	1.9	-3.96	2729.5	Yes		5.858437146092871				ISITrial	Mixed
79.0	3	404.262	0.02	1436.874	-1.0	-1.0	2.2673	1.571	955.0	1.2	Certain	1.9	-3.96	2729.5	Yes		5.858437146092871			856.0	TrialHappiness	Mixed
79.0	3	408.277	4.015	1440.889	-1.0	-1.0	2.2673	2.918	955.0	1.2	Certain	1.9	-3.96	2729.5	Yes		5.858437146092871				ISIRate	Mixed
80.0	3	411.226	0.031	1443.838	10.7	2.56	3.6048	3.0	955.0	1.82	Outcome1	10.7	5.11	0.0	No	2.0	5.59003397508494	1.176	412.402		GetAnswer	Loss
80.0	3	412.425	0.023	1445.037	10.7	2.56	3.6048	4.0	955.0	1.82	Outcome1	10.7	5.11	0.0	No		5.59003397508494				ShowChoice	Loss
80.0	3	416.441	0.016	1449.053	10.7	2.56	3.6048	1.0	955.0	1.82	Outcome1	10.7	5.11	0.0	No		5.59003397508494				ShowResult	Loss
80.0	3	417.457	0.016	1450.069	10.7	2.56	3.6048	3.336	955.0	1.82	Outcome1	10.7	5.11	0.0	No		5.59003397508494				ISITrial	Loss
81.0	3	420.822	0.029	1453.434	0.36	0.0	3.6498	3.0	955.0	0.52	Outcome2	1.1	0.36	3923.75	Yes	2.0	-0.736787466968667	1.296	422.118		GetAnswer	Mixed
81.0	3	422.139	0.021	1454.751	0.36	0.0	3.6498	4.0	955.0	0.52	Outcome2	1.1	0.36	3923.75	Yes		-0.736787466968667				ShowChoice	Mixed
81.0	3	426.154	0.015	1458.766	0.36	0.0	3.6498	1.0	955.0	0.52	Outcome2	1.1	0.36	3923.75	Yes		-0.736787466968667				ShowResult	Mixed
81.0	3	427.17	0.016	1459.782	0.36	0.0	3.6498	3.919	955.0	0.52	Outcome2	1.1	0.36	3923.75	Yes		-0.736787466968667				ISITrial	Mixed
81.0	3	435.051	0.025	1467.663	0.36	0.0	3.6498	1.355	955.0	0.52	Outcome2	1.1	0.36	3923.75	Yes		-0.736787466968667			856.0	TrialHappiness	Mixed
81.0	3	439.066	4.015	1471.678	0.36	0.0	3.6498	7.695	955.0	0.52	Outcome2	1.1	0.36	3923.75	Yes		-0.736787466968667				ISIRate	Mixed
	3	446.78	0.019	1479.392				3.0													CurrentEarnings	
	3	449.796	0.016	1482.408				-0.001								{SPACE}		8.471	458.267		Goodbye	
