trial_number	block	onset	onset_delay	onset_unadjusted	amount_change	certain_amount	current_amount	duration	mood_target	multiplier	outcome	outcome1_amount	outcome2_amount	question_duration	rating	response	rpe	rt	rt_time	slider_response	trial_phase	trial_type
	0	-58.348	0.014	16.031				-0.001								{SPACE}		2.348	-56.0		Welcome	
	0	-55.983	0.017	18.396				5.0													LifeHappyPreview	
	0	-50.951	0.032	23.428				3.05												376.0	LifeHappiness	
	0	-26.16	0.017	48.219				4.0													BlockHappyPreview	
	0	-22.149	0.011	52.23				3.934												512.0	BlockStartHappiness	
	0	-0.484	0.013	73.895				-0.001								5.0					ScanWait	
	1	0.018	0.018	74.397				10.0													GetReady	
1.0	1	10.048	0.03	84.427	-3.1	-2.0	9.6125	3.0	955.0	0.3	Outcome2	-1.3	-3.1	0.0	No	2.0	-1.79775386938467	2.434	12.482		GetAnswer	Mixed
1.0	1	12.505	0.023	86.884	-3.1	-2.0	9.6125	4.0	955.0	0.3	Outcome2	-1.3	-3.1	0.0	No		-1.79775386938467				ShowChoice	Mixed
1.0	1	16.534	0.029	90.913	-3.1	-2.0	9.6125	1.0	955.0	0.3	Outcome2	-1.3	-3.1	0.0	No		-1.79775386938467				ShowResult	Mixed
1.0	1	17.553	0.019	91.932	-3.1	-2.0	9.6125	2.431	955.0	0.3	Outcome2	-1.3	-3.1	0.0	No		-1.79775386938467				ISITrial	Mixed
2.0	1	20.011	0.027	94.39	13.9	2.94	11.35	3.0	955.0	3.6	Outcome2	5.87	13.9	0.0	No	2.0	8.02718006795017	1.15	21.161		GetAnswer	Loss
2.0	1	21.181	0.02	95.56	13.9	2.94	11.35	4.0	955.0	3.6	Outcome2	5.87	13.9	0.0	No		8.02718006795017				ShowChoice	Loss
2.0	1	25.21	0.029	99.589	13.9	2.94	11.35	1.0	955.0	3.6	Outcome2	5.87	13.9	0.0	No		8.02718006795017				ShowResult	Loss
2.0	1	26.229	0.019	100.608	13.9	2.94	11.35	4.568	955.0	3.6	Outcome2	5.87	13.9	0.0	No		8.02718006795017				ISITrial	Loss
3.0	1	30.826	0.029	105.205	9.9	0.68	12.5875	3.0	955.0	3.6	Outcome2	1.37	9.9	2868.0	Yes	2.0	8.52887882219705	1.193	32.019		GetAnswer	Gain
3.0	1	32.047	0.028	106.426	9.9	0.68	12.5875	4.0	955.0	3.6	Outcome2	1.37	9.9	2868.0	Yes		8.52887882219705				ShowChoice	Gain
3.0	1	36.059	0.012	110.438	9.9	0.68	12.5875	1.0	955.0	3.6	Outcome2	1.37	9.9	2868.0	Yes		8.52887882219705				ShowResult	Gain
3.0	1	37.078	0.019	111.457	9.9	0.68	12.5875	3.243	955.0	3.6	Outcome2	1.37	9.9	2868.0	Yes		8.52887882219705				ISITrial	Gain
3.0	1	43.23	0.024	117.609	9.9	0.68	12.5875	2.853	955.0	3.6	Outcome2	1.37	9.9	2868.0	Yes	2{-2}2{-2}2{-2}2{-2}	8.52887882219705	2.853	46.083	592.0	TrialHappiness	Gain
3.0	1	47.242	4.012	121.621	9.9	0.68	12.5875	3.472	955.0	3.6	Outcome2	1.37	9.9	2868.0	Yes		8.52887882219705				ISIRate	Gain
4.0	1	50.736	0.022	125.115	-4.0	-4.0	12.0875	3.0	955.0	0.82	Certain	-8.17	-0.5	0.0	No	4.0	7.67157417893545	1.977	52.713		GetAnswer	Mixed
4.0	1	52.742	0.029	127.121	-4.0	-4.0	12.0875	4.0	955.0	0.82	Certain	-8.17	-0.5	0.0	No		7.67157417893545				ShowChoice	Mixed
4.0	1	56.771	0.029	131.15	-4.0	-4.0	12.0875	1.0	955.0	0.82	Certain	-8.17	-0.5	0.0	No		7.67157417893545				ShowResult	Mixed
4.0	1	57.79	0.019	132.169	-4.0	-4.0	12.0875	2.011	955.0	0.82	Certain	-8.17	-0.5	0.0	No		7.67157417893545				ISITrial	Mixed
5.0	1	59.83	0.029	134.209	-1.0	-1.0	11.9625	3.0	955.0	0.2	Certain	2.5	-5.58	2582.5	Yes	4.0	8.08267270668177	2.214	62.044		GetAnswer	Mixed
5.0	1	62.07	0.026	136.449	-1.0	-1.0	11.9625	4.0	955.0	0.2	Certain	2.5	-5.58	2582.5	Yes		8.08267270668177				ShowChoice	Mixed
5.0	1	66.098	0.028	140.477	-1.0	-1.0	11.9625	1.0	955.0	0.2	Certain	2.5	-5.58	2582.5	Yes		8.08267270668177				ShowResult	Mixed
5.0	1	67.118	0.02	141.497	-1.0	-1.0	11.9625	5.129	955.0	0.2	Certain	2.5	-5.58	2582.5	Yes		8.08267270668177				ISITrial	Mixed
5.0	1	74.875	0.026	149.254	-1.0	-1.0	11.9625	1.592	955.0	0.2	Certain	2.5	-5.58	2582.5	Yes		8.08267270668177			552.0	TrialHappiness	Mixed
5.0	1	78.903	4.028	153.282	-1.0	-1.0	11.9625	2.33	955.0	0.2	Certain	2.5	-5.58	2582.5	Yes		8.08267270668177				ISIRate	Mixed
6.0	1	81.26	0.027	155.639	1.87	0.94	12.1963	3.0	955.0	1.0	Outcome1	1.87	3.7	0.0	No	2.0	-1.82936957342393	0.835	82.095		GetAnswer	Mixed
6.0	1	82.113	0.018	156.492	1.87	0.94	12.1963	4.0	955.0	1.0	Outcome1	1.87	3.7	0.0	No		-1.82936957342393				ShowChoice	Mixed
6.0	1	86.142	0.029	160.521	1.87	0.94	12.1963	1.0	955.0	1.0	Outcome1	1.87	3.7	0.0	No		-1.82936957342393				ShowResult	Mixed
6.0	1	87.161	0.019	161.54	1.87	0.94	12.1963	6.232	955.0	1.0	Outcome1	1.87	3.7	0.0	No		-1.82936957342393				ISITrial	Mixed
7.0	1	93.413	0.02	167.792	0.0	0.0	12.1963	3.0	955.0	0.52	Certain	1.1	-0.77	0.0	No	4.0	-1.86740279350698	1.841	95.254		GetAnswer	Mixed
7.0	1	95.269	0.015	169.648	0.0	0.0	12.1963	4.0	955.0	0.52	Certain	1.1	-0.77	0.0	No		-1.86740279350698				ShowChoice	Mixed
7.0	1	99.281	0.012	173.66	0.0	0.0	12.1963	1.0	955.0	0.52	Certain	1.1	-0.77	0.0	No		-1.86740279350698				ShowResult	Mixed
7.0	1	100.301	0.02	174.68	0.0	0.0	12.1963	2.305	955.0	0.52	Certain	1.1	-0.77	0.0	No		-1.86740279350698				ISITrial	Mixed
8.0	1	102.641	0.035	177.02	0.5	-4.0	12.2588	3.0	955.0	0.2	Outcome1	0.5	-9.59	3112.5	Yes	2.0	10.0860702151755	1.99	104.631		GetAnswer	Mixed
8.0	1	104.647	0.016	179.026	0.5	-4.0	12.2588	4.0	955.0	0.2	Outcome1	0.5	-9.59	3112.5	Yes		10.0860702151755				ShowChoice	Mixed
8.0	1	108.676	0.029	183.055	0.5	-4.0	12.2588	1.0	955.0	0.2	Outcome1	0.5	-9.59	3112.5	Yes		10.0860702151755				ShowResult	Mixed
8.0	1	109.695	0.019	184.074	0.5	-4.0	12.2588	3.506	955.0	0.2	Outcome1	0.5	-9.59	3112.5	Yes		10.0860702151755				ISITrial	Mixed
8.0	1	116.365	0.031	190.744	0.5	-4.0	12.2588	0.794	955.0	0.2	Outcome1	0.5	-9.59	3112.5	Yes		10.0860702151755			472.0	TrialHappiness	Mixed
8.0	1	120.394	4.029	194.773	0.5	-4.0	12.2588	4.45	955.0	0.2	Outcome1	0.5	-9.59	3112.5	Yes		10.0860702151755				ISIRate	Mixed
9.0	1	124.874	0.03	199.253	0.0	0.0	12.2588	3.0	955.0	3.16	Certain	5.7	-6.2	0.0	No	4.0	11.901472253680598	2.328	127.202		GetAnswer	Gain
9.0	1	127.231	0.029	201.61	0.0	0.0	12.2588	4.0	955.0	3.16	Certain	5.7	-6.2	0.0	No		11.901472253680598				ShowChoice	Gain
9.0	1	131.26	0.029	205.639	0.0	0.0	12.2588	1.0	955.0	3.16	Certain	5.7	-6.2	0.0	No		11.901472253680598				ShowResult	Gain
9.0	1	132.279	0.019	206.658	0.0	0.0	12.2588	2.0	955.0	3.16	Certain	5.7	-6.2	0.0	No		11.901472253680598				ISITrial	Gain
10.0	1	134.302	0.023	208.681	2.0	2.0	12.5088	3.0	955.0	1.82	Certain	-3.75	8.7	4000.0	Yes	4.0	12.4484711211778	1.81	136.112		GetAnswer	Gain
10.0	1	136.141	0.029	210.52	2.0	2.0	12.5088	4.0	955.0	1.82	Certain	-3.75	8.7	4000.0	Yes		12.4484711211778				ShowChoice	Gain
10.0	1	140.17	0.029	214.549	2.0	2.0	12.5088	1.0	955.0	1.82	Certain	-3.75	8.7	4000.0	Yes		12.4484711211778				ShowResult	Gain
10.0	1	141.189	0.019	215.568	2.0	2.0	12.5088	2.0	955.0	1.82	Certain	-3.75	8.7	4000.0	Yes		12.4484711211778				ISITrial	Gain
10.0	1	147.241	0.029	221.62	2.0	2.0	12.5088	0.0	955.0	1.82	Certain	-3.75	8.7	4000.0	Yes		12.4484711211778			512.0	TrialHappiness	Gain
10.0	1	151.269	4.028	225.648	2.0	2.0	12.5088	8.0	955.0	1.82	Certain	-3.75	8.7	4000.0	Yes		12.4484711211778				ISIRate	Gain
11.0	1	159.293	0.024	233.672	7.3	1.0	13.4213	3.0	955.0	2.48	Outcome1	7.3	-5.02	0.0	No	2.0	12.315968289920699	1.545	160.838		GetAnswer	Gain
11.0	1	160.865	0.027	235.244	7.3	1.0	13.4213	4.0	955.0	2.48	Outcome1	7.3	-5.02	0.0	No		12.315968289920699				ShowChoice	Gain
11.0	1	164.893	0.028	239.272	7.3	1.0	13.4213	1.0	955.0	2.48	Outcome1	7.3	-5.02	0.0	No		12.315968289920699				ShowResult	Gain
11.0	1	165.913	0.02	240.292	7.3	1.0	13.4213	3.324	955.0	2.48	Outcome1	7.3	-5.02	0.0	No		12.315968289920699				ISITrial	Gain
12.0	1	169.256	0.019	243.635	-3.0	-3.0	13.0463	3.0	955.0	0.66	Certain	3.3	-9.52	2618.75	Yes	4.0	12.8176670441676	2.396	171.652		GetAnswer	Mixed
12.0	1	171.68	0.028	246.059	-3.0	-3.0	13.0463	4.0	955.0	0.66	Certain	3.3	-9.52	2618.75	Yes		12.8176670441676				ShowChoice	Mixed
12.0	1	175.709	0.029	250.088	-3.0	-3.0	13.0463	1.0	955.0	0.66	Certain	3.3	-9.52	2618.75	Yes		12.8176670441676				ShowResult	Mixed
12.0	1	176.729	0.02	251.108	-3.0	-3.0	13.0463	6.642	955.0	0.66	Certain	3.3	-9.52	2618.75	Yes		12.8176670441676				ISITrial	Mixed
12.0	1	186.04	0.022	260.419	-3.0	-3.0	13.0463	0.725	955.0	0.66	Certain	3.3	-9.52	2618.75	Yes		12.8176670441676			488.0	TrialHappiness	Mixed
12.0	1	190.069	4.029	264.448	-3.0	-3.0	13.0463	2.475	955.0	0.66	Certain	3.3	-9.52	2618.75	Yes		12.8176670441676				ISIRate	Mixed
13.0	1	192.576	0.032	266.955	-8.0	-8.0	12.0463	3.0	955.0	0.52	Certain	-0.9	-14.63	0.0	No	4.0	13.727066817667	1.658	194.234		GetAnswer	Mixed
13.0	1	194.266	0.031	268.645	-8.0	-8.0	12.0463	4.0	955.0	0.52	Certain	-0.9	-14.63	0.0	No		13.727066817667				ShowChoice	Mixed
13.0	1	198.293	0.027	272.672	-8.0	-8.0	12.0463	1.0	955.0	0.52	Certain	-0.9	-14.63	0.0	No		13.727066817667				ShowResult	Mixed
13.0	1	199.313	0.02	273.692	-8.0	-8.0	12.0463	3.48	955.0	0.52	Certain	-0.9	-14.63	0.0	No		13.727066817667				ISITrial	Mixed
14.0	1	202.823	0.03	277.202	7.7	0.0	13.0088	3.0	955.0	3.16	Outcome2	-6.56	7.7	0.0	No	2.0	14.255945639864098	1.662	204.485		GetAnswer	Gain
14.0	1	204.512	0.027	278.891	7.7	0.0	13.0088	4.0	955.0	3.16	Outcome2	-6.56	7.7	0.0	No		14.255945639864098				ShowChoice	Gain
14.0	1	208.54	0.028	282.919	7.7	0.0	13.0088	1.0	955.0	3.16	Outcome2	-6.56	7.7	0.0	No		14.255945639864098				ShowResult	Gain
14.0	1	209.56	0.02	283.939	7.7	0.0	13.0088	5.019	955.0	3.16	Outcome2	-6.56	7.7	0.0	No		14.255945639864098				ISITrial	Gain
15.0	1	214.609	0.03	288.988	8.1	0.0	14.0213	3.0	955.0	4.2	Outcome1	8.1	-6.68	3348.5	Yes	2.0	14.7848244620612	1.363	215.972		GetAnswer	Gain
15.0	1	215.996	0.024	290.375	8.1	0.0	14.0213	4.0	955.0	4.2	Outcome1	8.1	-6.68	3348.5	Yes		14.7848244620612				ShowChoice	Gain
15.0	1	220.025	0.029	294.404	8.1	0.0	14.0213	1.0	955.0	4.2	Outcome1	8.1	-6.68	3348.5	Yes		14.7848244620612				ShowResult	Gain
15.0	1	221.044	0.019	295.423	8.1	0.0	14.0213	7.614	955.0	4.2	Outcome1	8.1	-6.68	3348.5	Yes		14.7848244620612				ISITrial	Gain
15.0	1	232.061	0.029	306.44	8.1	0.0	14.0213	0.694	955.0	4.2	Outcome1	8.1	-6.68	3348.5	Yes		14.7848244620612			496.0	TrialHappiness	Gain
15.0	1	236.089	4.028	310.468	8.1	0.0	14.0213	5.394	955.0	4.2	Outcome1	8.1	-6.68	3348.5	Yes		14.7848244620612				ISIRate	Gain
16.0	1	241.506	0.023	315.885	-3.0	-3.0	13.6463	3.0	955.0	2.0	Certain	4.3	-10.88	0.0	No	4.0	15.177802944507402	1.787	243.293		GetAnswer	Mixed
16.0	1	243.311	0.018	317.69	-3.0	-3.0	13.6463	4.0	955.0	2.0	Certain	4.3	-10.88	0.0	No		15.177802944507402				ShowChoice	Mixed
16.0	1	247.34	0.029	321.719	-3.0	-3.0	13.6463	1.0	955.0	2.0	Certain	4.3	-10.88	0.0	No		15.177802944507402				ShowResult	Mixed
16.0	1	248.359	0.019	322.738	-3.0	-3.0	13.6463	3.008	955.0	2.0	Certain	4.3	-10.88	0.0	No		15.177802944507402				ISITrial	Mixed
17.0	1	251.402	0.035	325.781	0.9	-7.0	13.7588	3.0	955.0	0.4	Outcome1	0.9	-14.8	3041.5	Yes	2.0	15.6976217440544	1.718	253.12		GetAnswer	Mixed
17.0	1	253.14	0.02	327.519	0.9	-7.0	13.7588	4.0	955.0	0.4	Outcome1	0.9	-14.8	3041.5	Yes		15.6976217440544				ShowChoice	Mixed
17.0	1	257.152	0.012	331.531	0.9	-7.0	13.7588	1.0	955.0	0.4	Outcome1	0.9	-14.8	3041.5	Yes		15.6976217440544				ShowResult	Mixed
17.0	1	258.172	0.02	332.551	0.9	-7.0	13.7588	3.566	955.0	0.4	Outcome1	0.9	-14.8	3041.5	Yes		15.6976217440544				ISITrial	Mixed
17.0	1	264.842	0.034	339.221	0.9	-7.0	13.7588	1.294	955.0	0.4	Outcome1	0.9	-14.8	3041.5	Yes		15.6976217440544			456.0	TrialHappiness	Mixed
17.0	1	268.871	4.029	343.25	0.9	-7.0	13.7588	4.166	955.0	0.4	Outcome1	0.9	-14.8	3041.5	Yes		15.6976217440544				ISIRate	Mixed
18.0	1	273.066	0.029	347.445	-0.7	-9.0	13.6713	3.0	955.0	0.66	Outcome2	-17.6	-0.7	0.0	No	2.0	16.8969422423556	2.669	275.735		GetAnswer	Mixed
18.0	1	275.758	0.023	350.137	-0.7	-9.0	13.6713	4.0	955.0	0.66	Outcome2	-17.6	-0.7	0.0	No		16.8969422423556				ShowChoice	Mixed
18.0	1	279.77	0.012	354.149	-0.7	-9.0	13.6713	1.0	955.0	0.66	Outcome2	-17.6	-0.7	0.0	No		16.8969422423556				ShowResult	Mixed
18.0	1	280.79	0.02	355.169	-0.7	-9.0	13.6713	6.787	955.0	0.66	Outcome2	-17.6	-0.7	0.0	No		16.8969422423556				ISITrial	Mixed
19.0	1	287.593	0.016	361.972	13.3	-2.08	15.3338	3.0	955.0	2.48	Outcome1	13.3	-4.16	0.0	No	2.0	17.4620611551529	1.122	288.715		GetAnswer	Loss
19.0	1	288.73	0.015	363.109	13.3	-2.08	15.3338	4.0	955.0	2.48	Outcome1	13.3	-4.16	0.0	No		17.4620611551529				ShowChoice	Loss
19.0	1	292.742	0.012	367.121	13.3	-2.08	15.3338	1.0	955.0	2.48	Outcome1	13.3	-4.16	0.0	No		17.4620611551529				ShowResult	Loss
19.0	1	293.762	0.02	368.141	13.3	-2.08	15.3338	2.0	955.0	2.48	Outcome1	13.3	-4.16	0.0	No		17.4620611551529				ISITrial	Loss
20.0	1	295.784	0.022	370.163	-0.72	0.0	15.2438	3.0	955.0	1.5	Outcome2	2.1	-0.72	2921.25	Yes	2.0	-2.82087580218951	2.083	297.867		GetAnswer	Mixed
20.0	1	297.891	0.024	372.27	-0.72	0.0	15.2438	4.0	955.0	1.5	Outcome2	2.1	-0.72	2921.25	Yes		-2.82087580218951				ShowChoice	Mixed
20.0	1	301.903	0.012	376.282	-0.72	0.0	15.2438	1.0	955.0	1.5	Outcome2	2.1	-0.72	2921.25	Yes		-2.82087580218951				ShowResult	Mixed
20.0	1	302.922	0.019	377.301	-0.72	0.0	15.2438	8.0	955.0	1.5	Outcome2	2.1	-0.72	2921.25	Yes		-2.82087580218951				ISITrial	Mixed
20.0	1	313.888	0.021	388.267	-0.72	0.0	15.2438	0.672	955.0	1.5	Outcome2	2.1	-0.72	2921.25	Yes		-2.82087580218951			532.0	TrialHappiness	Mixed
20.0	1	317.9	4.012	392.279	-0.72	0.0	15.2438	3.685	955.0	1.5	Outcome2	2.1	-0.72	2921.25	Yes		-2.82087580218951				ISIRate	Mixed
21.0	1	321.611	0.026	395.99	9.34	4.67	16.4113	3.0	955.0	3.6	Outcome2	11.9	9.34	0.0	No	2.0	-2.5595507738769303	1.46	323.071		GetAnswer	Loss
21.0	1	323.083	0.012	397.462	9.34	4.67	16.4113	4.0	955.0	3.6	Outcome2	11.9	9.34	0.0	No		-2.5595507738769303				ShowChoice	Loss
21.0	1	327.095	0.012	401.474	9.34	4.67	16.4113	1.0	955.0	3.6	Outcome2	11.9	9.34	0.0	No		-2.5595507738769303				ShowResult	Loss
21.0	1	328.114	0.019	402.493	9.34	4.67	16.4113	3.555	955.0	3.6	Outcome2	11.9	9.34	0.0	No		-2.5595507738769303				ISITrial	Loss
22.0	1	331.692	0.023	406.071	0.0	0.0	16.4113	3.0	955.0	2.8	Certain	9.5	-8.28	3219.5	Yes	4.0	17.7802944507361	1.767	333.459		GetAnswer	Gain
22.0	1	333.514	0.055	407.893	0.0	0.0	16.4113	4.0	955.0	2.8	Certain	9.5	-8.28	3219.5	Yes		17.7802944507361				ShowChoice	Gain
22.0	1	337.526	0.012	411.905	0.0	0.0	16.4113	1.0	955.0	2.8	Certain	9.5	-8.28	3219.5	Yes		17.7802944507361				ShowResult	Gain
22.0	1	338.545	0.019	412.924	0.0	0.0	16.4113	6.793	955.0	2.8	Certain	9.5	-8.28	3219.5	Yes		17.7802944507361				ISITrial	Gain
22.0	1	348.592	0.023	422.971	0.0	0.0	16.4113	0.747	955.0	2.8	Certain	9.5	-8.28	3219.5	Yes		17.7802944507361			532.0	TrialHappiness	Gain
22.0	1	352.604	4.012	426.983	0.0	0.0	16.4113	4.878	955.0	2.8	Certain	9.5	-8.28	3219.5	Yes		17.7802944507361				ISIRate	Gain
23.0	1	357.502	0.02	431.881	-1.0	-1.0	16.2863	3.0	955.0	3.6	Certain	-10.36	7.9	0.0	No	4.0	18.2593431483579	1.97	359.472		GetAnswer	Gain
23.0	1	359.491	0.019	433.87	-1.0	-1.0	16.2863	4.0	955.0	3.6	Certain	-10.36	7.9	0.0	No		18.2593431483579				ShowChoice	Gain
23.0	1	363.503	0.012	437.882	-1.0	-1.0	16.2863	1.0	955.0	3.6	Certain	-10.36	7.9	0.0	No		18.2593431483579				ShowResult	Gain
23.0	1	364.523	0.02	438.902	-1.0	-1.0	16.2863	8.0	955.0	3.6	Certain	-10.36	7.9	0.0	No		18.2593431483579				ISITrial	Gain
24.0	1	372.547	0.024	446.926	12.7	-3.02	17.8738	3.0	955.0	1.82	Outcome2	-6.04	12.7	3255.0	Yes	2.0	18.738391845979603	1.523	374.07		GetAnswer	Loss
24.0	1	374.085	0.015	448.464	12.7	-3.02	17.8738	4.0	955.0	1.82	Outcome2	-6.04	12.7	3255.0	Yes		18.738391845979603				ShowChoice	Loss
24.0	1	378.097	0.012	452.476	12.7	-3.02	17.8738	1.0	955.0	1.82	Outcome2	-6.04	12.7	3255.0	Yes		18.738391845979603				ShowResult	Loss
24.0	1	379.117	0.02	453.496	12.7	-3.02	17.8738	2.0	955.0	1.82	Outcome2	-6.04	12.7	3255.0	Yes		18.738391845979603				ISITrial	Loss
24.0	1	384.416	0.022	458.795	12.7	-3.02	17.8738	2.234	955.0	1.82	Outcome2	-6.04	12.7	3255.0	Yes		18.738391845979603			552.0	TrialHappiness	Loss
24.0	1	388.428	4.012	462.807	12.7	-3.02	17.8738	5.02	955.0	1.82	Outcome2	-6.04	12.7	3255.0	Yes		18.738391845979603				ISIRate	Loss
25.0	1	393.476	0.028	467.855	13.5	-2.69	19.5613	3.0	955.0	2.8	Outcome1	13.5	-5.38	0.0	No	2.0	18.877689694224202	1.537	395.013		GetAnswer	Loss
25.0	1	395.031	0.018	469.41	13.5	-2.69	19.5613	4.0	955.0	2.8	Outcome1	13.5	-5.38	0.0	No		18.877689694224202				ShowChoice	Loss
25.0	1	399.043	0.012	473.422	13.5	-2.69	19.5613	1.0	955.0	2.8	Outcome1	13.5	-5.38	0.0	No		18.877689694224202				ShowResult	Loss
25.0	1	400.062	0.019	474.441	13.5	-2.69	19.5613	3.749	955.0	2.8	Outcome1	13.5	-5.38	0.0	No		18.877689694224202				ISITrial	Loss
26.0	1	403.84	0.029	478.219	1.0	1.0	19.6863	3.0	955.0	2.0	Certain	2.3	-0.38	0.0	No	4.0	-2.67610419026048	1.755	405.595		GetAnswer	Mixed
26.0	1	405.612	0.017	479.991	1.0	1.0	19.6863	4.0	955.0	2.0	Certain	2.3	-0.38	0.0	No		-2.67610419026048				ShowChoice	Mixed
26.0	1	409.624	0.012	484.003	1.0	1.0	19.6863	1.0	955.0	2.0	Certain	2.3	-0.38	0.0	No		-2.67610419026048				ShowResult	Mixed
26.0	1	410.644	0.02	485.023	1.0	1.0	19.6863	7.834	955.0	2.0	Certain	2.3	-0.38	0.0	No		-2.67610419026048				ISITrial	Mixed
27.0	1	418.501	0.023	492.88	8.5	-1.0	20.7488	3.0	955.0	1.68	Outcome1	8.5	-11.29	2549.75	Yes	2.0	19.790486976217398	1.527	420.028		GetAnswer	Gain
27.0	1	420.055	0.027	494.434	8.5	-1.0	20.7488	4.0	955.0	1.68	Outcome1	8.5	-11.29	2549.75	Yes		19.790486976217398				ShowChoice	Gain
27.0	1	424.067	0.012	498.446	8.5	-1.0	20.7488	1.0	955.0	1.68	Outcome1	8.5	-11.29	2549.75	Yes		19.790486976217398				ShowResult	Gain
27.0	1	425.087	0.02	499.466	8.5	-1.0	20.7488	4.225	955.0	1.68	Outcome1	8.5	-11.29	2549.75	Yes		19.790486976217398				ISITrial	Gain
27.0	1	431.908	0.025	506.287	8.5	-1.0	20.7488	1.275	955.0	1.68	Outcome1	8.5	-11.29	2549.75	Yes		19.790486976217398			560.0	TrialHappiness	Gain
27.0	1	435.92	4.012	510.299	8.5	-1.0	20.7488	2.199	955.0	1.68	Outcome1	8.5	-11.29	2549.75	Yes		19.790486976217398				ISIRate	Gain
	1	438.143	0.024	512.522				-0.001								{SPACE}		49.539	487.682		Rest	
	1	487.708	0.026	562.087				4.0													BlockHappyPreview	
	1	491.719	0.011	566.098				2.351												548.0	BlockStartHappiness	
	1	498.222	0.013	572.601				-0.001								5.0		1.404	499.626		ScanWait	
	2	0.017	0.017	574.022				10.0													GetReady	
28.0	2	10.03	0.013	584.035	-1.03	-0.52	20.62	3.0	70.0	2.22	Outcome1	-1.03	7.1	0.0	No	2.0	-8.12925170068027	1.214	11.244		GetAnswer	Gain
28.0	2	11.267	0.023	585.272	-1.03	-0.52	20.62	4.0	70.0	2.22	Outcome1	-1.03	7.1	0.0	No		-8.12925170068027				ShowChoice	Gain
28.0	2	15.279	0.012	589.284	-1.03	-0.52	20.62	1.0	70.0	2.22	Outcome1	-1.03	7.1	0.0	No		-8.12925170068027				ShowResult	Gain
28.0	2	16.299	0.02	590.304	-1.03	-0.52	20.62	3.575	70.0	2.22	Outcome1	-1.03	7.1	0.0	No		-8.12925170068027				ISITrial	Gain
29.0	2	19.893	0.019	593.898	0.43	0.22	20.6738	3.0	70.0	2.22	Outcome1	0.43	9.1	3529.0	Yes	2.0	-8.671201814058959	1.753	21.646		GetAnswer	Gain
29.0	2	21.665	0.019	595.67	0.43	0.22	20.6738	4.0	70.0	2.22	Outcome1	0.43	9.1	3529.0	Yes		-8.671201814058959				ShowChoice	Gain
29.0	2	25.677	0.012	599.682	0.43	0.22	20.6738	1.0	70.0	2.22	Outcome1	0.43	9.1	3529.0	Yes		-8.671201814058959				ShowResult	Gain
29.0	2	26.697	0.02	600.702	0.43	0.22	20.6738	3.955	70.0	2.22	Outcome1	0.43	9.1	3529.0	Yes		-8.671201814058959				ISITrial	Gain
29.0	2	34.219	0.015	608.224	0.43	0.22	20.6738	2.185	70.0	2.22	Outcome1	0.43	9.1	3529.0	Yes	4{-4}2{-2}2{-2}	-8.671201814058959	2.185	36.404	472.0	TrialHappiness	Gain
29.0	2	38.248	4.029	612.253	0.43	0.22	20.6738	6.116	70.0	2.22	Outcome1	0.43	9.1	3529.0	Yes		-8.671201814058959				ISIRate	Gain
30.0	2	44.383	0.019	618.388	3.78	1.89	21.1463	3.0	70.0	3.16	Outcome1	3.78	11.7	0.0	No	2.0	-7.920634920634919	1.219	45.602		GetAnswer	Loss
30.0	2	45.62	0.018	619.625	3.78	1.89	21.1463	4.0	70.0	3.16	Outcome1	3.78	11.7	0.0	No		-7.920634920634919				ShowChoice	Loss
30.0	2	49.632	0.012	623.637	3.78	1.89	21.1463	1.0	70.0	3.16	Outcome1	3.78	11.7	0.0	No		-7.920634920634919				ShowResult	Loss
30.0	2	50.652	0.02	624.657	3.78	1.89	21.1463	4.453	70.0	3.16	Outcome1	3.78	11.7	0.0	No		-7.920634920634919				ISITrial	Loss
31.0	2	55.132	0.027	629.137	2.72	1.36	21.4863	3.0	70.0	2.22	Outcome2	11.1	2.72	2503.25	Yes	2.0	-8.37641723356009	1.228	56.36		GetAnswer	Loss
31.0	2	56.386	0.026	630.391	2.72	1.36	21.4863	4.0	70.0	2.22	Outcome2	11.1	2.72	2503.25	Yes		-8.37641723356009				ShowChoice	Loss
31.0	2	60.397	0.011	634.402	2.72	1.36	21.4863	1.0	70.0	2.22	Outcome2	11.1	2.72	2503.25	Yes		-8.37641723356009				ShowResult	Loss
31.0	2	61.417	0.02	635.422	2.72	1.36	21.4863	4.786	70.0	2.22	Outcome2	11.1	2.72	2503.25	Yes		-8.37641723356009				ISITrial	Loss
31.0	2	68.756	0.021	642.761	2.72	1.36	21.4863	1.227	70.0	2.22	Outcome2	11.1	2.72	2503.25	Yes		-8.37641723356009			488.0	TrialHappiness	Loss
31.0	2	72.784	4.028	646.789	2.72	1.36	21.4863	2.013	70.0	2.22	Outcome2	11.1	2.72	2503.25	Yes		-8.37641723356009				ISIRate	Loss
32.0	2	74.824	0.027	648.829	-4.0	-4.0	20.9863	3.0	70.0	1.2	Certain	-9.2	-0.1	0.0	No	4.0	-9.10430839002268	2.863	77.687		GetAnswer	Mixed
32.0	2	77.716	0.029	651.721	-4.0	-4.0	20.9863	4.0	70.0	1.2	Certain	-9.2	-0.1	0.0	No		-9.10430839002268				ShowChoice	Mixed
32.0	2	81.728	0.012	655.733	-4.0	-4.0	20.9863	1.0	70.0	1.2	Certain	-9.2	-0.1	0.0	No		-9.10430839002268				ShowResult	Mixed
32.0	2	82.748	0.02	656.753	-4.0	-4.0	20.9863	2.0	70.0	1.2	Certain	-9.2	-0.1	0.0	No		-9.10430839002268				ISITrial	Mixed
33.0	2	84.77	0.022	658.775	-6.68	-2.0	20.1513	3.0	70.0	0.4	Outcome2	2.9	-6.68	0.0	No	2.0	-9.57823129251701	1.404	86.174		GetAnswer	Mixed
33.0	2	86.191	0.017	660.196	-6.68	-2.0	20.1513	4.0	70.0	0.4	Outcome2	2.9	-6.68	0.0	No		-9.57823129251701				ShowChoice	Mixed
33.0	2	90.22	0.029	664.225	-6.68	-2.0	20.1513	1.0	70.0	0.4	Outcome2	2.9	-6.68	0.0	No		-9.57823129251701				ShowResult	Mixed
33.0	2	91.24	0.02	665.245	-6.68	-2.0	20.1513	5.099	70.0	0.4	Outcome2	2.9	-6.68	0.0	No		-9.57823129251701				ISITrial	Mixed
34.0	2	96.372	0.033	670.377	-11.15	-6.0	18.7575	3.0	70.0	0.4	Outcome2	-1.1	-11.15	3231.5	Yes	2.0	-10.052154195011301	2.241	98.613		GetAnswer	Mixed
34.0	2	98.628	0.015	672.633	-11.15	-6.0	18.7575	4.0	70.0	0.4	Outcome2	-1.1	-11.15	3231.5	Yes		-10.052154195011301				ShowChoice	Mixed
34.0	2	102.64	0.012	676.645	-11.15	-6.0	18.7575	1.0	70.0	0.4	Outcome2	-1.1	-11.15	3231.5	Yes		-10.052154195011301				ShowResult	Mixed
34.0	2	103.66	0.02	677.665	-11.15	-6.0	18.7575	4.784	70.0	0.4	Outcome2	-1.1	-11.15	3231.5	Yes		-10.052154195011301				ISITrial	Mixed
34.0	2	111.734	0.028	685.739	-11.15	-6.0	18.7575	2.449	70.0	0.4	Outcome2	-1.1	-11.15	3231.5	Yes		-10.052154195011301			380.0	TrialHappiness	Mixed
34.0	2	115.763	4.029	689.768	-11.15	-6.0	18.7575	4.926	70.0	0.4	Outcome2	-1.1	-11.15	3231.5	Yes		-10.052154195011301				ISIRate	Mixed
35.0	2	120.711	0.022	694.716	0.0	0.0	18.7575	3.0	70.0	2.22	Certain	-0.27	1.27	0.0	No	4.0	1.5442176870748299	2.11	122.821		GetAnswer	Gain
35.0	2	122.834	0.013	696.839	0.0	0.0	18.7575	4.0	70.0	2.22	Certain	-0.27	1.27	0.0	No		1.5442176870748299				ShowChoice	Gain
35.0	2	126.863	0.029	700.868	0.0	0.0	18.7575	1.0	70.0	2.22	Certain	-0.27	1.27	0.0	No		1.5442176870748299				ShowResult	Gain
35.0	2	127.882	0.019	701.887	0.0	0.0	18.7575	2.098	70.0	2.22	Certain	-0.27	1.27	0.0	No		1.5442176870748299				ISITrial	Gain
36.0	2	130.005	0.025	704.01	-0.08	-1.0	18.7475	3.0	70.0	1.0	Outcome1	-0.08	-1.65	3335.75	Yes	2.0	1.5735071806500398	2.578	132.583		GetAnswer	Mixed
36.0	2	132.613	0.03	706.618	-0.08	-1.0	18.7475	4.0	70.0	1.0	Outcome1	-0.08	-1.65	3335.75	Yes		1.5735071806500398				ShowChoice	Mixed
36.0	2	136.625	0.012	710.63	-0.08	-1.0	18.7475	1.0	70.0	1.0	Outcome1	-0.08	-1.65	3335.75	Yes		1.5735071806500398				ShowResult	Mixed
36.0	2	137.645	0.02	711.65	-0.08	-1.0	18.7475	5.156	70.0	1.0	Outcome1	-0.08	-1.65	3335.75	Yes		1.5735071806500398				ISITrial	Mixed
36.0	2	146.187	0.024	720.192	-0.08	-1.0	18.7475	1.941	70.0	1.0	Outcome1	-0.08	-1.65	3335.75	Yes	4{-4}4{-4}4{-4}4{-4}	1.5735071806500398	1.941	148.128	452.0	TrialHappiness	Mixed
36.0	2	150.216	4.029	724.221	-0.08	-1.0	18.7475	5.343	70.0	1.0	Outcome1	-0.08	-1.65	3335.75	Yes		1.5735071806500398				ISIRate	Mixed
37.0	2	155.582	0.023	729.587	-9.32	-4.0	17.5825	3.0	70.0	0.66	Outcome1	-9.32	1.3	0.0	No	2.0	-10.6167800453515	2.178	157.76		GetAnswer	Mixed
37.0	2	157.788	0.028	731.793	-9.32	-4.0	17.5825	4.0	70.0	0.66	Outcome1	-9.32	1.3	0.0	No		-10.6167800453515				ShowChoice	Mixed
37.0	2	161.8	0.012	735.805	-9.32	-4.0	17.5825	1.0	70.0	0.66	Outcome1	-9.32	1.3	0.0	No		-10.6167800453515				ShowResult	Mixed
37.0	2	162.82	0.02	736.825	-9.32	-4.0	17.5825	3.598	70.0	0.66	Outcome1	-9.32	1.3	0.0	No		-10.6167800453515				ISITrial	Mixed
38.0	2	166.448	0.03	740.453	-6.35	-1.0	16.7887	3.0	70.0	1.82	Outcome2	4.7	-6.35	0.0	No	2.0	-11.049886621315201	1.543	167.991		GetAnswer	Gain
38.0	2	168.019	0.028	742.024	-6.35	-1.0	16.7887	4.0	70.0	1.82	Outcome2	4.7	-6.35	0.0	No		-11.049886621315201				ShowChoice	Gain
38.0	2	172.048	0.029	746.053	-6.35	-1.0	16.7887	1.0	70.0	1.82	Outcome2	4.7	-6.35	0.0	No		-11.049886621315201				ShowResult	Gain
38.0	2	173.067	0.019	747.072	-6.35	-1.0	16.7887	4.787	70.0	1.82	Outcome2	4.7	-6.35	0.0	No		-11.049886621315201				ISITrial	Gain
39.0	2	177.882	0.028	751.887	-5.0	-5.0	16.1637	3.0	70.0	1.5	Certain	0.1	-11.38	2864.25	Yes	4.0	-11.4829931972789	1.945	179.827		GetAnswer	Mixed
39.0	2	179.854	0.027	753.859	-5.0	-5.0	16.1637	4.0	70.0	1.5	Certain	0.1	-11.38	2864.25	Yes		-11.4829931972789				ShowChoice	Mixed
39.0	2	183.883	0.029	757.888	-5.0	-5.0	16.1637	1.0	70.0	1.5	Certain	0.1	-11.38	2864.25	Yes		-11.4829931972789				ShowResult	Mixed
39.0	2	184.903	0.02	758.908	-5.0	-5.0	16.1637	2.348	70.0	1.5	Certain	0.1	-11.38	2864.25	Yes		-11.4829931972789				ISITrial	Mixed
39.0	2	190.168	0.028	764.173	-5.0	-5.0	16.1637	2.735	70.0	1.5	Certain	0.1	-11.38	2864.25	Yes	4{-4}4{-4}4{-4}2{-2}2{-2}2{-2}	-11.4829931972789	2.735	192.903	312.0	TrialHappiness	Mixed
39.0	2	194.18	4.012	768.185	-5.0	-5.0	16.1637	3.457	70.0	1.5	Certain	0.1	-11.38	2864.25	Yes		-11.4829931972789				ISIRate	Mixed
40.0	2	197.657	0.02	771.662	0.78	0.0	16.2612	3.0	70.0	0.52	Outcome2	-0.65	0.78	0.0	No	2.0	1.4348072562358303	2.474	200.131		GetAnswer	Mixed
40.0	2	200.148	0.017	774.153	0.78	0.0	16.2612	4.0	70.0	0.52	Outcome2	-0.65	0.78	0.0	No		1.4348072562358303				ShowChoice	Mixed
40.0	2	204.16	0.012	778.165	0.78	0.0	16.2612	1.0	70.0	0.52	Outcome2	-0.65	0.78	0.0	No		1.4348072562358303				ShowResult	Mixed
40.0	2	205.18	0.02	779.185	0.78	0.0	16.2612	3.158	70.0	0.52	Outcome2	-0.65	0.78	0.0	No		1.4348072562358303				ISITrial	Mixed
41.0	2	208.356	0.018	782.361	-0.51	-0.26	16.1974	3.0	70.0	2.48	Outcome1	-0.51	9.3	4000.0	Yes	2.0	-9.80952380952381	1.525	209.881		GetAnswer	Gain
41.0	2	209.894	0.013	783.899	-0.51	-0.26	16.1974	4.0	70.0	2.48	Outcome1	-0.51	9.3	4000.0	Yes		-9.80952380952381				ShowChoice	Gain
41.0	2	213.906	0.012	787.911	-0.51	-0.26	16.1974	1.0	70.0	2.48	Outcome1	-0.51	9.3	4000.0	Yes		-9.80952380952381				ShowResult	Gain
41.0	2	214.926	0.02	788.931	-0.51	-0.26	16.1974	4.506	70.0	2.48	Outcome1	-0.51	9.3	4000.0	Yes		-9.80952380952381				ISITrial	Gain
41.0	2	223.485	0.029	797.49	-0.51	-0.26	16.1974	1.395	70.0	2.48	Outcome1	-0.51	9.3	4000.0	Yes		-9.80952380952381			408.0	TrialHappiness	Gain
41.0	2	227.497	4.012	801.502	-0.51	-0.26	16.1974	8.0	70.0	2.48	Outcome1	-0.51	9.3	4000.0	Yes		-9.80952380952381				ISIRate	Gain
42.0	2	235.52	0.023	809.525	-2.02	-1.01	15.9449	3.0	70.0	3.16	Outcome2	9.7	-2.02	0.0	No	2.0	-11.7165532879819	1.201	236.721		GetAnswer	Gain
42.0	2	236.741	0.02	810.746	-2.02	-1.01	15.9449	4.0	70.0	3.16	Outcome2	9.7	-2.02	0.0	No		-11.7165532879819				ShowChoice	Gain
42.0	2	240.753	0.012	814.758	-2.02	-1.01	15.9449	1.0	70.0	3.16	Outcome2	9.7	-2.02	0.0	No		-11.7165532879819				ShowResult	Gain
42.0	2	241.772	0.019	815.777	-2.02	-1.01	15.9449	6.248	70.0	3.16	Outcome2	9.7	-2.02	0.0	No		-11.7165532879819				ISITrial	Gain
43.0	2	248.041	0.021	822.046	-5.6	0.0	15.2449	3.0	70.0	1.68	Outcome2	6.5	-5.6	2775.75	Yes	2.0	-12.0997732426304	1.718	249.759		GetAnswer	Gain
43.0	2	249.78	0.021	823.785	-5.6	0.0	15.2449	4.0	70.0	1.68	Outcome2	6.5	-5.6	2775.75	Yes		-12.0997732426304				ShowChoice	Gain
43.0	2	253.792	0.012	827.797	-5.6	0.0	15.2449	1.0	70.0	1.68	Outcome2	6.5	-5.6	2775.75	Yes		-12.0997732426304				ShowResult	Gain
43.0	2	254.811	0.019	828.816	-5.6	0.0	15.2449	4.596	70.0	1.68	Outcome2	6.5	-5.6	2775.75	Yes		-12.0997732426304				ISITrial	Gain
43.0	2	262.217	0.016	836.222	-5.6	0.0	15.2449	2.65	70.0	1.68	Outcome2	6.5	-5.6	2775.75	Yes	4{-4}4{-4}4{-4}2{-2}	-12.0997732426304	2.65	264.867	428.0	TrialHappiness	Gain
43.0	2	266.229	4.012	840.234	-5.6	0.0	15.2449	3.103	70.0	1.68	Outcome2	6.5	-5.6	2775.75	Yes		-12.0997732426304				ISIRate	Gain
44.0	2	269.355	0.023	843.36	-11.12	-4.0	13.8549	3.0	70.0	1.0	Outcome2	1.7	-11.12	0.0	No	2.0	-12.8231292517007	2.771	272.126		GetAnswer	Mixed
44.0	2	272.147	0.021	846.152	-11.12	-4.0	13.8549	4.0	70.0	1.0	Outcome2	1.7	-11.12	0.0	No		-12.8231292517007				ShowChoice	Mixed
44.0	2	276.159	0.012	850.164	-11.12	-4.0	13.8549	1.0	70.0	1.0	Outcome2	1.7	-11.12	0.0	No		-12.8231292517007				ShowResult	Mixed
44.0	2	277.178	0.019	851.183	-11.12	-4.0	13.8549	2.42	70.0	1.0	Outcome2	1.7	-11.12	0.0	No		-12.8231292517007				ISITrial	Mixed
45.0	2	279.619	0.021	853.624	-2.73	-1.36	13.5137	3.0	70.0	1.68	Outcome1	-2.73	10.5	0.0	No	2.0	-13.2290249433107	1.084	280.703		GetAnswer	Loss
45.0	2	280.722	0.019	854.727	-2.73	-1.36	13.5137	4.0	70.0	1.68	Outcome1	-2.73	10.5	0.0	No		-13.2290249433107				ShowChoice	Loss
45.0	2	284.734	0.012	858.739	-2.73	-1.36	13.5137	1.0	70.0	1.68	Outcome1	-2.73	10.5	0.0	No		-13.2290249433107				ShowResult	Loss
45.0	2	285.754	0.02	859.759	-2.73	-1.36	13.5137	3.144	70.0	1.68	Outcome1	-2.73	10.5	0.0	No		-13.2290249433107				ISITrial	Loss
46.0	2	288.93	0.032	862.935	-4.73	2.0	12.9224	3.0	70.0	2.0	Outcome1	-4.73	8.9	3841.25	Yes	2.0	-13.634920634920599	1.313	290.243		GetAnswer	Gain
46.0	2	290.267	0.023	864.272	-4.73	2.0	12.9224	4.0	70.0	2.0	Outcome1	-4.73	8.9	3841.25	Yes		-13.634920634920599				ShowChoice	Gain
46.0	2	294.279	0.012	868.284	-4.73	2.0	12.9224	1.0	70.0	2.0	Outcome1	-4.73	8.9	3841.25	Yes		-13.634920634920599				ShowResult	Gain
46.0	2	295.299	0.02	869.304	-4.73	2.0	12.9224	2.246	70.0	2.0	Outcome1	-4.73	8.9	3841.25	Yes		-13.634920634920599				ISITrial	Gain
46.0	2	301.417	0.02	875.422	-4.73	2.0	12.9224	1.378	70.0	2.0	Outcome1	-4.73	8.9	3841.25	Yes		-13.634920634920599			288.0	TrialHappiness	Gain
46.0	2	305.429	4.012	879.434	-4.73	2.0	12.9224	7.365	70.0	2.0	Outcome1	-4.73	8.9	3841.25	Yes		-13.634920634920599				ISIRate	Gain
47.0	2	312.818	0.024	886.823	-1.36	-0.68	12.7524	3.0	70.0	5.0	Outcome2	10.3	-1.36	0.0	No	2.0	-11.659863945578198	1.189	314.007		GetAnswer	Gain
47.0	2	314.022	0.015	888.027	-1.36	-0.68	12.7524	4.0	70.0	5.0	Outcome2	10.3	-1.36	0.0	No		-11.659863945578198				ShowChoice	Gain
47.0	2	318.05	0.028	892.055	-1.36	-0.68	12.7524	1.0	70.0	5.0	Outcome2	10.3	-1.36	0.0	No		-11.659863945578198				ShowResult	Gain
47.0	2	319.07	0.02	893.075	-1.36	-0.68	12.7524	2.0	70.0	5.0	Outcome2	10.3	-1.36	0.0	No		-11.659863945578198				ISITrial	Gain
48.0	2	321.093	0.023	895.098	0.0	0.0	12.7524	3.0	70.0	0.3	Certain	0.18	-1.39	2831.75	Yes	4.0	1.56897203325775	2.374	323.467		GetAnswer	Mixed
48.0	2	323.483	0.016	897.488	0.0	0.0	12.7524	4.0	70.0	0.3	Certain	0.18	-1.39	2831.75	Yes		1.56897203325775				ShowChoice	Mixed
48.0	2	327.495	0.012	901.5	0.0	0.0	12.7524	1.0	70.0	0.3	Certain	0.18	-1.39	2831.75	Yes		1.56897203325775				ShowResult	Mixed
48.0	2	328.515	0.02	902.52	0.0	0.0	12.7524	3.692	70.0	0.3	Certain	0.18	-1.39	2831.75	Yes		1.56897203325775				ISITrial	Mixed
48.0	2	335.085	0.027	909.09	0.0	0.0	12.7524	2.901	70.0	0.3	Certain	0.18	-1.39	2831.75	Yes		1.56897203325775			296.0	TrialHappiness	Mixed
48.0	2	339.113	4.028	913.118	0.0	0.0	12.7524	3.327	70.0	0.3	Certain	0.18	-1.39	2831.75	Yes		1.56897203325775				ISIRate	Mixed
49.0	2	342.473	0.033	916.478	-1.0	-1.0	12.6274	3.0	70.0	1.68	Certain	-7.79	4.5	0.0	No	4.0	-12.290249433106599	1.755	344.228		GetAnswer	Gain
49.0	2	344.245	0.017	918.25	-1.0	-1.0	12.6274	4.0	70.0	1.68	Certain	-7.79	4.5	0.0	No		-12.290249433106599				ShowChoice	Gain
49.0	2	348.274	0.029	922.279	-1.0	-1.0	12.6274	1.0	70.0	1.68	Certain	-7.79	4.5	0.0	No		-12.290249433106599				ShowResult	Gain
49.0	2	349.294	0.02	923.299	-1.0	-1.0	12.6274	8.0	70.0	1.68	Certain	-7.79	4.5	0.0	No		-12.290249433106599				ISITrial	Gain
50.0	2	357.318	0.024	931.323	-8.45	-2.0	11.5711	3.0	70.0	1.5	Outcome2	4.1	-8.45	3547.25	Yes	2.0	-12.546485260771	1.926	359.244		GetAnswer	Mixed
50.0	2	359.273	0.029	933.278	-8.45	-2.0	11.5711	4.0	70.0	1.5	Outcome2	4.1	-8.45	3547.25	Yes		-12.546485260771				ShowChoice	Mixed
50.0	2	363.302	0.029	937.307	-8.45	-2.0	11.5711	1.0	70.0	1.5	Outcome2	4.1	-8.45	3547.25	Yes		-12.546485260771				ShowResult	Mixed
50.0	2	364.322	0.02	938.327	-8.45	-2.0	11.5711	7.537	70.0	1.5	Outcome2	4.1	-8.45	3547.25	Yes		-12.546485260771				ISITrial	Mixed
50.0	2	375.455	0.03	949.46	-8.45	-2.0	11.5711	1.861	70.0	1.5	Outcome2	4.1	-8.45	3547.25	Yes		-12.546485260771			168.0	TrialHappiness	Mixed
50.0	2	379.467	4.012	953.472	-8.45	-2.0	11.5711	6.189	70.0	1.5	Outcome2	4.1	-8.45	3547.25	Yes		-12.546485260771				ISIRate	Mixed
51.0	2	385.686	0.03	959.691	3.07	1.54	11.9549	3.0	70.0	3.16	Outcome2	13.7	3.07	0.0	No	2.0	-10.6258503401361	1.217	386.903		GetAnswer	Loss
51.0	2	386.923	0.02	960.928	3.07	1.54	11.9549	4.0	70.0	3.16	Outcome2	13.7	3.07	0.0	No		-10.6258503401361				ShowChoice	Loss
51.0	2	390.935	0.012	964.94	3.07	1.54	11.9549	1.0	70.0	3.16	Outcome2	13.7	3.07	0.0	No		-10.6258503401361				ShowResult	Loss
51.0	2	391.954	0.019	965.959	3.07	1.54	11.9549	5.508	70.0	3.16	Outcome2	13.7	3.07	0.0	No		-10.6258503401361				ISITrial	Loss
52.0	2	397.488	0.026	971.493	2.16	1.08	12.2249	3.0	70.0	2.0	Outcome2	12.9	2.16	0.0	No	2.0	-10.7369614512472	1.141	398.629		GetAnswer	Loss
52.0	2	398.641	0.012	972.646	2.16	1.08	12.2249	4.0	70.0	2.0	Outcome2	12.9	2.16	0.0	No		-10.7369614512472				ShowChoice	Loss
52.0	2	402.67	0.029	976.675	2.16	1.08	12.2249	1.0	70.0	2.0	Outcome2	12.9	2.16	0.0	No		-10.7369614512472				ShowResult	Loss
52.0	2	403.689	0.019	977.694	2.16	1.08	12.2249	5.913	70.0	2.0	Outcome2	12.9	2.16	0.0	No		-10.7369614512472				ISITrial	Loss
53.0	2	409.624	0.022	983.629	-3.35	2.0	11.8061	3.0	70.0	2.8	Outcome2	7.5	-3.35	2996.75	Yes	2.0	-10.8480725623583	1.913	411.537		GetAnswer	Gain
53.0	2	411.563	0.026	985.568	-3.35	2.0	11.8061	4.0	70.0	2.8	Outcome2	7.5	-3.35	2996.75	Yes		-10.8480725623583				ShowChoice	Gain
53.0	2	415.575	0.012	989.58	-3.35	2.0	11.8061	1.0	70.0	2.8	Outcome2	7.5	-3.35	2996.75	Yes		-10.8480725623583				ShowResult	Gain
53.0	2	416.595	0.02	990.6	-3.35	2.0	11.8061	3.66	70.0	2.8	Outcome2	7.5	-3.35	2996.75	Yes		-10.8480725623583				ISITrial	Gain
53.0	2	423.298	0.029	997.303	-3.35	2.0	11.8061	3.366	70.0	2.8	Outcome2	7.5	-3.35	2996.75	Yes		-10.8480725623583			408.0	TrialHappiness	Gain
53.0	2	427.31	4.012	1001.315	-3.35	2.0	11.8061	3.987	70.0	2.8	Outcome2	7.5	-3.35	2996.75	Yes		-10.8480725623583				ISIRate	Gain
54.0	2	431.322	0.025	1005.327	1.72	0.0	12.0211	3.0	70.0	2.0	Outcome1	1.72	-0.43	0.0	No	2.0	2.14758125472411	1.932	433.254		GetAnswer	Gain
54.0	2	433.278	0.024	1007.283	1.72	0.0	12.0211	4.0	70.0	2.0	Outcome1	1.72	-0.43	0.0	No		2.14758125472411				ShowChoice	Gain
54.0	2	437.29	0.012	1011.295	1.72	0.0	12.0211	1.0	70.0	2.0	Outcome1	1.72	-0.43	0.0	No		2.14758125472411				ShowResult	Gain
54.0	2	438.309	0.019	1012.314	1.72	0.0	12.0211	8.0	70.0	2.0	Outcome1	1.72	-0.43	0.0	No		2.14758125472411				ISITrial	Gain
	2	446.333	0.024	1020.338				-0.001								{SPACE}		35.277	481.61		Rest	
	2	481.622	0.012	1055.627				4.0													BlockHappyPreview	
	2	485.634	0.012	1059.639				0.0												512.0	BlockStartHappiness	
	2	491.602	0.024	1065.607				-0.001								5.0		0.486	492.088		ScanWait	
	3	0.015	0.015	1066.108				10.0													GetReady	
55.0	3	10.029	0.014	1076.122	0.0	0.0	12.0211	3.0	955.0	2.0	Certain	0.3	-1.5	2533.25	Yes	4.0	-1.79775386938467	1.795	11.824		GetAnswer	Mixed
55.0	3	11.851	0.027	1077.944	0.0	0.0	12.0211	4.0	955.0	2.0	Certain	0.3	-1.5	2533.25	Yes		-1.79775386938467				ShowChoice	Mixed
55.0	3	15.863	0.012	1081.956	0.0	0.0	12.0211	1.0	955.0	2.0	Certain	0.3	-1.5	2533.25	Yes		-1.79775386938467				ShowResult	Mixed
55.0	3	16.882	0.019	1082.975	0.0	0.0	12.0211	7.709	955.0	2.0	Certain	0.3	-1.5	2533.25	Yes		-1.79775386938467				ISITrial	Mixed
55.0	3	27.163	0.024	1093.256	0.0	0.0	12.0211	2.18	955.0	2.0	Certain	0.3	-1.5	2533.25	Yes		-1.79775386938467			440.0	TrialHappiness	Mixed
55.0	3	31.175	4.012	1097.268	0.0	0.0	12.0211	2.133	955.0	2.0	Certain	0.3	-1.5	2533.25	Yes		-1.79775386938467				ISIRate	Mixed
56.0	3	33.332	0.024	1099.425	3.5	-1.0	12.4586	3.0	955.0	0.82	Outcome1	3.5	-5.75	0.0	No	2.0	9.25028312570782	2.056	35.388		GetAnswer	Mixed
56.0	3	35.404	0.016	1101.497	3.5	-1.0	12.4586	4.0	955.0	0.82	Outcome1	3.5	-5.75	0.0	No		9.25028312570782				ShowChoice	Mixed
56.0	3	39.416	0.012	1105.509	3.5	-1.0	12.4586	1.0	955.0	0.82	Outcome1	3.5	-5.75	0.0	No		9.25028312570782				ShowResult	Mixed
56.0	3	40.436	0.02	1106.529	3.5	-1.0	12.4586	4.697	955.0	0.82	Outcome1	3.5	-5.75	0.0	No		9.25028312570782				ISITrial	Mixed
57.0	3	45.15	0.017	1111.243	0.0	0.0	12.4586	3.0	955.0	2.0	Certain	-4.93	4.9	0.0	No	4.0	9.83352208380521	2.235	47.385		GetAnswer	Gain
57.0	3	47.407	0.022	1113.5	0.0	0.0	12.4586	4.0	955.0	2.0	Certain	-4.93	4.9	0.0	No		9.83352208380521				ShowChoice	Gain
57.0	3	51.419	0.012	1117.512	0.0	0.0	12.4586	1.0	955.0	2.0	Certain	-4.93	4.9	0.0	No		9.83352208380521				ShowResult	Gain
57.0	3	52.439	0.02	1118.532	0.0	0.0	12.4586	4.291	955.0	2.0	Certain	-4.93	4.9	0.0	No		9.83352208380521				ISITrial	Gain
58.0	3	56.752	0.022	1122.845	13.1	1.34	14.0961	3.0	955.0	2.22	Outcome2	2.68	13.1	3045.75	Yes	2.0	10.4167610419026	1.539	58.291		GetAnswer	Loss
58.0	3	58.306	0.015	1124.399	13.1	1.34	14.0961	4.0	955.0	2.22	Outcome2	2.68	13.1	3045.75	Yes		10.4167610419026				ShowChoice	Loss
58.0	3	62.318	0.012	1128.411	13.1	1.34	14.0961	1.0	955.0	2.22	Outcome2	2.68	13.1	3045.75	Yes		10.4167610419026				ShowResult	Loss
58.0	3	63.338	0.02	1129.431	13.1	1.34	14.0961	2.037	955.0	2.22	Outcome2	2.68	13.1	3045.75	Yes		10.4167610419026				ISITrial	Loss
58.0	3	68.47	0.03	1134.563	13.1	1.34	14.0961	3.058	955.0	2.22	Outcome2	2.68	13.1	3045.75	Yes		10.4167610419026			472.0	TrialHappiness	Loss
58.0	3	72.482	4.012	1138.575	13.1	1.34	14.0961	4.183	955.0	2.22	Outcome2	2.68	13.1	3045.75	Yes		10.4167610419026				ISIRate	Loss
59.0	3	76.694	0.029	1142.787	3.75	1.88	14.5649	3.0	955.0	3.6	Outcome1	3.75	5.9	0.0	No	2.0	-2.14769724424311	1.102	77.796		GetAnswer	Gain
59.0	3	77.814	0.018	1143.907	3.75	1.88	14.5649	4.0	955.0	3.6	Outcome1	3.75	5.9	0.0	No		-2.14769724424311				ShowChoice	Gain
59.0	3	81.826	0.012	1147.919	3.75	1.88	14.5649	1.0	955.0	3.6	Outcome1	3.75	5.9	0.0	No		-2.14769724424311				ShowResult	Gain
59.0	3	82.846	0.02	1148.939	3.75	1.88	14.5649	5.064	955.0	3.6	Outcome1	3.75	5.9	0.0	No		-2.14769724424311				ISITrial	Gain
60.0	3	87.928	0.018	1154.021	10.1	-0.45	15.8274	3.0	955.0	4.2	Outcome2	-0.9	10.1	3562.5	Yes	2.0	11.0033975084938	1.637	89.565		GetAnswer	Gain
60.0	3	89.583	0.018	1155.676	10.1	-0.45	15.8274	4.0	955.0	4.2	Outcome2	-0.9	10.1	3562.5	Yes		11.0033975084938				ShowChoice	Gain
60.0	3	93.595	0.012	1159.688	10.1	-0.45	15.8274	1.0	955.0	4.2	Outcome2	-0.9	10.1	3562.5	Yes		11.0033975084938				ShowResult	Gain
60.0	3	94.615	0.02	1160.708	10.1	-0.45	15.8274	8.0	955.0	4.2	Outcome2	-0.9	10.1	3562.5	Yes		11.0033975084938				ISITrial	Gain
60.0	3	106.216	0.015	1172.309	10.1	-0.45	15.8274	0.589	955.0	4.2	Outcome2	-0.9	10.1	3562.5	Yes	2{-2}	11.0033975084938	0.589	106.805	532.0	TrialHappiness	Gain
60.0	3	110.228	4.012	1176.321	10.1	-0.45	15.8274	6.25	955.0	4.2	Outcome2	-0.9	10.1	3562.5	Yes		11.0033975084938				ISIRate	Gain
61.0	3	116.497	0.019	1182.59	8.3	-1.12	16.8649	3.0	955.0	5.0	Outcome2	-2.23	8.3	0.0	No	2.0	10.5311438278596	1.414	117.911		GetAnswer	Gain
61.0	3	117.934	0.023	1184.027	8.3	-1.12	16.8649	4.0	955.0	5.0	Outcome2	-2.23	8.3	0.0	No		10.5311438278596				ShowChoice	Gain
61.0	3	121.946	0.012	1188.039	8.3	-1.12	16.8649	1.0	955.0	5.0	Outcome2	-2.23	8.3	0.0	No		10.5311438278596				ShowResult	Gain
61.0	3	122.966	0.02	1189.059	8.3	-1.12	16.8649	4.586	955.0	5.0	Outcome2	-2.23	8.3	0.0	No		10.5311438278596				ISITrial	Gain
62.0	3	127.58	0.028	1193.673	2.7	-3.0	17.2024	3.0	955.0	0.3	Outcome2	-8.31	2.7	3748.75	Yes		11.010192525481301				GetAnswer	Mixed
62.0	3	130.605	0.025	1196.698	2.7	-3.0	17.2024	4.0	955.0	0.3	Outcome2	-8.31	2.7	3748.75	Yes		11.010192525481301				ShowChoice	Mixed
62.0	3	134.617	0.012	1200.71	2.7	-3.0	17.2024	1.0	955.0	0.3	Outcome2	-8.31	2.7	3748.75	Yes		11.010192525481301				ShowResult	Mixed
62.0	3	135.637	0.02	1201.73	2.7	-3.0	17.2024	5.212	955.0	0.3	Outcome2	-8.31	2.7	3748.75	Yes		11.010192525481301				ISITrial	Mixed
62.0	3	144.647	0.029	1210.74	2.7	-3.0	17.2024	1.511	955.0	0.3	Outcome2	-8.31	2.7	3748.75	Yes		11.010192525481301			552.0	TrialHappiness	Mixed
62.0	3	148.659	4.012	1214.752	2.7	-3.0	17.2024	6.995	955.0	0.3	Outcome2	-8.31	2.7	3748.75	Yes		11.010192525481301				ISIRate	Mixed
63.0	3	155.68	0.026	1221.773	5.5	0.0	17.8899	3.0	955.0	2.8	Outcome2	-5.65	5.5	0.0	No	2.0	11.1494903737259	2.372	158.052		GetAnswer	Gain
63.0	3	158.071	0.019	1224.164	5.5	0.0	17.8899	4.0	955.0	2.8	Outcome2	-5.65	5.5	0.0	No		11.1494903737259				ShowChoice	Gain
63.0	3	162.083	0.012	1228.176	5.5	0.0	17.8899	1.0	955.0	2.8	Outcome2	-5.65	5.5	0.0	No		11.1494903737259				ShowResult	Gain
63.0	3	163.102	0.019	1229.195	5.5	0.0	17.8899	5.595	955.0	2.8	Outcome2	-5.65	5.5	0.0	No		11.1494903737259				ISITrial	Gain
64.0	3	168.719	0.022	1234.812	0.0	0.0	17.8899	3.0	955.0	0.82	Certain	1.5	-0.53	0.0	No	4.0	-2.03208758021895	1.47	170.189		GetAnswer	Mixed
64.0	3	170.207	0.018	1236.3	0.0	0.0	17.8899	4.0	955.0	0.82	Certain	1.5	-0.53	0.0	No		-2.03208758021895				ShowChoice	Mixed
64.0	3	174.219	0.012	1240.312	0.0	0.0	17.8899	1.0	955.0	0.82	Certain	1.5	-0.53	0.0	No		-2.03208758021895				ShowResult	Mixed
64.0	3	175.239	0.02	1241.332	0.0	0.0	17.8899	5.47	955.0	0.82	Certain	1.5	-0.53	0.0	No		-2.03208758021895				ISITrial	Mixed
65.0	3	180.739	0.03	1246.832	9.23	4.62	19.0437	3.0	955.0	2.48	Outcome1	9.23	11.3	2996.75	Yes	2.0	-2.070120800302	2.768	183.507		GetAnswer	Loss
65.0	3	183.53	0.023	1249.623	9.23	4.62	19.0437	4.0	955.0	2.48	Outcome1	9.23	11.3	2996.75	Yes		-2.070120800302				ShowChoice	Loss
65.0	3	187.542	0.012	1253.635	9.23	4.62	19.0437	1.0	955.0	2.48	Outcome1	9.23	11.3	2996.75	Yes		-2.070120800302				ShowResult	Loss
65.0	3	188.562	0.02	1254.655	9.23	4.62	19.0437	3.344	955.0	2.48	Outcome1	9.23	11.3	2996.75	Yes		-2.070120800302				ISITrial	Loss
65.0	3	194.948	0.029	1261.041	9.23	4.62	19.0437	0.592	955.0	2.48	Outcome1	9.23	11.3	2996.75	Yes		-2.070120800302			532.0	TrialHappiness	Loss
65.0	3	198.96	4.012	1265.053	9.23	4.62	19.0437	3.987	955.0	2.48	Outcome1	9.23	11.3	2996.75	Yes		-2.070120800302				ISIRate	Loss
66.0	3	202.972	0.025	1269.065	4.11	2.06	19.5575	3.0	955.0	5.0	Outcome2	6.3	4.11	0.0	No	2.0	-2.1893167232918103	2.026	204.998		GetAnswer	Gain
66.0	3	205.011	0.013	1271.104	4.11	2.06	19.5575	4.0	955.0	5.0	Outcome2	6.3	4.11	0.0	No		-2.1893167232918103				ShowChoice	Gain
66.0	3	209.023	0.012	1275.116	4.11	2.06	19.5575	1.0	955.0	5.0	Outcome2	6.3	4.11	0.0	No		-2.1893167232918103				ShowResult	Gain
66.0	3	210.043	0.02	1276.136	4.11	2.06	19.5575	3.959	955.0	5.0	Outcome2	6.3	4.11	0.0	No		-2.1893167232918103				ISITrial	Gain
67.0	3	214.021	0.019	1280.114	-3.0	-3.0	19.1825	3.0	955.0	1.2	Certain	3.9	-9.44	2918.5	Yes	4.0	13.3374858437146	2.635	216.656		GetAnswer	Mixed
67.0	3	216.679	0.023	1282.772	-3.0	-3.0	19.1825	4.0	955.0	1.2	Certain	3.9	-9.44	2918.5	Yes		13.3374858437146				ShowChoice	Mixed
67.0	3	220.691	0.012	1286.784	-3.0	-3.0	19.1825	1.0	955.0	1.2	Certain	3.9	-9.44	2918.5	Yes		13.3374858437146				ShowResult	Mixed
67.0	3	221.711	0.02	1287.804	-3.0	-3.0	19.1825	4.199	955.0	1.2	Certain	3.9	-9.44	2918.5	Yes		13.3374858437146				ISITrial	Mixed
67.0	3	228.866	0.025	1294.959	-3.0	-3.0	19.1825	0.844	955.0	1.2	Certain	3.9	-9.44	2918.5	Yes		13.3374858437146			532.0	TrialHappiness	Mixed
67.0	3	232.878	4.012	1298.971	-3.0	-3.0	19.1825	3.674	955.0	1.2	Certain	3.9	-9.44	2918.5	Yes		13.3374858437146				ISIRate	Mixed
68.0	3	236.572	0.02	1302.665	-1.5	-8.0	18.995	3.0	955.0	0.2	Outcome2	-15.32	-1.5	0.0	No	2.0	13.8165345413364	2.574	239.146		GetAnswer	Mixed
68.0	3	239.163	0.017	1305.256	-1.5	-8.0	18.995	4.0	955.0	0.2	Outcome2	-15.32	-1.5	0.0	No		13.8165345413364				ShowChoice	Mixed
68.0	3	243.175	0.012	1309.268	-1.5	-8.0	18.995	1.0	955.0	0.2	Outcome2	-15.32	-1.5	0.0	No		13.8165345413364				ShowResult	Mixed
68.0	3	244.195	0.02	1310.288	-1.5	-8.0	18.995	2.185	955.0	0.2	Outcome2	-15.32	-1.5	0.0	No		13.8165345413364				ISITrial	Mixed
69.0	3	246.401	0.021	1312.494	12.5	-0.9	20.5575	3.0	955.0	1.68	Outcome2	-1.8	12.5	0.0	No	2.0	14.295583238958098	1.486	247.887		GetAnswer	Loss
69.0	3	247.906	0.018	1313.999	12.5	-0.9	20.5575	4.0	955.0	1.68	Outcome2	-1.8	12.5	0.0	No		14.295583238958098				ShowChoice	Loss
69.0	3	251.918	0.012	1318.011	12.5	-0.9	20.5575	1.0	955.0	1.68	Outcome2	-1.8	12.5	0.0	No		14.295583238958098				ShowResult	Loss
69.0	3	252.937	0.019	1319.03	12.5	-0.9	20.5575	2.0	955.0	1.68	Outcome2	-1.8	12.5	0.0	No		14.295583238958098				ISITrial	Loss
70.0	3	254.96	0.023	1321.053	12.3	-1.24	22.095	3.0	955.0	5.0	Outcome1	12.3	-2.47	3651.25	Yes	2.0	14.7746319365798	1.753	256.713		GetAnswer	Loss
70.0	3	256.732	0.019	1322.825	12.3	-1.24	22.095	4.0	955.0	5.0	Outcome1	12.3	-2.47	3651.25	Yes		14.7746319365798				ShowChoice	Loss
70.0	3	260.744	0.012	1326.837	12.3	-1.24	22.095	1.0	955.0	5.0	Outcome1	12.3	-2.47	3651.25	Yes		14.7746319365798				ShowResult	Loss
70.0	3	261.764	0.02	1327.857	12.3	-1.24	22.095	2.623	955.0	5.0	Outcome1	12.3	-2.47	3651.25	Yes		14.7746319365798				ISITrial	Loss
70.0	3	268.083	0.027	1334.176	12.3	-1.24	22.095	0.993	955.0	5.0	Outcome1	12.3	-2.47	3651.25	Yes		14.7746319365798			552.0	TrialHappiness	Loss
70.0	3	272.095	4.012	1338.188	12.3	-1.24	22.095	6.605	955.0	5.0	Outcome1	12.3	-2.47	3651.25	Yes		14.7746319365798				ISIRate	Loss
71.0	3	278.731	0.031	1344.824	4.39	2.19	22.6438	3.0	955.0	1.82	Outcome2	6.7	4.39	0.0	No	2.0	-2.3077576443941097	2.139	280.87		GetAnswer	Gain
71.0	3	280.888	0.018	1346.981	4.39	2.19	22.6438	4.0	955.0	1.82	Outcome2	6.7	4.39	0.0	No		-2.3077576443941097				ShowChoice	Gain
71.0	3	284.9	0.012	1350.993	4.39	2.19	22.6438	1.0	955.0	1.82	Outcome2	6.7	4.39	0.0	No		-2.3077576443941097				ShowResult	Gain
71.0	3	285.919	0.019	1352.012	4.39	2.19	22.6438	5.499	955.0	1.82	Outcome2	6.7	4.39	0.0	No		-2.3077576443941097				ISITrial	Gain
72.0	3	291.436	0.018	1357.529	-2.0	-2.0	22.3938	3.0	955.0	2.48	Certain	-10.07	5.3	3080.5	Yes	4.0	15.3703284258211	2.781	294.217		GetAnswer	Gain
72.0	3	294.244	0.027	1360.337	-2.0	-2.0	22.3938	4.0	955.0	2.48	Certain	-10.07	5.3	3080.5	Yes		15.3703284258211				ShowChoice	Gain
72.0	3	298.256	0.012	1364.349	-2.0	-2.0	22.3938	1.0	955.0	2.48	Certain	-10.07	5.3	3080.5	Yes		15.3703284258211				ShowResult	Gain
72.0	3	299.276	0.02	1365.369	-2.0	-2.0	22.3938	5.672	955.0	2.48	Certain	-10.07	5.3	3080.5	Yes		15.3703284258211				ISITrial	Gain
72.0	3	308.069	0.03	1374.162	-2.0	-2.0	22.3938	0.0	955.0	2.48	Certain	-10.07	5.3	3080.5	Yes		15.3703284258211			512.0	TrialHappiness	Gain
72.0	3	312.081	4.012	1378.174	-2.0	-2.0	22.3938	4.322	955.0	2.48	Certain	-10.07	5.3	3080.5	Yes		15.3703284258211				ISIRate	Gain
73.0	3	316.427	0.024	1382.52	1.9	-6.0	22.6313	3.0	955.0	1.2	Outcome1	1.9	-14.61	0.0	No		16.5062287655719				GetAnswer	Mixed
73.0	3	319.453	0.026	1385.546	1.9	-6.0	22.6313	4.0	955.0	1.2	Outcome1	1.9	-14.61	0.0	No		16.5062287655719				ShowChoice	Mixed
73.0	3	323.465	0.012	1389.558	1.9	-6.0	22.6313	1.0	955.0	1.2	Outcome1	1.9	-14.61	0.0	No		16.5062287655719				ShowResult	Mixed
73.0	3	324.484	0.019	1390.577	1.9	-6.0	22.6313	4.616	955.0	1.2	Outcome1	1.9	-14.61	0.0	No		16.5062287655719				ISITrial	Mixed
74.0	3	329.132	0.032	1395.225	12.1	-2.46	24.1438	3.0	955.0	4.2	Outcome1	12.1	-4.91	3056.25	Yes	2.0	17.007927519818804	2.766	331.898		GetAnswer	Loss
74.0	3	331.923	0.025	1398.016	12.1	-2.46	24.1438	4.0	955.0	4.2	Outcome1	12.1	-4.91	3056.25	Yes		17.007927519818804				ShowChoice	Loss
74.0	3	335.935	0.012	1402.028	12.1	-2.46	24.1438	1.0	955.0	4.2	Outcome1	12.1	-4.91	3056.25	Yes		17.007927519818804				ShowResult	Loss
74.0	3	336.955	0.02	1403.048	12.1	-2.46	24.1438	3.909	955.0	4.2	Outcome1	12.1	-4.91	3056.25	Yes		17.007927519818804				ISITrial	Loss
74.0	3	343.959	0.02	1410.052	12.1	-2.46	24.1438	2.008	955.0	4.2	Outcome1	12.1	-4.91	3056.25	Yes		17.007927519818804			588.0	TrialHappiness	Loss
74.0	3	347.971	4.012	1414.064	12.1	-2.46	24.1438	4.225	955.0	4.2	Outcome1	12.1	-4.91	3056.25	Yes		17.007927519818804				ISIRate	Loss
75.0	3	352.217	0.021	1418.31	10.9	-2.66	25.5063	3.0	955.0	2.0	Outcome2	-5.32	10.9	0.0	No		16.2185730464326				GetAnswer	Loss
75.0	3	355.243	0.026	1421.336	10.9	-2.66	25.5063	4.0	955.0	2.0	Outcome2	-5.32	10.9	0.0	No		16.2185730464326				ShowChoice	Loss
75.0	3	359.255	0.012	1425.348	10.9	-2.66	25.5063	1.0	955.0	2.0	Outcome2	-5.32	10.9	0.0	No		16.2185730464326				ShowResult	Loss
75.0	3	360.275	0.02	1426.368	10.9	-2.66	25.5063	4.979	955.0	2.0	Outcome2	-5.32	10.9	0.0	No		16.2185730464326				ISITrial	Loss
76.0	3	365.273	0.019	1431.366	9.14	4.57	26.6488	3.0	955.0	2.8	Outcome1	9.14	11.5	0.0	No	2.0	-2.35598338995847	1.286	366.559		GetAnswer	Loss
76.0	3	366.577	0.018	1432.67	9.14	4.57	26.6488	4.0	955.0	2.8	Outcome1	9.14	11.5	0.0	No		-2.35598338995847				ShowChoice	Loss
76.0	3	370.589	0.012	1436.682	9.14	4.57	26.6488	1.0	955.0	2.8	Outcome1	9.14	11.5	0.0	No		-2.35598338995847				ShowResult	Loss
76.0	3	371.609	0.02	1437.702	9.14	4.57	26.6488	3.931	955.0	2.8	Outcome1	9.14	11.5	0.0	No		-2.35598338995847				ISITrial	Loss
77.0	3	375.57	0.03	1441.663	8.31	4.16	27.6876	3.0	955.0	1.82	Outcome1	8.31	10.7	4000.0	Yes	2.0	-2.39061910154775	1.556	377.126		GetAnswer	Loss
77.0	3	377.142	0.016	1443.235	8.31	4.16	27.6876	4.0	955.0	1.82	Outcome1	8.31	10.7	4000.0	Yes		-2.39061910154775				ShowChoice	Loss
77.0	3	381.154	0.012	1447.247	8.31	4.16	27.6876	1.0	955.0	1.82	Outcome1	8.31	10.7	4000.0	Yes		-2.39061910154775				ShowResult	Loss
77.0	3	382.173	0.019	1448.266	8.31	4.16	27.6876	7.022	955.0	1.82	Outcome1	8.31	10.7	4000.0	Yes		-2.39061910154775				ISITrial	Loss
77.0	3	393.24	0.029	1459.333	8.31	4.16	27.6876	2.031	955.0	1.82	Outcome1	8.31	10.7	4000.0	Yes		-2.39061910154775			628.0	TrialHappiness	Loss
77.0	3	397.252	4.012	1463.345	8.31	4.16	27.6876	8.0	955.0	1.82	Outcome1	8.31	10.7	4000.0	Yes		-2.39061910154775				ISIRate	Loss
78.0	3	405.276	0.024	1471.369	3.84	1.92	28.1676	3.0	955.0	4.2	Outcome2	6.1	3.84	0.0	No	2.0	-2.26292940732352	2.178	407.454		GetAnswer	Gain
78.0	3	407.482	0.028	1473.575	3.84	1.92	28.1676	4.0	955.0	4.2	Outcome2	6.1	3.84	0.0	No		-2.26292940732352				ShowChoice	Gain
78.0	3	411.494	0.012	1477.587	3.84	1.92	28.1676	1.0	955.0	4.2	Outcome2	6.1	3.84	0.0	No		-2.26292940732352				ShowResult	Gain
78.0	3	412.514	0.02	1478.607	3.84	1.92	28.1676	2.078	955.0	4.2	Outcome2	6.1	3.84	0.0	No		-2.26292940732352				ISITrial	Gain
79.0	3	414.62	0.028	1480.713	0.7	-8.0	28.2551	3.0	955.0	0.3	Outcome2	-16.46	0.7	2729.5	Yes		17.1562853907135				GetAnswer	Mixed
79.0	3	417.646	0.026	1483.739	0.7	-8.0	28.2551	4.0	955.0	0.3	Outcome2	-16.46	0.7	2729.5	Yes		17.1562853907135				ShowChoice	Mixed
79.0	3	421.658	0.012	1487.751	0.7	-8.0	28.2551	1.0	955.0	0.3	Outcome2	-16.46	0.7	2729.5	Yes		17.1562853907135				ShowResult	Mixed
79.0	3	422.678	0.02	1488.771	0.7	-8.0	28.2551	3.829	955.0	0.3	Outcome2	-16.46	0.7	2729.5	Yes		17.1562853907135				ISITrial	Mixed
79.0	3	429.281	0.028	1495.374	0.7	-8.0	28.2551	1.676	955.0	0.3	Outcome2	-16.46	0.7	2729.5	Yes		17.1562853907135			676.0	TrialHappiness	Mixed
79.0	3	433.293	4.012	1499.386	0.7	-8.0	28.2551	2.918	955.0	0.3	Outcome2	-16.46	0.7	2729.5	Yes		17.1562853907135				ISIRate	Mixed
80.0	3	436.235	0.024	1502.328	-4.0	-4.0	27.7551	3.0	955.0	1.5	Certain	-12.61	4.1	0.0	No	4.0	16.7112117780294	1.782	438.017		GetAnswer	Mixed
80.0	3	438.04	0.023	1504.133	-4.0	-4.0	27.7551	4.0	955.0	1.5	Certain	-12.61	4.1	0.0	No		16.7112117780294				ShowChoice	Mixed
80.0	3	442.052	0.012	1508.145	-4.0	-4.0	27.7551	1.0	955.0	1.5	Certain	-12.61	4.1	0.0	No		16.7112117780294				ShowResult	Mixed
80.0	3	443.072	0.02	1509.165	-4.0	-4.0	27.7551	3.336	955.0	1.5	Certain	-12.61	4.1	0.0	No		16.7112117780294				ISITrial	Mixed
81.0	3	446.432	0.024	1512.525	1.3	-7.0	27.9176	3.0	955.0	0.66	Outcome1	1.3	-15.73	3923.75	Yes	2.0	17.027180067950198	2.106	448.538		GetAnswer	Mixed
81.0	3	448.555	0.017	1514.648	1.3	-7.0	27.9176	4.0	955.0	0.66	Outcome1	1.3	-15.73	3923.75	Yes		17.027180067950198				ShowChoice	Mixed
81.0	3	452.567	0.012	1518.66	1.3	-7.0	27.9176	1.0	955.0	0.66	Outcome1	1.3	-15.73	3923.75	Yes		17.027180067950198				ShowResult	Mixed
81.0	3	453.587	0.02	1519.68	1.3	-7.0	27.9176	3.919	955.0	0.66	Outcome1	1.3	-15.73	3923.75	Yes		17.027180067950198				ISITrial	Mixed
81.0	3	461.477	0.021	1527.57	1.3	-7.0	27.9176	2.567	955.0	0.66	Outcome1	1.3	-15.73	3923.75	Yes	2{-2}2{-2}2{-2}2{-2}2{-2}2{-2}2{-2}	17.027180067950198	2.567	464.044	612.0	TrialHappiness	Mixed
81.0	3	465.489	4.012	1531.582	1.3	-7.0	27.9176	7.695	955.0	0.66	Outcome1	1.3	-15.73	3923.75	Yes		17.027180067950198				ISIRate	Mixed
	3	473.212	0.028	1539.305				3.0													CurrentEarnings	
	3	476.238	0.026	1542.331				-0.001								{SPACE}		5.671	481.909		Goodbye	
