trial_number	block	onset	onset_delay	onset_unadjusted	amount_change	certain_amount	current_amount	duration	mood_target	multiplier	outcome	outcome1_amount	outcome2_amount	question_duration	rating	response	rpe	rt	rt_time	slider_response	trial_phase	trial_type
	0	-35.639	0.021	9.225				-0.001								{SPACE}		3.325	-32.314		Welcome	
	0	-32.295	0.019	12.569				5.0													LifeHappyPreview	
	0	-27.264	0.031	17.6				1.296												672.0	LifeHappiness	
	0	-12.453	0.021	32.411				4.0													BlockHappyPreview	
	0	-8.441	0.012	36.423				0.793												688.0	BlockStartHappiness	
	0	-2.088	0.019	42.776				-0.001								5.0					ScanWait	
	1	0.018	0.018	44.882				10.0													GetReady	
1.0	1	10.048	0.03	54.912	4.82	2.41	10.6025	3.0	955.0	3.6	Outcome1	4.82	5.9	0.0	No	2.0	-1.08352208380521	0.849	10.897		GetAnswer	Gain
1.0	1	10.917	0.02	55.781	4.82	2.41	10.6025	4.0	955.0	3.6	Outcome1	4.82	5.9	0.0	No		-1.08352208380521				ShowChoice	Gain
1.0	1	14.929	0.012	59.793	4.82	2.41	10.6025	1.0	955.0	3.6	Outcome1	4.82	5.9	0.0	No		-1.08352208380521				ShowResult	Gain
1.0	1	15.949	0.02	60.813	4.82	2.41	10.6025	2.431	955.0	3.6	Outcome1	4.82	5.9	0.0	No		-1.08352208380521				ISITrial	Gain
2.0	1	18.407	0.027	63.271	2.3	0.0	10.89	3.0	955.0	2.0	Outcome1	2.3	-2.54	0.0	No	2.0	4.83805209513024	0.713	19.12		GetAnswer	Mixed
2.0	1	19.142	0.022	64.006	2.3	0.0	10.89	4.0	955.0	2.0	Outcome1	2.3	-2.54	0.0	No		4.83805209513024				ShowChoice	Mixed
2.0	1	23.154	0.012	68.018	2.3	0.0	10.89	1.0	955.0	2.0	Outcome1	2.3	-2.54	0.0	No		4.83805209513024				ShowResult	Mixed
2.0	1	24.174	0.02	69.038	2.3	0.0	10.89	4.568	955.0	2.0	Outcome1	2.3	-2.54	0.0	No		4.83805209513024				ISITrial	Mixed
3.0	1	28.771	0.029	73.635	5.5	0.18	11.5775	3.0	955.0	2.8	Outcome2	0.36	5.5	2868.0	Yes	2.0	5.14043035107588	0.828	29.599		GetAnswer	Gain
3.0	1	29.623	0.024	74.487	5.5	0.18	11.5775	4.0	955.0	2.8	Outcome2	0.36	5.5	2868.0	Yes		5.14043035107588				ShowChoice	Gain
3.0	1	33.635	0.012	78.499	5.5	0.18	11.5775	1.0	955.0	2.8	Outcome2	0.36	5.5	2868.0	Yes		5.14043035107588				ShowResult	Gain
3.0	1	34.655	0.02	79.519	5.5	0.18	11.5775	3.243	955.0	2.8	Outcome2	0.36	5.5	2868.0	Yes		5.14043035107588				ISITrial	Gain
3.0	1	40.807	0.024	85.671	5.5	0.18	11.5775	1.226	955.0	2.8	Outcome2	0.36	5.5	2868.0	Yes		5.14043035107588			768.0	TrialHappiness	Gain
3.0	1	44.819	4.012	89.683	5.5	0.18	11.5775	3.472	955.0	2.8	Outcome2	0.36	5.5	2868.0	Yes		5.14043035107588				ISIRate	Gain
4.0	1	48.313	0.022	93.177	4.3	2.0	12.115	3.0	955.0	2.0	Outcome1	4.3	0.22	0.0	No	2.0	4.08380520951302	0.689	49.002		GetAnswer	Mixed
4.0	1	49.032	0.03	93.896	4.3	2.0	12.115	4.0	955.0	2.0	Outcome1	4.3	0.22	0.0	No		4.08380520951302				ShowChoice	Mixed
4.0	1	53.044	0.012	97.908	4.3	2.0	12.115	1.0	955.0	2.0	Outcome1	4.3	0.22	0.0	No		4.08380520951302				ShowResult	Mixed
4.0	1	54.063	0.019	98.927	4.3	2.0	12.115	2.011	955.0	2.0	Outcome1	4.3	0.22	0.0	No		4.08380520951302				ISITrial	Mixed
5.0	1	56.103	0.029	100.967	10.3	3.0	13.4025	3.0	955.0	5.0	Outcome1	10.3	6.0	2582.5	Yes	2.0	4.2955832389581	0.818	56.921		GetAnswer	Gain
5.0	1	56.939	0.018	101.803	10.3	3.0	13.4025	4.0	955.0	5.0	Outcome1	10.3	6.0	2582.5	Yes		4.2955832389581				ShowChoice	Gain
5.0	1	60.951	0.012	105.815	10.3	3.0	13.4025	1.0	955.0	5.0	Outcome1	10.3	6.0	2582.5	Yes		4.2955832389581				ShowResult	Gain
5.0	1	61.97	0.019	106.834	10.3	3.0	13.4025	5.129	955.0	5.0	Outcome1	10.3	6.0	2582.5	Yes		4.2955832389581				ISITrial	Gain
5.0	1	69.727	0.026	114.591	10.3	3.0	13.4025	1.176	955.0	5.0	Outcome1	10.3	6.0	2582.5	Yes		4.2955832389581			824.0	TrialHappiness	Gain
5.0	1	73.739	4.012	118.603	10.3	3.0	13.4025	2.33	955.0	5.0	Outcome1	10.3	6.0	2582.5	Yes		4.2955832389581				ISIRate	Gain
6.0	1	76.096	0.027	120.96	12.5	4.47	14.965	3.0	955.0	1.68	Outcome1	12.5	8.94	0.0	No	2.0	3.55605889014723	0.555	76.651		GetAnswer	Loss
6.0	1	76.664	0.013	121.528	12.5	4.47	14.965	4.0	955.0	1.68	Outcome1	12.5	8.94	0.0	No		3.55605889014723				ShowChoice	Loss
6.0	1	80.676	0.012	125.54	12.5	4.47	14.965	1.0	955.0	1.68	Outcome1	12.5	8.94	0.0	No		3.55605889014723				ShowResult	Loss
6.0	1	81.696	0.02	126.56	12.5	4.47	14.965	6.232	955.0	1.68	Outcome1	12.5	8.94	0.0	No		3.55605889014723				ISITrial	Loss
7.0	1	87.948	0.02	132.812	0.1	-2.0	14.9775	3.0	955.0	1.5	Outcome2	-3.6	0.1	0.0	No	2.0	3.7044167610419	0.463	88.411		GetAnswer	Mixed
7.0	1	88.433	0.021	133.297	0.1	-2.0	14.9775	4.0	955.0	1.5	Outcome2	-3.6	0.1	0.0	No		3.7044167610419				ShowChoice	Mixed
7.0	1	92.445	0.012	137.309	0.1	-2.0	14.9775	1.0	955.0	1.5	Outcome2	-3.6	0.1	0.0	No		3.7044167610419				ShowResult	Mixed
7.0	1	93.465	0.02	138.329	0.1	-2.0	14.9775	2.305	955.0	1.5	Outcome2	-3.6	0.1	0.0	No		3.7044167610419				ISITrial	Mixed
8.0	1	95.788	0.018	140.652	8.23	4.12	16.0063	3.0	955.0	2.0	Outcome1	8.23	8.9	3112.5	Yes	2.0	-0.667232918082295	0.567	96.355		GetAnswer	Gain
8.0	1	96.373	0.018	141.237	8.23	4.12	16.0063	4.0	955.0	2.0	Outcome1	8.23	8.9	3112.5	Yes		-0.667232918082295				ShowChoice	Gain
8.0	1	100.385	0.012	145.249	8.23	4.12	16.0063	1.0	955.0	2.0	Outcome1	8.23	8.9	3112.5	Yes		-0.667232918082295				ShowResult	Gain
8.0	1	101.405	0.02	146.269	8.23	4.12	16.0063	3.506	955.0	2.0	Outcome1	8.23	8.9	3112.5	Yes		-0.667232918082295				ISITrial	Gain
8.0	1	108.075	0.031	152.939	8.23	4.12	16.0063	2.348	955.0	2.0	Outcome1	8.23	8.9	3112.5	Yes		-0.667232918082295			816.0	TrialHappiness	Gain
8.0	1	112.087	4.012	156.951	8.23	4.12	16.0063	4.45	955.0	2.0	Outcome1	8.23	8.9	3112.5	Yes		-0.667232918082295				ISIRate	Gain
9.0	1	116.567	0.03	161.431	3.19	1.6	16.4051	3.0	955.0	1.2	Outcome2	3.9	3.19	0.0	No	2.0	-0.712061155152888	0.52	117.087		GetAnswer	Mixed
9.0	1	117.102	0.015	161.966	3.19	1.6	16.4051	4.0	955.0	1.2	Outcome2	3.9	3.19	0.0	No		-0.712061155152888				ShowChoice	Mixed
9.0	1	121.114	0.012	165.978	3.19	1.6	16.4051	1.0	955.0	1.2	Outcome2	3.9	3.19	0.0	No		-0.712061155152888				ShowResult	Mixed
9.0	1	122.134	0.02	166.998	3.19	1.6	16.4051	2.0	955.0	1.2	Outcome2	3.9	3.19	0.0	No		-0.712061155152888				ISITrial	Mixed
10.0	1	124.156	0.022	169.02	2.77	1.38	16.7513	3.0	955.0	0.82	Outcome1	2.77	3.5	4000.0	Yes	2.0	-0.7251793129482819	0.59	124.746		GetAnswer	Mixed
10.0	1	124.775	0.029	169.639	2.77	1.38	16.7513	4.0	955.0	0.82	Outcome1	2.77	3.5	4000.0	Yes		-0.7251793129482819				ShowChoice	Mixed
10.0	1	128.787	0.012	173.651	2.77	1.38	16.7513	1.0	955.0	0.82	Outcome1	2.77	3.5	4000.0	Yes		-0.7251793129482819				ShowResult	Mixed
10.0	1	129.807	0.02	174.671	2.77	1.38	16.7513	2.0	955.0	0.82	Outcome1	2.77	3.5	4000.0	Yes		-0.7251793129482819				ISITrial	Mixed
10.0	1	135.858	0.029	180.722	2.77	1.38	16.7513	2.317	955.0	0.82	Outcome1	2.77	3.5	4000.0	Yes		-0.7251793129482819			816.0	TrialHappiness	Mixed
10.0	1	139.87	4.012	184.734	2.77	1.38	16.7513	8.0	955.0	0.82	Outcome1	2.77	3.5	4000.0	Yes		-0.7251793129482819				ISIRate	Mixed
11.0	1	147.894	0.024	192.758	1.3	-1.0	16.9138	3.0	955.0	0.66	Outcome1	1.3	-3.15	0.0	No	2.0	4.45186862967157	0.563	148.457		GetAnswer	Mixed
11.0	1	148.479	0.022	193.343	1.3	-1.0	16.9138	4.0	955.0	0.66	Outcome1	1.3	-3.15	0.0	No		4.45186862967157				ShowChoice	Mixed
11.0	1	152.491	0.012	197.355	1.3	-1.0	16.9138	1.0	955.0	0.66	Outcome1	1.3	-3.15	0.0	No		4.45186862967157				ShowResult	Mixed
11.0	1	153.511	0.02	198.375	1.3	-1.0	16.9138	3.324	955.0	0.66	Outcome1	1.3	-3.15	0.0	No		4.45186862967157				ISITrial	Mixed
12.0	1	156.854	0.019	201.718	10.9	3.14	18.2763	3.0	955.0	2.0	Outcome2	6.29	10.9	2618.75	Yes	2.0	4.609286523216309	0.445	157.299		GetAnswer	Loss
12.0	1	157.322	0.023	202.186	10.9	3.14	18.2763	4.0	955.0	2.0	Outcome2	6.29	10.9	2618.75	Yes		4.609286523216309				ShowChoice	Loss
12.0	1	161.334	0.012	206.198	10.9	3.14	18.2763	1.0	955.0	2.0	Outcome2	6.29	10.9	2618.75	Yes		4.609286523216309				ShowResult	Loss
12.0	1	162.354	0.02	207.218	10.9	3.14	18.2763	6.642	955.0	2.0	Outcome2	6.29	10.9	2618.75	Yes		4.609286523216309				ISITrial	Loss
12.0	1	171.665	0.022	216.529	10.9	3.14	18.2763	2.56	955.0	2.0	Outcome2	6.29	10.9	2618.75	Yes		4.609286523216309			896.0	TrialHappiness	Loss
12.0	1	175.677	4.012	220.541	10.9	3.14	18.2763	2.475	955.0	2.0	Outcome2	6.29	10.9	2618.75	Yes		4.609286523216309				ISIRate	Loss
13.0	1	178.185	0.033	223.049	-1.1	-3.0	18.1388	3.0	955.0	0.4	Outcome1	-1.1	-4.51	0.0	No	2.0	3.40770101925255	1.564	179.749		GetAnswer	Mixed
13.0	1	179.773	0.024	224.637	-1.1	-3.0	18.1388	4.0	955.0	0.4	Outcome1	-1.1	-4.51	0.0	No		3.40770101925255				ShowChoice	Mixed
13.0	1	183.785	0.012	228.649	-1.1	-3.0	18.1388	1.0	955.0	0.4	Outcome1	-1.1	-4.51	0.0	No		3.40770101925255				ShowResult	Mixed
13.0	1	184.805	0.02	229.669	-1.1	-3.0	18.1388	3.48	955.0	0.4	Outcome1	-1.1	-4.51	0.0	No		3.40770101925255				ISITrial	Mixed
14.0	1	188.315	0.03	233.179	7.3	1.92	19.0513	3.0	955.0	2.48	Outcome1	7.3	3.83	0.0	No	2.0	3.4745186862967206	0.786	189.101		GetAnswer	Gain
14.0	1	189.117	0.015	233.981	7.3	1.92	19.0513	4.0	955.0	2.48	Outcome1	7.3	3.83	0.0	No		3.4745186862967206				ShowChoice	Gain
14.0	1	193.146	0.029	238.01	7.3	1.92	19.0513	1.0	955.0	2.48	Outcome1	7.3	3.83	0.0	No		3.4745186862967206				ShowResult	Gain
14.0	1	194.166	0.02	239.03	7.3	1.92	19.0513	5.019	955.0	2.48	Outcome1	7.3	3.83	0.0	No		3.4745186862967206				ISITrial	Gain
15.0	1	199.214	0.029	244.078	4.7	0.58	19.6388	3.0	955.0	1.82	Outcome2	1.16	4.7	3348.5	Yes	2.0	3.5413363533408795	0.611	199.825		GetAnswer	Gain
15.0	1	199.85	0.025	244.714	4.7	0.58	19.6388	4.0	955.0	1.82	Outcome2	1.16	4.7	3348.5	Yes		3.5413363533408795				ShowChoice	Gain
15.0	1	203.862	0.012	248.726	4.7	0.58	19.6388	1.0	955.0	1.82	Outcome2	1.16	4.7	3348.5	Yes		3.5413363533408795				ShowResult	Gain
15.0	1	204.881	0.019	249.745	4.7	0.58	19.6388	7.614	955.0	1.82	Outcome2	1.16	4.7	3348.5	Yes		3.5413363533408795				ISITrial	Gain
15.0	1	215.898	0.029	260.762	4.7	0.58	19.6388	2.436	955.0	1.82	Outcome2	1.16	4.7	3348.5	Yes		3.5413363533408795			820.0	TrialHappiness	Gain
15.0	1	219.926	4.028	264.79	4.7	0.58	19.6388	5.394	955.0	1.82	Outcome2	1.16	4.7	3348.5	Yes		3.5413363533408795				ISIRate	Gain
16.0	1	225.343	0.023	270.207	2.0	2.0	19.8888	3.0	955.0	1.68	Certain	4.5	-0.4	0.0	No	4.0	4.89920724801812	0.869	226.212		GetAnswer	Gain
16.0	1	226.229	0.017	271.093	2.0	2.0	19.8888	4.0	955.0	1.68	Certain	4.5	-0.4	0.0	No		4.89920724801812				ShowChoice	Gain
16.0	1	230.241	0.012	275.105	2.0	2.0	19.8888	1.0	955.0	1.68	Certain	4.5	-0.4	0.0	No		4.89920724801812				ShowResult	Gain
16.0	1	231.26	0.019	276.124	2.0	2.0	19.8888	3.008	955.0	1.68	Certain	4.5	-0.4	0.0	No		4.89920724801812				ISITrial	Gain
17.0	1	234.286	0.018	279.15	2.5	0.0	20.2013	3.0	955.0	0.2	Outcome2	-2.55	2.5	3041.5	Yes	2.0	5.05209513023783	0.69	234.976		GetAnswer	Mixed
17.0	1	235.005	0.029	279.869	2.5	0.0	20.2013	4.0	955.0	0.2	Outcome2	-2.55	2.5	3041.5	Yes		5.05209513023783				ShowChoice	Mixed
17.0	1	239.017	0.012	283.881	2.5	0.0	20.2013	1.0	955.0	0.2	Outcome2	-2.55	2.5	3041.5	Yes		5.05209513023783				ShowResult	Mixed
17.0	1	240.037	0.02	284.901	2.5	0.0	20.2013	3.566	955.0	0.2	Outcome2	-2.55	2.5	3041.5	Yes		5.05209513023783				ISITrial	Mixed
17.0	1	246.69	0.017	291.554	2.5	0.0	20.2013	3.294	955.0	0.2	Outcome2	-2.55	2.5	3041.5	Yes		5.05209513023783			756.0	TrialHappiness	Mixed
17.0	1	250.702	4.012	295.566	2.5	0.0	20.2013	4.166	955.0	0.2	Outcome2	-2.55	2.5	3041.5	Yes		5.05209513023783				ISIRate	Mixed
18.0	1	254.898	0.03	299.762	12.1	2.9	21.7138	3.0	955.0	4.2	Outcome2	5.81	12.1	0.0	No	2.0	6.29218573046433	0.801	255.699		GetAnswer	Loss
18.0	1	255.717	0.018	300.581	12.1	2.9	21.7138	4.0	955.0	4.2	Outcome2	5.81	12.1	0.0	No		6.29218573046433				ShowChoice	Loss
18.0	1	259.729	0.012	304.593	12.1	2.9	21.7138	1.0	955.0	4.2	Outcome2	5.81	12.1	0.0	No		6.29218573046433				ShowResult	Loss
18.0	1	260.749	0.02	305.613	12.1	2.9	21.7138	6.787	955.0	4.2	Outcome2	5.81	12.1	0.0	No		6.29218573046433				ISITrial	Loss
19.0	1	267.552	0.016	312.416	9.1	1.29	22.8513	3.0	955.0	2.22	Outcome1	9.1	2.58	0.0	No	2.0	6.51755379388448	0.524	268.076		GetAnswer	Gain
19.0	1	268.104	0.028	312.968	9.1	1.29	22.8513	4.0	955.0	2.22	Outcome1	9.1	2.58	0.0	No		6.51755379388448				ShowChoice	Gain
19.0	1	272.116	0.012	316.98	9.1	1.29	22.8513	1.0	955.0	2.22	Outcome1	9.1	2.58	0.0	No		6.51755379388448				ShowResult	Gain
19.0	1	273.136	0.02	318.0	9.1	1.29	22.8513	2.0	955.0	2.22	Outcome1	9.1	2.58	0.0	No		6.51755379388448				ISITrial	Gain
20.0	1	275.158	0.022	320.022	9.9	1.58	24.0888	3.0	955.0	3.6	Outcome2	3.16	9.9	2921.25	Yes	2.0	6.74292185730464	0.463	275.621		GetAnswer	Gain
20.0	1	275.643	0.022	320.507	9.9	1.58	24.0888	4.0	955.0	3.6	Outcome2	3.16	9.9	2921.25	Yes		6.74292185730464				ShowChoice	Gain
20.0	1	279.655	0.012	324.519	9.9	1.58	24.0888	1.0	955.0	3.6	Outcome2	3.16	9.9	2921.25	Yes		6.74292185730464				ShowResult	Gain
20.0	1	280.675	0.02	325.539	9.9	1.58	24.0888	8.0	955.0	3.6	Outcome2	3.16	9.9	2921.25	Yes		6.74292185730464				ISITrial	Gain
20.0	1	291.641	0.021	336.505	9.9	1.58	24.0888	3.996	955.0	3.6	Outcome2	3.16	9.9	2921.25	Yes		6.74292185730464			884.0	TrialHappiness	Gain
20.0	1	295.67	4.029	340.534	9.9	1.58	24.0888	3.685	955.0	3.6	Outcome2	3.16	9.9	2921.25	Yes		6.74292185730464				ISIRate	Gain
21.0	1	299.381	0.026	344.245	0.7	-1.0	24.1763	3.0	955.0	0.3	Outcome1	0.7	-4.09	0.0	No	2.0	4.79388448471121	0.57	299.951		GetAnswer	Mixed
21.0	1	299.966	0.015	344.83	0.7	-1.0	24.1763	4.0	955.0	0.3	Outcome1	0.7	-4.09	0.0	No		4.79388448471121				ShowChoice	Mixed
21.0	1	303.978	0.012	348.842	0.7	-1.0	24.1763	1.0	955.0	0.3	Outcome1	0.7	-4.09	0.0	No		4.79388448471121				ShowResult	Mixed
21.0	1	304.998	0.02	349.862	0.7	-1.0	24.1763	3.555	955.0	0.3	Outcome1	0.7	-4.09	0.0	No		4.79388448471121				ISITrial	Mixed
22.0	1	308.575	0.022	353.439	11.9	3.52	25.6638	3.0	955.0	3.6	Outcome1	11.9	7.03	3219.5	Yes	2.0	4.87429218573046	0.507	309.082		GetAnswer	Loss
22.0	1	309.11	0.028	353.974	11.9	3.52	25.6638	4.0	955.0	3.6	Outcome1	11.9	7.03	3219.5	Yes		4.87429218573046				ShowChoice	Loss
22.0	1	313.122	0.012	357.986	11.9	3.52	25.6638	1.0	955.0	3.6	Outcome1	11.9	7.03	3219.5	Yes		4.87429218573046				ShowResult	Loss
22.0	1	314.142	0.02	359.006	11.9	3.52	25.6638	6.793	955.0	3.6	Outcome1	11.9	7.03	3219.5	Yes		4.87429218573046				ISITrial	Loss
22.0	1	324.205	0.023	369.069	11.9	3.52	25.6638	1.897	955.0	3.6	Outcome1	11.9	7.03	3219.5	Yes	2{-2}2{-2}	4.87429218573046	1.897	326.102	816.0	TrialHappiness	Loss
22.0	1	328.217	4.012	373.081	11.9	3.52	25.6638	4.878	955.0	3.6	Outcome1	11.9	7.03	3219.5	Yes		4.87429218573046				ISIRate	Loss
23.0	1	333.115	0.02	377.979	6.5	0.2	26.4763	3.0	955.0	1.68	Outcome2	0.39	6.5	0.0	No	2.0	6.10985277463194	0.529	333.644		GetAnswer	Gain
23.0	1	333.667	0.023	378.531	6.5	0.2	26.4763	4.0	955.0	1.68	Outcome2	0.39	6.5	0.0	No		6.10985277463194				ShowChoice	Gain
23.0	1	337.679	0.012	382.543	6.5	0.2	26.4763	1.0	955.0	1.68	Outcome2	0.39	6.5	0.0	No		6.10985277463194				ShowResult	Gain
23.0	1	338.699	0.02	383.563	6.5	0.2	26.4763	8.0	955.0	1.68	Outcome2	0.39	6.5	0.0	No		6.10985277463194				ISITrial	Gain
24.0	1	346.723	0.024	391.587	8.3	1.01	27.5138	3.0	955.0	5.0	Outcome1	8.3	2.03	3255.0	Yes	2.0	6.26727066817667	0.476	347.199		GetAnswer	Gain
24.0	1	347.224	0.025	392.088	8.3	1.01	27.5138	4.0	955.0	5.0	Outcome1	8.3	2.03	3255.0	Yes		6.26727066817667				ShowChoice	Gain
24.0	1	351.236	0.012	396.1	8.3	1.01	27.5138	1.0	955.0	5.0	Outcome1	8.3	2.03	3255.0	Yes		6.26727066817667				ShowResult	Gain
24.0	1	352.256	0.02	397.12	8.3	1.01	27.5138	2.0	955.0	5.0	Outcome1	8.3	2.03	3255.0	Yes		6.26727066817667				ISITrial	Gain
24.0	1	357.555	0.021	402.419	8.3	1.01	27.5138	2.483	955.0	5.0	Outcome1	8.3	2.03	3255.0	Yes		6.26727066817667			816.0	TrialHappiness	Gain
24.0	1	361.584	4.029	406.448	8.3	1.01	27.5138	5.02	955.0	5.0	Outcome1	8.3	2.03	3255.0	Yes		6.26727066817667				ISIRate	Gain
25.0	1	366.632	0.028	411.496	11.3	2.44	28.9263	3.0	955.0	2.48	Outcome1	11.3	4.88	0.0	No	2.0	6.4246885617214105	0.62	367.252		GetAnswer	Loss
25.0	1	367.267	0.015	412.131	11.3	2.44	28.9263	4.0	955.0	2.48	Outcome1	11.3	4.88	0.0	No		6.4246885617214105				ShowChoice	Loss
25.0	1	371.279	0.012	416.143	11.3	2.44	28.9263	1.0	955.0	2.48	Outcome1	11.3	4.88	0.0	No		6.4246885617214105				ShowResult	Loss
25.0	1	372.299	0.02	417.163	11.3	2.44	28.9263	3.749	955.0	2.48	Outcome1	11.3	4.88	0.0	No		6.4246885617214105				ISITrial	Loss
26.0	1	376.077	0.029	420.941	2.7	0.0	29.2638	3.0	955.0	0.3	Outcome1	2.7	-3.88	0.0	No	2.0	6.58210645526614	0.289	376.366		GetAnswer	Mixed
26.0	1	376.395	0.029	421.259	2.7	0.0	29.2638	4.0	955.0	0.3	Outcome1	2.7	-3.88	0.0	No		6.58210645526614				ShowChoice	Mixed
26.0	1	380.407	0.012	425.271	2.7	0.0	29.2638	1.0	955.0	0.3	Outcome1	2.7	-3.88	0.0	No		6.58210645526614				ShowResult	Mixed
26.0	1	381.426	0.019	426.29	2.7	0.0	29.2638	7.834	955.0	0.3	Outcome1	2.7	-3.88	0.0	No		6.58210645526614				ISITrial	Mixed
27.0	1	389.283	0.023	434.147	7.7	0.48	30.2263	3.0	955.0	3.16	Outcome2	0.96	7.7	2549.75	Yes	2.0	6.73952434881087	0.315	389.598		GetAnswer	Gain
27.0	1	389.618	0.02	434.482	7.7	0.48	30.2263	4.0	955.0	3.16	Outcome2	0.96	7.7	2549.75	Yes		6.73952434881087				ShowChoice	Gain
27.0	1	393.63	0.012	438.494	7.7	0.48	30.2263	1.0	955.0	3.16	Outcome2	0.96	7.7	2549.75	Yes		6.73952434881087				ShowResult	Gain
27.0	1	394.649	0.019	439.513	7.7	0.48	30.2263	4.225	955.0	3.16	Outcome2	0.96	7.7	2549.75	Yes		6.73952434881087				ISITrial	Gain
27.0	1	401.47	0.025	446.334	7.7	0.48	30.2263	2.021	955.0	3.16	Outcome2	0.96	7.7	2549.75	Yes	2{-2}2{-2}2{-2}	6.73952434881087	2.021	403.491	824.0	TrialHappiness	Gain
27.0	1	405.499	4.029	450.363	7.7	0.48	30.2263	2.199	955.0	3.16	Outcome2	0.96	7.7	2549.75	Yes		6.73952434881087				ISIRate	Gain
	1	407.722	0.024	452.586				-0.001								{SPACE}		65.89	473.612		Rest	
	1	473.636	0.024	518.5				4.0													BlockHappyPreview	
	1	477.648	0.012	522.512				1.227												736.0	BlockStartHappiness	
	1	483.348	0.024	528.212				-0.001								5.0		1.741	485.089		ScanWait	
	2	0.014	0.014	529.967				10.0													GetReady	
28.0	2	10.045	0.031	539.998	0.72	0.0	30.3163	3.0	70.0	0.4	Outcome2	-1.99	0.72	0.0	No	2.0	2.70578231292517	0.518	10.563		GetAnswer	Mixed
28.0	2	10.579	0.016	540.532	0.72	0.0	30.3163	4.0	70.0	0.4	Outcome2	-1.99	0.72	0.0	No		2.70578231292517				ShowChoice	Mixed
28.0	2	14.591	0.012	544.544	0.72	0.0	30.3163	1.0	70.0	0.4	Outcome2	-1.99	0.72	0.0	No		2.70578231292517				ShowResult	Mixed
28.0	2	15.611	0.02	545.564	0.72	0.0	30.3163	3.575	70.0	0.4	Outcome2	-1.99	0.72	0.0	No		2.70578231292517				ISITrial	Mixed
29.0	2	19.205	0.019	549.158	-12.78	-6.0	28.7188	3.0	70.0	0.66	Outcome2	-0.7	-12.78	3529.0	Yes	2.0	-12.081632653061199	0.538	19.743		GetAnswer	Mixed
29.0	2	19.757	0.014	549.71	-12.78	-6.0	28.7188	4.0	70.0	0.66	Outcome2	-0.7	-12.78	3529.0	Yes		-12.081632653061199				ShowChoice	Mixed
29.0	2	23.769	0.012	553.722	-12.78	-6.0	28.7188	1.0	70.0	0.66	Outcome2	-0.7	-12.78	3529.0	Yes		-12.081632653061199				ShowResult	Mixed
29.0	2	24.789	0.02	554.742	-12.78	-6.0	28.7188	3.955	70.0	0.66	Outcome2	-0.7	-12.78	3529.0	Yes		-12.081632653061199				ISITrial	Mixed
29.0	2	32.328	0.032	562.281	-12.78	-6.0	28.7188	3.023	70.0	0.66	Outcome2	-0.7	-12.78	3529.0	Yes	4{-4}2{-2}2{-2}2{-2}2{-2}	-12.081632653061199	3.023	35.351	428.0	TrialHappiness	Mixed
29.0	2	36.357	4.029	566.31	-12.78	-6.0	28.7188	6.116	70.0	0.66	Outcome2	-0.7	-12.78	3529.0	Yes		-12.081632653061199				ISIRate	Mixed
30.0	2	42.492	0.019	572.445	-7.9	-4.0	27.7313	3.0	70.0	1.0	Outcome1	-7.9	-0.3	0.0	No	2.0	-7.59863945578231	1.275	43.767		GetAnswer	Mixed
30.0	2	43.796	0.029	573.749	-7.9	-4.0	27.7313	4.0	70.0	1.0	Outcome1	-7.9	-0.3	0.0	No		-7.59863945578231				ShowChoice	Mixed
30.0	2	47.824	0.028	577.777	-7.9	-4.0	27.7313	1.0	70.0	1.0	Outcome1	-7.9	-0.3	0.0	No		-7.59863945578231				ShowResult	Mixed
30.0	2	48.844	0.02	578.797	-7.9	-4.0	27.7313	4.453	70.0	1.0	Outcome1	-7.9	-0.3	0.0	No		-7.59863945578231				ISITrial	Mixed
31.0	2	53.324	0.027	583.277	5.3	2.65	28.3938	3.0	70.0	2.48	Outcome1	5.3	13.3	2503.25	Yes	2.0	-8.00453514739229	0.771	54.095		GetAnswer	Loss
31.0	2	54.11	0.015	584.063	5.3	2.65	28.3938	4.0	70.0	2.48	Outcome1	5.3	13.3	2503.25	Yes		-8.00453514739229				ShowChoice	Loss
31.0	2	58.138	0.028	588.091	5.3	2.65	28.3938	1.0	70.0	2.48	Outcome1	5.3	13.3	2503.25	Yes		-8.00453514739229				ShowResult	Loss
31.0	2	59.158	0.02	589.111	5.3	2.65	28.3938	4.786	70.0	2.48	Outcome1	5.3	13.3	2503.25	Yes		-8.00453514739229				ISITrial	Loss
31.0	2	66.497	0.021	596.45	5.3	2.65	28.3938	2.319	70.0	2.48	Outcome1	5.3	13.3	2503.25	Yes		-8.00453514739229			376.0	TrialHappiness	Loss
31.0	2	70.526	4.029	600.479	5.3	2.65	28.3938	2.013	70.0	2.48	Outcome1	5.3	13.3	2503.25	Yes		-8.00453514739229				ISIRate	Loss
32.0	2	72.565	0.026	602.518	-6.63	-3.0	27.565	3.0	70.0	0.4	Outcome1	-6.63	0.9	0.0	No	2.0	-7.526077097505669	1.371	73.936		GetAnswer	Mixed
32.0	2	73.952	0.016	603.905	-6.63	-3.0	27.565	4.0	70.0	0.4	Outcome1	-6.63	0.9	0.0	No		-7.526077097505669				ShowChoice	Mixed
32.0	2	77.964	0.012	607.917	-6.63	-3.0	27.565	1.0	70.0	0.4	Outcome1	-6.63	0.9	0.0	No		-7.526077097505669				ShowResult	Mixed
32.0	2	78.984	0.02	608.937	-6.63	-3.0	27.565	2.0	70.0	0.4	Outcome1	-6.63	0.9	0.0	No		-7.526077097505669				ISITrial	Mixed
33.0	2	81.007	0.023	610.96	1.0	1.0	27.69	3.0	70.0	2.8	Certain	2.38	0.91	0.0	No	4.0	1.4656084656084698	0.854	81.861		GetAnswer	Gain
33.0	2	81.876	0.015	611.829	1.0	1.0	27.69	4.0	70.0	2.8	Certain	2.38	0.91	0.0	No		1.4656084656084698				ShowChoice	Gain
33.0	2	85.905	0.029	615.858	1.0	1.0	27.69	1.0	70.0	2.8	Certain	2.38	0.91	0.0	No		1.4656084656084698				ShowResult	Gain
33.0	2	86.925	0.02	616.878	1.0	1.0	27.69	5.099	70.0	2.8	Certain	2.38	0.91	0.0	No		1.4656084656084698				ISITrial	Gain
34.0	2	92.057	0.033	622.01	3.38	2.0	28.1125	3.0	70.0	2.8	Outcome1	3.38	1.89	3231.5	Yes	2.0	1.4945200302343202	1.508	93.565		GetAnswer	Loss
34.0	2	93.595	0.03	623.548	3.38	2.0	28.1125	4.0	70.0	2.8	Outcome1	3.38	1.89	3231.5	Yes		1.4945200302343202				ShowChoice	Loss
34.0	2	97.623	0.028	627.576	3.38	2.0	28.1125	1.0	70.0	2.8	Outcome1	3.38	1.89	3231.5	Yes		1.4945200302343202				ShowResult	Loss
34.0	2	98.643	0.02	628.596	3.38	2.0	28.1125	4.784	70.0	2.8	Outcome1	3.38	1.89	3231.5	Yes		1.4945200302343202				ISITrial	Loss
34.0	2	106.7	0.027	636.653	3.38	2.0	28.1125	2.614	70.0	2.8	Outcome1	3.38	1.89	3231.5	Yes		1.4945200302343202			728.0	TrialHappiness	Loss
34.0	2	110.729	4.029	640.682	3.38	2.0	28.1125	4.926	70.0	2.8	Outcome1	3.38	1.89	3231.5	Yes		1.4945200302343202				ISIRate	Loss
35.0	2	115.677	0.022	645.63	-13.05	-6.0	26.4813	3.0	70.0	0.82	Outcome1	-13.05	1.5	0.0	No	2.0	-14.5532879818594	0.731	116.408		GetAnswer	Mixed
35.0	2	116.43	0.022	646.383	-13.05	-6.0	26.4813	4.0	70.0	0.82	Outcome1	-13.05	1.5	0.0	No		-14.5532879818594				ShowChoice	Mixed
35.0	2	120.458	0.028	650.411	-13.05	-6.0	26.4813	1.0	70.0	0.82	Outcome1	-13.05	1.5	0.0	No		-14.5532879818594				ShowResult	Mixed
35.0	2	121.478	0.02	651.431	-13.05	-6.0	26.4813	2.098	70.0	0.82	Outcome1	-13.05	1.5	0.0	No		-14.5532879818594				ISITrial	Mixed
36.0	2	123.601	0.025	653.554	-1.0	-1.0	26.3563	3.0	70.0	0.52	Certain	-0.22	-3.24	3335.75	Yes	4.0	3.01568405139834	0.997	124.598		GetAnswer	Mixed
36.0	2	124.621	0.023	654.574	-1.0	-1.0	26.3563	4.0	70.0	0.52	Certain	-0.22	-3.24	3335.75	Yes		3.01568405139834				ShowChoice	Mixed
36.0	2	128.65	0.029	658.603	-1.0	-1.0	26.3563	1.0	70.0	0.52	Certain	-0.22	-3.24	3335.75	Yes		3.01568405139834				ShowResult	Mixed
36.0	2	129.669	0.019	659.622	-1.0	-1.0	26.3563	5.156	70.0	0.52	Certain	-0.22	-3.24	3335.75	Yes		3.01568405139834				ISITrial	Mixed
36.0	2	138.211	0.024	668.164	-1.0	-1.0	26.3563	2.647	70.0	0.52	Certain	-0.22	-3.24	3335.75	Yes		3.01568405139834			472.0	TrialHappiness	Mixed
36.0	2	142.223	4.012	672.176	-1.0	-1.0	26.3563	5.343	70.0	0.52	Certain	-0.22	-3.24	3335.75	Yes		3.01568405139834				ISIRate	Mixed
37.0	2	147.59	0.024	677.543	-5.59	0.0	25.6575	3.0	70.0	4.2	Outcome2	6.1	-5.59	0.0	No	2.0	-11.6916099773243	0.757	148.347		GetAnswer	Gain
37.0	2	148.359	0.012	678.312	-5.59	0.0	25.6575	4.0	70.0	4.2	Outcome2	6.1	-5.59	0.0	No		-11.6916099773243				ShowChoice	Gain
37.0	2	152.371	0.012	682.324	-5.59	0.0	25.6575	1.0	70.0	4.2	Outcome2	6.1	-5.59	0.0	No		-11.6916099773243				ShowResult	Gain
37.0	2	153.39	0.019	683.343	-5.59	0.0	25.6575	3.598	70.0	4.2	Outcome2	6.1	-5.59	0.0	No		-11.6916099773243				ISITrial	Gain
38.0	2	157.018	0.03	686.971	-1.0	-1.0	25.5325	3.0	70.0	0.3	Certain	-2.4	-0.32	0.0	No	4.0	2.0757747543461798	0.864	157.882		GetAnswer	Mixed
38.0	2	157.904	0.021	687.857	-1.0	-1.0	25.5325	4.0	70.0	0.3	Certain	-2.4	-0.32	0.0	No		2.0757747543461798				ShowChoice	Mixed
38.0	2	161.916	0.012	691.869	-1.0	-1.0	25.5325	1.0	70.0	0.3	Certain	-2.4	-0.32	0.0	No		2.0757747543461798				ShowResult	Mixed
38.0	2	162.935	0.019	692.888	-1.0	-1.0	25.5325	4.787	70.0	0.3	Certain	-2.4	-0.32	0.0	No		2.0757747543461798				ISITrial	Mixed
39.0	2	167.75	0.028	697.703	2.12	1.0	25.7975	3.0	70.0	1.68	Outcome1	2.12	0.01	2864.25	Yes	2.0	2.11375661375661	0.695	168.445		GetAnswer	Gain
39.0	2	168.469	0.024	698.422	2.12	1.0	25.7975	4.0	70.0	1.68	Outcome1	2.12	0.01	2864.25	Yes		2.11375661375661				ShowChoice	Gain
39.0	2	172.481	0.012	702.434	2.12	1.0	25.7975	1.0	70.0	1.68	Outcome1	2.12	0.01	2864.25	Yes		2.11375661375661				ShowResult	Gain
39.0	2	173.5	0.019	703.453	2.12	1.0	25.7975	2.348	70.0	1.68	Outcome1	2.12	0.01	2864.25	Yes		2.11375661375661				ISITrial	Gain
39.0	2	178.766	0.028	708.719	2.12	1.0	25.7975	3.284	70.0	1.68	Outcome1	2.12	0.01	2864.25	Yes		2.11375661375661			768.0	TrialHappiness	Gain
39.0	2	182.778	4.012	712.731	2.12	1.0	25.7975	3.457	70.0	1.68	Outcome1	2.12	0.01	2864.25	Yes		2.11375661375661				ISIRate	Gain
40.0	2	186.255	0.02	716.208	-4.39	-2.19	25.2487	3.0	70.0	3.16	Outcome2	13.7	-4.39	0.0	No	2.0	-18.092970521542	0.736	186.991		GetAnswer	Loss
40.0	2	187.008	0.017	716.961	-4.39	-2.19	25.2487	4.0	70.0	3.16	Outcome2	13.7	-4.39	0.0	No		-18.092970521542				ShowChoice	Loss
40.0	2	191.02	0.012	720.973	-4.39	-2.19	25.2487	1.0	70.0	3.16	Outcome2	13.7	-4.39	0.0	No		-18.092970521542				ShowResult	Loss
40.0	2	192.039	0.019	721.992	-4.39	-2.19	25.2487	3.158	70.0	3.16	Outcome2	13.7	-4.39	0.0	No		-18.092970521542				ISITrial	Loss
41.0	2	195.215	0.018	725.168	-11.98	-2.0	23.7512	3.0	70.0	2.0	Outcome2	6.9	-11.98	4000.0	Yes	2.0	-18.8843537414966	0.605	195.82		GetAnswer	Gain
41.0	2	195.834	0.014	725.787	-11.98	-2.0	23.7512	4.0	70.0	2.0	Outcome2	6.9	-11.98	4000.0	Yes		-18.8843537414966				ShowChoice	Gain
41.0	2	199.846	0.012	729.799	-11.98	-2.0	23.7512	1.0	70.0	2.0	Outcome2	6.9	-11.98	4000.0	Yes		-18.8843537414966				ShowResult	Gain
41.0	2	200.866	0.02	730.819	-11.98	-2.0	23.7512	4.506	70.0	2.0	Outcome2	6.9	-11.98	4000.0	Yes		-18.8843537414966				ISITrial	Gain
41.0	2	209.425	0.029	739.378	-11.98	-2.0	23.7512	3.232	70.0	2.0	Outcome2	6.9	-11.98	4000.0	Yes	4{-4}2{-2}2{-2}2{-2}2{-2}	-18.8843537414966	3.232	212.657	420.0	TrialHappiness	Gain
41.0	2	213.437	4.012	743.39	-11.98	-2.0	23.7512	8.0	70.0	2.0	Outcome2	6.9	-11.98	4000.0	Yes		-18.8843537414966				ISIRate	Gain
42.0	2	221.461	0.024	751.414	-0.66	-0.33	23.6687	3.0	70.0	2.22	Outcome2	13.1	-0.66	0.0	No	2.0	-13.7573696145125	1.563	223.024		GetAnswer	Loss
42.0	2	223.049	0.025	753.002	-0.66	-0.33	23.6687	4.0	70.0	2.22	Outcome2	13.1	-0.66	0.0	No		-13.7573696145125				ShowChoice	Loss
42.0	2	227.061	0.012	757.014	-0.66	-0.33	23.6687	1.0	70.0	2.22	Outcome2	13.1	-0.66	0.0	No		-13.7573696145125				ShowResult	Loss
42.0	2	228.08	0.019	758.033	-0.66	-0.33	23.6687	6.248	70.0	2.22	Outcome2	13.1	-0.66	0.0	No		-13.7573696145125				ISITrial	Loss
43.0	2	234.349	0.021	764.302	-2.0	-2.0	23.4187	3.0	70.0	2.0	Certain	-9.25	4.9	2775.75	Yes	4.0	-14.154195011337901	2.237	236.586		GetAnswer	Gain
43.0	2	236.606	0.02	766.559	-2.0	-2.0	23.4187	4.0	70.0	2.0	Certain	-9.25	4.9	2775.75	Yes		-14.154195011337901				ShowChoice	Gain
43.0	2	240.618	0.012	770.571	-2.0	-2.0	23.4187	1.0	70.0	2.0	Certain	-9.25	4.9	2775.75	Yes		-14.154195011337901				ShowResult	Gain
43.0	2	241.638	0.02	771.591	-2.0	-2.0	23.4187	4.596	70.0	2.0	Certain	-9.25	4.9	2775.75	Yes		-14.154195011337901				ISITrial	Gain
43.0	2	249.043	0.015	778.996	-2.0	-2.0	23.4187	2.599	70.0	2.0	Certain	-9.25	4.9	2775.75	Yes	4{-4}2{-2}	-14.154195011337901	2.599	251.642	392.0	TrialHappiness	Gain
43.0	2	253.055	4.012	783.008	-2.0	-2.0	23.4187	3.103	70.0	2.0	Certain	-9.25	4.9	2775.75	Yes		-14.154195011337901				ISIRate	Gain
44.0	2	256.181	0.023	786.134	-1.77	-0.88	23.1975	3.0	70.0	5.0	Outcome2	12.3	-1.77	0.0	No	2.0	-14.074829931972802	0.952	257.133		GetAnswer	Loss
44.0	2	257.151	0.018	787.104	-1.77	-0.88	23.1975	4.0	70.0	5.0	Outcome2	12.3	-1.77	0.0	No		-14.074829931972802				ShowChoice	Loss
44.0	2	261.163	0.012	791.116	-1.77	-0.88	23.1975	1.0	70.0	5.0	Outcome2	12.3	-1.77	0.0	No		-14.074829931972802				ShowResult	Loss
44.0	2	262.183	0.02	792.136	-1.77	-0.88	23.1975	2.42	70.0	5.0	Outcome2	12.3	-1.77	0.0	No		-14.074829931972802				ISITrial	Loss
45.0	2	264.623	0.02	794.576	-5.14	2.0	22.555	3.0	70.0	2.48	Outcome1	-5.14	9.3	0.0	No	2.0	-14.4399092970522	0.725	265.348		GetAnswer	Gain
45.0	2	265.375	0.027	795.328	-5.14	2.0	22.555	4.0	70.0	2.48	Outcome1	-5.14	9.3	0.0	No		-14.4399092970522				ShowChoice	Gain
45.0	2	269.387	0.012	799.34	-5.14	2.0	22.555	1.0	70.0	2.48	Outcome1	-5.14	9.3	0.0	No		-14.4399092970522				ShowResult	Gain
45.0	2	270.407	0.02	800.36	-5.14	2.0	22.555	3.144	70.0	2.48	Outcome1	-5.14	9.3	0.0	No		-14.4399092970522				ISITrial	Gain
46.0	2	273.567	0.016	803.52	-1.85	-1.85	22.3238	3.0	70.0	2.22	Certain	-3.7	11.1	3841.25	Yes	4.0	-14.8049886621315	1.45	275.017		GetAnswer	Loss
46.0	2	275.038	0.021	804.991	-1.85	-1.85	22.3238	4.0	70.0	2.22	Certain	-3.7	11.1	3841.25	Yes		-14.8049886621315				ShowChoice	Loss
46.0	2	279.05	0.012	809.003	-1.85	-1.85	22.3238	1.0	70.0	2.22	Certain	-3.7	11.1	3841.25	Yes		-14.8049886621315				ShowResult	Loss
46.0	2	280.069	0.019	810.022	-1.85	-1.85	22.3238	2.246	70.0	2.22	Certain	-3.7	11.1	3841.25	Yes		-14.8049886621315				ISITrial	Loss
46.0	2	286.188	0.021	816.141	-1.85	-1.85	22.3238	2.298	70.0	2.22	Certain	-3.7	11.1	3841.25	Yes		-14.8049886621315			364.0	TrialHappiness	Loss
46.0	2	290.2	4.012	820.153	-1.85	-1.85	22.3238	7.365	70.0	2.22	Certain	-3.7	11.1	3841.25	Yes		-14.8049886621315				ISIRate	Loss
47.0	2	297.589	0.024	827.542	0.0	0.0	22.3238	3.0	70.0	1.5	Certain	-1.48	0.52	0.0	No	4.0	2.00226757369615	2.951	300.54		GetAnswer	Mixed
47.0	2	300.564	0.024	830.517	0.0	0.0	22.3238	4.0	70.0	1.5	Certain	-1.48	0.52	0.0	No		2.00226757369615				ShowChoice	Mixed
47.0	2	304.576	0.012	834.529	0.0	0.0	22.3238	1.0	70.0	1.5	Certain	-1.48	0.52	0.0	No		2.00226757369615				ShowResult	Mixed
47.0	2	305.596	0.02	835.549	0.0	0.0	22.3238	2.0	70.0	1.5	Certain	-1.48	0.52	0.0	No		2.00226757369615				ISITrial	Mixed
48.0	2	307.619	0.023	837.572	-4.53	-2.26	21.7576	3.0	70.0	1.68	Outcome1	-4.53	10.5	2831.75	Yes	2.0	-15.0272108843537	1.122	308.741		GetAnswer	Loss
48.0	2	308.755	0.014	838.708	-4.53	-2.26	21.7576	4.0	70.0	1.68	Outcome1	-4.53	10.5	2831.75	Yes		-15.0272108843537				ShowChoice	Loss
48.0	2	312.767	0.012	842.72	-4.53	-2.26	21.7576	1.0	70.0	1.68	Outcome1	-4.53	10.5	2831.75	Yes		-15.0272108843537				ShowResult	Loss
48.0	2	313.787	0.02	843.74	-4.53	-2.26	21.7576	3.692	70.0	1.68	Outcome1	-4.53	10.5	2831.75	Yes		-15.0272108843537				ISITrial	Loss
48.0	2	320.357	0.027	850.31	-4.53	-2.26	21.7576	2.056	70.0	1.68	Outcome1	-4.53	10.5	2831.75	Yes		-15.0272108843537			428.0	TrialHappiness	Loss
48.0	2	324.369	4.012	854.322	-4.53	-2.26	21.7576	3.327	70.0	1.68	Outcome1	-4.53	10.5	2831.75	Yes		-15.0272108843537				ISIRate	Loss
49.0	2	327.712	0.016	857.665	-12.35	-4.0	20.2138	3.0	70.0	1.5	Outcome1	-12.35	4.1	0.0	No	2.0	-16.448979591836697	2.607	330.319		GetAnswer	Mixed
49.0	2	330.337	0.018	860.29	-12.35	-4.0	20.2138	4.0	70.0	1.5	Outcome1	-12.35	4.1	0.0	No		-16.448979591836697				ShowChoice	Mixed
49.0	2	334.349	0.012	864.302	-12.35	-4.0	20.2138	1.0	70.0	1.5	Outcome1	-12.35	4.1	0.0	No		-16.448979591836697				ShowResult	Mixed
49.0	2	335.368	0.019	865.321	-12.35	-4.0	20.2138	8.0	70.0	1.5	Outcome1	-12.35	4.1	0.0	No		-16.448979591836697				ISITrial	Mixed
50.0	2	343.392	0.024	873.345	-6.0	-6.0	19.4638	3.0	70.0	1.0	Certain	-15.15	1.7	3547.25	Yes	4.0	-16.8548752834467	1.681	345.073		GetAnswer	Mixed
50.0	2	345.097	0.024	875.05	-6.0	-6.0	19.4638	4.0	70.0	1.0	Certain	-15.15	1.7	3547.25	Yes		-16.8548752834467				ShowChoice	Mixed
50.0	2	349.109	0.012	879.062	-6.0	-6.0	19.4638	1.0	70.0	1.0	Certain	-15.15	1.7	3547.25	Yes		-16.8548752834467				ShowResult	Mixed
50.0	2	350.129	0.02	880.082	-6.0	-6.0	19.4638	7.537	70.0	1.0	Certain	-15.15	1.7	3547.25	Yes		-16.8548752834467				ISITrial	Mixed
50.0	2	361.262	0.03	891.215	-6.0	-6.0	19.4638	2.997	70.0	1.0	Certain	-15.15	1.7	3547.25	Yes		-16.8548752834467			468.0	TrialHappiness	Mixed
50.0	2	365.274	4.012	895.227	-6.0	-6.0	19.4638	6.189	70.0	1.0	Certain	-15.15	1.7	3547.25	Yes		-16.8548752834467				ISIRate	Mixed
51.0	2	371.493	0.03	901.446	0.12	-1.0	19.4788	3.0	70.0	0.2	Outcome1	0.12	-2.43	0.0	No	2.0	2.54799697656841	0.948	372.441		GetAnswer	Mixed
51.0	2	372.463	0.022	902.416	0.12	-1.0	19.4788	4.0	70.0	0.2	Outcome1	0.12	-2.43	0.0	No		2.54799697656841				ShowChoice	Mixed
51.0	2	376.475	0.012	906.428	0.12	-1.0	19.4788	1.0	70.0	0.2	Outcome1	0.12	-2.43	0.0	No		2.54799697656841				ShowResult	Mixed
51.0	2	377.494	0.019	907.447	0.12	-1.0	19.4788	5.508	70.0	0.2	Outcome1	0.12	-2.43	0.0	No		2.54799697656841				ISITrial	Mixed
52.0	2	383.028	0.026	912.981	2.0	2.0	19.7288	3.0	70.0	3.16	Certain	11.7	-6.69	0.0	No	4.0	-18.392290249433103	0.648	383.676		GetAnswer	Loss
52.0	2	383.696	0.02	913.649	2.0	2.0	19.7288	4.0	70.0	3.16	Certain	11.7	-6.69	0.0	No		-18.392290249433103				ShowChoice	Loss
52.0	2	387.708	0.012	917.661	2.0	2.0	19.7288	1.0	70.0	3.16	Certain	11.7	-6.69	0.0	No		-18.392290249433103				ShowResult	Loss
52.0	2	388.728	0.02	918.681	2.0	2.0	19.7288	5.913	70.0	3.16	Certain	11.7	-6.69	0.0	No		-18.392290249433103				ISITrial	Loss
53.0	2	394.662	0.021	924.615	-13.74	-4.0	18.0113	3.0	70.0	2.22	Outcome1	-13.74	5.1	2996.75	Yes	2.0	-18.843537414966	2.176	396.838		GetAnswer	Gain
53.0	2	396.852	0.014	926.805	-13.74	-4.0	18.0113	4.0	70.0	2.22	Outcome1	-13.74	5.1	2996.75	Yes		-18.843537414966				ShowChoice	Gain
53.0	2	400.864	0.012	930.817	-13.74	-4.0	18.0113	1.0	70.0	2.22	Outcome1	-13.74	5.1	2996.75	Yes		-18.843537414966				ShowResult	Gain
53.0	2	401.884	0.02	931.837	-13.74	-4.0	18.0113	3.66	70.0	2.22	Outcome1	-13.74	5.1	2996.75	Yes		-18.843537414966				ISITrial	Gain
53.0	2	408.587	0.028	938.54	-13.74	-4.0	18.0113	3.654	70.0	2.22	Outcome1	-13.74	5.1	2996.75	Yes		-18.843537414966			568.0	TrialHappiness	Gain
53.0	2	412.616	4.029	942.569	-13.74	-4.0	18.0113	3.987	70.0	2.22	Outcome1	-13.74	5.1	2996.75	Yes		-18.843537414966				ISIRate	Gain
54.0	2	416.628	0.025	946.581	2.42	1.0	18.3138	3.0	70.0	3.16	Outcome2	-0.65	2.42	0.0	No	2.0	3.06708238851096	1.494	418.122		GetAnswer	Gain
54.0	2	418.149	0.027	948.102	2.42	1.0	18.3138	4.0	70.0	3.16	Outcome2	-0.65	2.42	0.0	No		3.06708238851096				ShowChoice	Gain
54.0	2	422.161	0.012	952.114	2.42	1.0	18.3138	1.0	70.0	3.16	Outcome2	-0.65	2.42	0.0	No		3.06708238851096				ShowResult	Gain
54.0	2	423.181	0.02	953.134	2.42	1.0	18.3138	8.0	70.0	3.16	Outcome2	-0.65	2.42	0.0	No		3.06708238851096				ISITrial	Gain
	2	431.205	0.024	961.158				-0.001								{SPACE}		34.764	465.969		Rest	
	2	465.993	0.024	995.946				4.0													BlockHappyPreview	
	2	470.005	0.012	999.958				0.659								4{-4}		0.659	470.664	464.0	BlockStartHappiness	
	2	475.939	0.018	1005.892				-0.001								5.0		1.482	477.421		ScanWait	
	3	0.023	0.023	1007.397				10.0													GetReady	
55.0	3	10.036	0.013	1017.41	8.11	4.06	19.3276	3.0	955.0	4.2	Outcome1	8.11	10.1	2533.25	Yes	2.0	-1.99254435636089	0.622	10.658		GetAnswer	Gain
55.0	3	10.671	0.013	1018.045	8.11	4.06	19.3276	4.0	955.0	4.2	Outcome1	8.11	10.1	2533.25	Yes		-1.99254435636089				ShowChoice	Gain
55.0	3	14.683	0.012	1022.057	8.11	4.06	19.3276	1.0	955.0	4.2	Outcome1	8.11	10.1	2533.25	Yes		-1.99254435636089				ShowResult	Gain
55.0	3	15.703	0.02	1023.077	8.11	4.06	19.3276	7.709	955.0	4.2	Outcome1	8.11	10.1	2533.25	Yes		-1.99254435636089				ISITrial	Gain
55.0	3	25.984	0.025	1033.358	8.11	4.06	19.3276	2.998	955.0	4.2	Outcome1	8.11	10.1	2533.25	Yes		-1.99254435636089			780.0	TrialHappiness	Gain
55.0	3	29.996	4.012	1037.37	8.11	4.06	19.3276	2.133	955.0	4.2	Outcome1	8.11	10.1	2533.25	Yes		-1.99254435636089				ISIRate	Gain
56.0	3	32.152	0.023	1039.526	-1.26	-1.0	19.1701	3.0	955.0	0.82	Outcome2	-0.5	-1.26	0.0	No	2.0	-0.756511891279728	0.829	32.981		GetAnswer	Mixed
56.0	3	33.005	0.024	1040.379	-1.26	-1.0	19.1701	4.0	955.0	0.82	Outcome2	-0.5	-1.26	0.0	No		-0.756511891279728				ShowChoice	Mixed
56.0	3	37.017	0.012	1044.391	-1.26	-1.0	19.1701	1.0	955.0	0.82	Outcome2	-0.5	-1.26	0.0	No		-0.756511891279728				ShowResult	Mixed
56.0	3	38.036	0.019	1045.41	-1.26	-1.0	19.1701	4.697	955.0	0.82	Outcome2	-0.5	-1.26	0.0	No		-0.756511891279728				ISITrial	Mixed
57.0	3	42.75	0.017	1050.124	8.7	2.48	20.2576	3.0	955.0	1.82	Outcome1	8.7	4.97	0.0	No	2.0	3.72706681766704	0.906	43.656		GetAnswer	Gain
57.0	3	43.67	0.014	1051.044	8.7	2.48	20.2576	4.0	955.0	1.82	Outcome1	8.7	4.97	0.0	No		3.72706681766704				ShowChoice	Gain
57.0	3	47.682	0.012	1055.056	8.7	2.48	20.2576	1.0	955.0	1.82	Outcome1	8.7	4.97	0.0	No		3.72706681766704				ShowResult	Gain
57.0	3	48.702	0.02	1056.076	8.7	2.48	20.2576	4.291	955.0	1.82	Outcome1	8.7	4.97	0.0	No		3.72706681766704				ISITrial	Gain
58.0	3	53.015	0.022	1060.389	12.9	4.49	21.8701	3.0	955.0	2.0	Outcome1	12.9	8.97	3045.75	Yes	2.0	3.92525481313703	0.624	53.639		GetAnswer	Loss
58.0	3	53.666	0.027	1061.04	12.9	4.49	21.8701	4.0	955.0	2.0	Outcome1	12.9	8.97	3045.75	Yes		3.92525481313703				ShowChoice	Loss
58.0	3	57.678	0.012	1065.052	12.9	4.49	21.8701	1.0	955.0	2.0	Outcome1	12.9	8.97	3045.75	Yes		3.92525481313703				ShowResult	Loss
58.0	3	58.698	0.02	1066.072	12.9	4.49	21.8701	2.037	955.0	2.0	Outcome1	12.9	8.97	3045.75	Yes		3.92525481313703				ISITrial	Loss
58.0	3	63.83	0.03	1071.204	12.9	4.49	21.8701	3.142	955.0	2.0	Outcome1	12.9	8.97	3045.75	Yes		3.92525481313703			800.0	TrialHappiness	Loss
58.0	3	67.842	4.012	1075.216	12.9	4.49	21.8701	4.183	955.0	2.0	Outcome1	12.9	8.97	3045.75	Yes		3.92525481313703				ISIRate	Loss
59.0	3	72.055	0.03	1079.429	6.78	3.39	22.7176	3.0	955.0	2.8	Outcome1	6.78	7.5	0.0	No	2.0	-0.724896187240468	0.683	72.738		GetAnswer	Gain
59.0	3	72.757	0.019	1080.131	6.78	3.39	22.7176	4.0	955.0	2.8	Outcome1	6.78	7.5	0.0	No		-0.724896187240468				ShowChoice	Gain
59.0	3	76.769	0.012	1084.143	6.78	3.39	22.7176	1.0	955.0	2.8	Outcome1	6.78	7.5	0.0	No		-0.724896187240468				ShowResult	Gain
59.0	3	77.789	0.02	1085.163	6.78	3.39	22.7176	5.064	955.0	2.8	Outcome1	6.78	7.5	0.0	No		-0.724896187240468				ISITrial	Gain
60.0	3	82.871	0.018	1090.245	3.1	1.0	23.1051	3.0	955.0	0.52	Outcome2	-0.86	3.1	3562.5	Yes	2.0	3.95922989807474	0.481	83.352		GetAnswer	Mixed
60.0	3	83.372	0.019	1090.746	3.1	1.0	23.1051	4.0	955.0	0.52	Outcome2	-0.86	3.1	3562.5	Yes		3.95922989807474				ShowChoice	Mixed
60.0	3	87.384	0.012	1094.758	3.1	1.0	23.1051	1.0	955.0	0.52	Outcome2	-0.86	3.1	3562.5	Yes		3.95922989807474				ShowResult	Mixed
60.0	3	88.404	0.02	1095.778	3.1	1.0	23.1051	8.0	955.0	0.52	Outcome2	-0.86	3.1	3562.5	Yes		3.95922989807474				ISITrial	Mixed
60.0	3	100.005	0.015	1107.379	3.1	1.0	23.1051	1.076	955.0	0.52	Outcome2	-0.86	3.1	3562.5	Yes		3.95922989807474			768.0	TrialHappiness	Mixed
60.0	3	104.017	4.012	1111.391	3.1	1.0	23.1051	6.25	955.0	0.52	Outcome2	-0.86	3.1	3562.5	Yes		3.95922989807474				ISIRate	Mixed
61.0	3	110.286	0.019	1117.66	-1.5	-4.0	22.9176	3.0	955.0	0.2	Outcome2	-6.18	-1.5	0.0	No	2.0	4.678369195922991	0.968	111.254		GetAnswer	Mixed
61.0	3	111.272	0.018	1118.646	-1.5	-4.0	22.9176	4.0	955.0	0.2	Outcome2	-6.18	-1.5	0.0	No		4.678369195922991				ShowChoice	Mixed
61.0	3	115.284	0.012	1122.658	-1.5	-4.0	22.9176	1.0	955.0	0.2	Outcome2	-6.18	-1.5	0.0	No		4.678369195922991				ShowResult	Mixed
61.0	3	116.304	0.02	1123.678	-1.5	-4.0	22.9176	4.586	955.0	0.2	Outcome2	-6.18	-1.5	0.0	No		4.678369195922991				ISITrial	Mixed
62.0	3	120.918	0.028	1128.292	10.7	2.9	24.2551	3.0	955.0	1.82	Outcome1	10.7	5.81	3748.75	Yes	2.0	4.890147225368059	0.721	121.639		GetAnswer	Loss
62.0	3	121.653	0.014	1129.027	10.7	2.9	24.2551	4.0	955.0	1.82	Outcome1	10.7	5.81	3748.75	Yes		4.890147225368059				ShowChoice	Loss
62.0	3	125.665	0.012	1133.039	10.7	2.9	24.2551	1.0	955.0	1.82	Outcome1	10.7	5.81	3748.75	Yes		4.890147225368059				ShowResult	Loss
62.0	3	126.685	0.02	1134.059	10.7	2.9	24.2551	5.212	955.0	1.82	Outcome1	10.7	5.81	3748.75	Yes		4.890147225368059				ISITrial	Loss
62.0	3	135.695	0.029	1143.069	10.7	2.9	24.2551	2.842	955.0	1.82	Outcome1	10.7	5.81	3748.75	Yes	2{-2}2{-2}2{-2}2{-2}2{-2}	4.890147225368059	2.842	138.537	864.0	TrialHappiness	Loss
62.0	3	139.707	4.012	1147.081	10.7	2.9	24.2551	6.995	955.0	1.82	Outcome1	10.7	5.81	3748.75	Yes		4.890147225368059				ISIRate	Loss
63.0	3	146.728	0.026	1154.102	6.3	1.42	25.0426	3.0	955.0	5.0	Outcome1	6.3	2.83	0.0	No	2.0	3.47112117780294	0.601	147.329		GetAnswer	Gain
63.0	3	147.347	0.018	1154.721	6.3	1.42	25.0426	4.0	955.0	5.0	Outcome1	6.3	2.83	0.0	No		3.47112117780294				ShowChoice	Gain
63.0	3	151.359	0.012	1158.733	6.3	1.42	25.0426	1.0	955.0	5.0	Outcome1	6.3	2.83	0.0	No		3.47112117780294				ShowResult	Gain
63.0	3	152.379	0.02	1159.753	6.3	1.42	25.0426	5.595	955.0	5.0	Outcome1	6.3	2.83	0.0	No		3.47112117780294				ISITrial	Gain
64.0	3	157.995	0.021	1165.369	1.36	1.0	25.2126	3.0	955.0	1.2	Outcome1	1.36	1.9	0.0	No	2.0	-0.538316345790864	0.72	158.715		GetAnswer	Mixed
64.0	3	158.731	0.016	1166.105	1.36	1.0	25.2126	4.0	955.0	1.2	Outcome1	1.36	1.9	0.0	No		-0.538316345790864				ShowChoice	Mixed
64.0	3	162.743	0.012	1170.117	1.36	1.0	25.2126	1.0	955.0	1.2	Outcome1	1.36	1.9	0.0	No		-0.538316345790864				ShowResult	Mixed
64.0	3	163.763	0.02	1171.137	1.36	1.0	25.2126	5.47	955.0	1.2	Outcome1	1.36	1.9	0.0	No		-0.538316345790864				ISITrial	Mixed
65.0	3	169.262	0.029	1176.636	7.9	2.11	26.2001	3.0	955.0	3.6	Outcome1	7.9	4.22	2996.75	Yes	2.0	3.67723669309173	1.246	170.508		GetAnswer	Gain
65.0	3	170.533	0.025	1177.907	7.9	2.11	26.2001	4.0	955.0	3.6	Outcome1	7.9	4.22	2996.75	Yes		3.67723669309173				ShowChoice	Gain
65.0	3	174.545	0.012	1181.919	7.9	2.11	26.2001	1.0	955.0	3.6	Outcome1	7.9	4.22	2996.75	Yes		3.67723669309173				ShowResult	Gain
65.0	3	175.565	0.02	1182.939	7.9	2.11	26.2001	3.344	955.0	3.6	Outcome1	7.9	4.22	2996.75	Yes		3.67723669309173				ISITrial	Gain
65.0	3	181.95	0.028	1189.324	7.9	2.11	26.2001	2.714	955.0	3.6	Outcome1	7.9	4.22	2996.75	Yes		3.67723669309173			860.0	TrialHappiness	Gain
65.0	3	185.962	4.012	1193.336	7.9	2.11	26.2001	3.987	955.0	3.6	Outcome1	7.9	4.22	2996.75	Yes		3.67723669309173				ISIRate	Gain
66.0	3	189.974	0.025	1197.348	5.3	0.72	26.8626	3.0	955.0	2.48	Outcome1	5.3	1.45	0.0	No	2.0	3.8482446206115495	0.631	190.605		GetAnswer	Gain
66.0	3	190.626	0.021	1198.0	5.3	0.72	26.8626	4.0	955.0	2.48	Outcome1	5.3	1.45	0.0	No		3.8482446206115495				ShowChoice	Gain
66.0	3	194.638	0.012	1202.012	5.3	0.72	26.8626	1.0	955.0	2.48	Outcome1	5.3	1.45	0.0	No		3.8482446206115495				ShowResult	Gain
66.0	3	195.658	0.02	1203.032	5.3	0.72	26.8626	3.959	955.0	2.48	Outcome1	5.3	1.45	0.0	No		3.8482446206115495				ISITrial	Gain
67.0	3	199.637	0.02	1207.011	6.12	3.06	27.6276	3.0	955.0	1.82	Outcome2	6.7	6.12	2918.5	Yes	2.0	-0.580690826727067	0.738	200.375		GetAnswer	Gain
67.0	3	200.389	0.014	1207.763	6.12	3.06	27.6276	4.0	955.0	1.82	Outcome2	6.7	6.12	2918.5	Yes		-0.580690826727067				ShowChoice	Gain
67.0	3	204.401	0.012	1211.775	6.12	3.06	27.6276	1.0	955.0	1.82	Outcome2	6.7	6.12	2918.5	Yes		-0.580690826727067				ShowResult	Gain
67.0	3	205.421	0.02	1212.795	6.12	3.06	27.6276	4.199	955.0	1.82	Outcome2	6.7	6.12	2918.5	Yes		-0.580690826727067				ISITrial	Gain
67.0	3	212.575	0.024	1219.949	6.12	3.06	27.6276	1.027	955.0	1.82	Outcome2	6.7	6.12	2918.5	Yes		-0.580690826727067			720.0	TrialHappiness	Gain
67.0	3	216.587	4.012	1223.961	6.12	3.06	27.6276	3.674	955.0	1.82	Outcome2	6.7	6.12	2918.5	Yes		-0.580690826727067				ISIRate	Gain
68.0	3	220.282	0.021	1227.656	12.7	3.13	29.2151	3.0	955.0	1.82	Outcome2	6.26	12.7	0.0	No	2.0	6.44167610419026	0.827	221.109		GetAnswer	Loss
68.0	3	221.134	0.025	1228.508	12.7	3.13	29.2151	4.0	955.0	1.82	Outcome2	6.26	12.7	0.0	No		6.44167610419026				ShowChoice	Loss
68.0	3	225.146	0.012	1232.52	12.7	3.13	29.2151	1.0	955.0	1.82	Outcome2	6.26	12.7	0.0	No		6.44167610419026				ShowResult	Loss
68.0	3	226.166	0.02	1233.54	12.7	3.13	29.2151	2.185	955.0	1.82	Outcome2	6.26	12.7	0.0	No		6.44167610419026				ISITrial	Loss
69.0	3	228.373	0.022	1235.747	0.3	-3.0	29.2526	3.0	955.0	2.0	Outcome1	0.3	-6.41	0.0	No	2.0	6.70781426953567	1.134	229.507		GetAnswer	Mixed
69.0	3	229.526	0.019	1236.9	0.3	-3.0	29.2526	4.0	955.0	2.0	Outcome1	0.3	-6.41	0.0	No		6.70781426953567				ShowChoice	Mixed
69.0	3	233.538	0.012	1240.912	0.3	-3.0	29.2526	1.0	955.0	2.0	Outcome1	0.3	-6.41	0.0	No		6.70781426953567				ShowResult	Mixed
69.0	3	234.558	0.02	1241.932	0.3	-3.0	29.2526	2.0	955.0	2.0	Outcome1	0.3	-6.41	0.0	No		6.70781426953567				ISITrial	Mixed
70.0	3	236.581	0.023	1243.955	-0.1	-3.0	29.2401	3.0	955.0	1.2	Outcome1	-0.1	-7.07	3651.25	Yes	2.0	6.97395243488109	0.558	237.139		GetAnswer	Mixed
70.0	3	237.166	0.026	1244.54	-0.1	-3.0	29.2401	4.0	955.0	1.2	Outcome1	-0.1	-7.07	3651.25	Yes		6.97395243488109				ShowChoice	Mixed
70.0	3	241.178	0.012	1248.552	-0.1	-3.0	29.2401	1.0	955.0	1.2	Outcome1	-0.1	-7.07	3651.25	Yes		6.97395243488109				ShowResult	Mixed
70.0	3	242.197	0.019	1249.571	-0.1	-3.0	29.2401	2.623	955.0	1.2	Outcome1	-0.1	-7.07	3651.25	Yes		6.97395243488109				ISITrial	Mixed
70.0	3	248.516	0.026	1255.89	-0.1	-3.0	29.2401	1.394	955.0	1.2	Outcome1	-0.1	-7.07	3651.25	Yes	2{-2}	6.97395243488109	1.394	249.91	736.0	TrialHappiness	Mixed
70.0	3	252.545	4.029	1259.919	-0.1	-3.0	29.2401	6.605	955.0	1.2	Outcome1	-0.1	-7.07	3651.25	Yes		6.97395243488109				ISIRate	Mixed
71.0	3	259.182	0.032	1266.556	7.1	0.06	30.1276	3.0	955.0	2.22	Outcome1	7.1	0.13	0.0	No	2.0	6.9682899207248	0.65	259.832		GetAnswer	Gain
71.0	3	259.85	0.018	1267.224	7.1	0.06	30.1276	4.0	955.0	2.22	Outcome1	7.1	0.13	0.0	No		6.9682899207248				ShowChoice	Gain
71.0	3	263.862	0.012	1271.236	7.1	0.06	30.1276	1.0	955.0	2.22	Outcome1	7.1	0.13	0.0	No		6.9682899207248				ShowResult	Gain
71.0	3	264.882	0.02	1272.256	7.1	0.06	30.1276	5.499	955.0	2.22	Outcome1	7.1	0.13	0.0	No		6.9682899207248				ISITrial	Gain
72.0	3	270.399	0.018	1277.773	4.52	2.26	30.6926	3.0	955.0	3.16	Outcome1	4.52	5.7	3080.5	Yes	2.0	-1.1800679501698799	0.861	271.26		GetAnswer	Gain
72.0	3	271.285	0.025	1278.659	4.52	2.26	30.6926	4.0	955.0	3.16	Outcome1	4.52	5.7	3080.5	Yes		-1.1800679501698799				ShowChoice	Gain
72.0	3	275.297	0.012	1282.671	4.52	2.26	30.6926	1.0	955.0	3.16	Outcome1	4.52	5.7	3080.5	Yes		-1.1800679501698799				ShowResult	Gain
72.0	3	276.316	0.019	1283.69	4.52	2.26	30.6926	5.672	955.0	3.16	Outcome1	4.52	5.7	3080.5	Yes		-1.1800679501698799				ISITrial	Gain
72.0	3	285.109	0.029	1292.483	4.52	2.26	30.6926	1.646	955.0	3.16	Outcome1	4.52	5.7	3080.5	Yes		-1.1800679501698799			728.0	TrialHappiness	Gain
72.0	3	289.121	4.012	1296.495	4.52	2.26	30.6926	4.322	955.0	3.16	Outcome1	4.52	5.7	3080.5	Yes		-1.1800679501698799				ISIRate	Gain
73.0	3	293.468	0.025	1300.842	13.9	3.15	32.4301	3.0	955.0	3.6	Outcome2	6.3	13.9	0.0	No	2.0	7.60022650056625	0.573	294.041		GetAnswer	Loss
73.0	3	294.069	0.028	1301.443	13.9	3.15	32.4301	4.0	955.0	3.6	Outcome2	6.3	13.9	0.0	No		7.60022650056625				ShowChoice	Loss
73.0	3	298.081	0.012	1305.455	13.9	3.15	32.4301	1.0	955.0	3.6	Outcome2	6.3	13.9	0.0	No		7.60022650056625				ShowResult	Loss
73.0	3	299.101	0.02	1306.475	13.9	3.15	32.4301	4.616	955.0	3.6	Outcome2	6.3	13.9	0.0	No		7.60022650056625				ISITrial	Loss
74.0	3	303.748	0.031	1311.122	2.05	2.0	32.6864	3.0	955.0	0.66	Outcome1	2.05	3.3	3056.25	Yes	2.0	-1.2546243865609699	0.534	304.282		GetAnswer	Mixed
74.0	3	304.3	0.018	1311.674	2.05	2.0	32.6864	4.0	955.0	0.66	Outcome1	2.05	3.3	3056.25	Yes		-1.2546243865609699				ShowChoice	Mixed
74.0	3	308.312	0.012	1315.686	2.05	2.0	32.6864	1.0	955.0	0.66	Outcome1	2.05	3.3	3056.25	Yes		-1.2546243865609699				ShowResult	Mixed
74.0	3	309.332	0.02	1316.706	2.05	2.0	32.6864	3.909	955.0	0.66	Outcome1	2.05	3.3	3056.25	Yes		-1.2546243865609699				ISITrial	Mixed
74.0	3	316.336	0.02	1323.71	2.05	2.0	32.6864	2.938	955.0	0.66	Outcome1	2.05	3.3	3056.25	Yes	2{-2}2{-2}2{-2}2{-2}2{-2}	-1.2546243865609699	2.938	319.274	848.0	TrialHappiness	Mixed
74.0	3	320.348	4.012	1327.722	2.05	2.0	32.6864	4.225	955.0	0.66	Outcome1	2.05	3.3	3056.25	Yes		-1.2546243865609699				ISIRate	Mixed
75.0	3	324.594	0.021	1331.968	10.71	5.36	34.0252	3.0	955.0	2.8	Outcome1	10.71	11.5	0.0	No	2.0	-0.789071347678369	0.896	325.49		GetAnswer	Loss
75.0	3	325.514	0.024	1332.888	10.71	5.36	34.0252	4.0	955.0	2.8	Outcome1	10.71	11.5	0.0	No		-0.789071347678369				ShowChoice	Loss
75.0	3	329.526	0.012	1336.9	10.71	5.36	34.0252	1.0	955.0	2.8	Outcome1	10.71	11.5	0.0	No		-0.789071347678369				ShowResult	Loss
75.0	3	330.545	0.019	1337.919	10.71	5.36	34.0252	4.979	955.0	2.8	Outcome1	10.71	11.5	0.0	No		-0.789071347678369				ISITrial	Loss
76.0	3	335.544	0.02	1342.918	2.9	1.45	34.3877	3.0	955.0	1.0	Outcome1	2.9	3.7	0.0	No	2.0	-0.799169497923745	1.245	336.789		GetAnswer	Mixed
76.0	3	336.814	0.024	1344.188	2.9	1.45	34.3877	4.0	955.0	1.0	Outcome1	2.9	3.7	0.0	No		-0.799169497923745				ShowChoice	Mixed
76.0	3	340.826	0.012	1348.2	2.9	1.45	34.3877	1.0	955.0	1.0	Outcome1	2.9	3.7	0.0	No		-0.799169497923745				ShowResult	Mixed
76.0	3	341.846	0.02	1349.22	2.9	1.45	34.3877	3.931	955.0	1.0	Outcome1	2.9	3.7	0.0	No		-0.799169497923745				ISITrial	Mixed
77.0	3	345.808	0.031	1353.182	1.1	-2.0	34.5252	3.0	955.0	0.52	Outcome1	1.1	-5.22	4000.0	Yes	2.0	6.31823329558324	0.533	346.341		GetAnswer	Mixed
77.0	3	346.359	0.018	1353.733	1.1	-2.0	34.5252	4.0	955.0	0.52	Outcome1	1.1	-5.22	4000.0	Yes		6.31823329558324				ShowChoice	Mixed
77.0	3	350.371	0.012	1357.745	1.1	-2.0	34.5252	1.0	955.0	0.52	Outcome1	1.1	-5.22	4000.0	Yes		6.31823329558324				ShowResult	Mixed
77.0	3	351.391	0.02	1358.765	1.1	-2.0	34.5252	7.022	955.0	0.52	Outcome1	1.1	-5.22	4000.0	Yes		6.31823329558324				ISITrial	Mixed
77.0	3	362.457	0.028	1369.831	1.1	-2.0	34.5252	2.4	955.0	0.52	Outcome1	1.1	-5.22	4000.0	Yes		6.31823329558324			816.0	TrialHappiness	Mixed
77.0	3	366.469	4.012	1373.843	1.1	-2.0	34.5252	8.0	955.0	0.52	Outcome1	1.1	-5.22	4000.0	Yes		6.31823329558324				ISIRate	Mixed
78.0	3	374.493	0.024	1381.867	8.1	0.56	35.5377	3.0	955.0	4.2	Outcome2	1.12	8.1	0.0	No	2.0	6.98301245753114	0.824	375.317		GetAnswer	Gain
78.0	3	375.329	0.012	1382.703	8.1	0.56	35.5377	4.0	955.0	4.2	Outcome2	1.12	8.1	0.0	No		6.98301245753114				ShowChoice	Gain
78.0	3	379.341	0.012	1386.715	8.1	0.56	35.5377	1.0	955.0	4.2	Outcome2	1.12	8.1	0.0	No		6.98301245753114				ShowResult	Gain
78.0	3	380.361	0.02	1387.735	8.1	0.56	35.5377	2.078	955.0	4.2	Outcome2	1.12	8.1	0.0	No		6.98301245753114				ISITrial	Gain
79.0	3	382.467	0.028	1389.841	11.5	2.18	36.9752	3.0	955.0	2.8	Outcome2	4.36	11.5	2729.5	Yes	2.0	7.14043035107588	0.797	383.264		GetAnswer	Loss
79.0	3	383.286	0.022	1390.66	11.5	2.18	36.9752	4.0	955.0	2.8	Outcome2	4.36	11.5	2729.5	Yes		7.14043035107588				ShowChoice	Loss
79.0	3	387.298	0.012	1394.672	11.5	2.18	36.9752	1.0	955.0	2.8	Outcome2	4.36	11.5	2729.5	Yes		7.14043035107588				ShowResult	Loss
79.0	3	388.318	0.02	1395.692	11.5	2.18	36.9752	3.829	955.0	2.8	Outcome2	4.36	11.5	2729.5	Yes		7.14043035107588				ISITrial	Loss
79.0	3	394.921	0.028	1402.295	11.5	2.18	36.9752	2.808	955.0	2.8	Outcome2	4.36	11.5	2729.5	Yes		7.14043035107588			812.0	TrialHappiness	Loss
79.0	3	398.933	4.012	1406.307	11.5	2.18	36.9752	2.918	955.0	2.8	Outcome2	4.36	11.5	2729.5	Yes		7.14043035107588				ISIRate	Loss
80.0	3	401.875	0.024	1409.249	9.91	4.96	38.214	3.0	955.0	2.0	Outcome1	9.91	10.9	0.0	No	2.0	-0.991694979237448	0.621	402.496		GetAnswer	Loss
80.0	3	402.511	0.015	1409.885	9.91	4.96	38.214	4.0	955.0	2.0	Outcome1	9.91	10.9	0.0	No		-0.991694979237448				ShowChoice	Loss
80.0	3	406.523	0.012	1413.897	9.91	4.96	38.214	1.0	955.0	2.0	Outcome1	9.91	10.9	0.0	No		-0.991694979237448				ShowResult	Loss
80.0	3	407.542	0.019	1414.916	9.91	4.96	38.214	3.336	955.0	2.0	Outcome1	9.91	10.9	0.0	No		-0.991694979237448				ISITrial	Loss
81.0	3	410.902	0.024	1418.276	8.29	4.14	39.2503	3.0	955.0	2.48	Outcome1	8.29	9.3	3923.75	Yes	2.0	-1.00519063797659	0.506	411.408		GetAnswer	Gain
81.0	3	411.421	0.013	1418.795	8.29	4.14	39.2503	4.0	955.0	2.48	Outcome1	8.29	9.3	3923.75	Yes		-1.00519063797659				ShowChoice	Gain
81.0	3	415.433	0.012	1422.807	8.29	4.14	39.2503	1.0	955.0	2.48	Outcome1	8.29	9.3	3923.75	Yes		-1.00519063797659				ShowResult	Gain
81.0	3	416.452	0.019	1423.826	8.29	4.14	39.2503	3.919	955.0	2.48	Outcome1	8.29	9.3	3923.75	Yes		-1.00519063797659				ISITrial	Gain
81.0	3	424.343	0.021	1431.717	8.29	4.14	39.2503	2.28	955.0	2.48	Outcome1	8.29	9.3	3923.75	Yes		-1.00519063797659			884.0	TrialHappiness	Gain
81.0	3	428.355	4.012	1435.729	8.29	4.14	39.2503	7.695	955.0	2.48	Outcome1	8.29	9.3	3923.75	Yes		-1.00519063797659				ISIRate	Gain
	3	436.078	0.028	1443.452				3.0													CurrentEarnings	
	3	439.104	0.026	1446.478				-0.001								{SPACE}		20.139	459.243		Goodbye	
