trial_number	block	onset	onset_delay	onset_unadjusted	amount_change	certain_amount	current_amount	duration	mood_target	multiplier	outcome	outcome1_amount	outcome2_amount	question_duration	rating	response	rpe	rt	rt_time	slider_response	trial_phase	trial_type
	0	-31.181	0.022	11.397				-0.001								{SPACE}		2.467	-28.714		Welcome	
	0	-28.69	0.024	13.888				5.0													LifeHappyPreview	
	0	-23.659	0.031	18.919				2.932												824.0	LifeHappiness	
	0	-15.401	0.024	27.177				4.0													BlockHappyPreview	
	0	-11.389	0.012	31.189				1.863								2{-2}2{-2}2{-2}		1.863	-9.526	672.0	BlockStartHappiness	
	0	-0.022	0.021	42.556				-0.001								5.0					ScanWait	
	1	0.012	0.012	42.59				10.0													GetReady	
1.0	1	10.042	0.03	52.62	-2.0	-2.0	9.75	3.0	955.0	1.5	Certain	0.1	-4.71	0.0	No	4.0	4.8074745186863	2.74	12.782		GetAnswer	Mixed
1.0	1	12.8	0.018	55.378	-2.0	-2.0	9.75	4.0	955.0	1.5	Certain	0.1	-4.71	0.0	No		4.8074745186863				ShowChoice	Mixed
1.0	1	16.829	0.029	59.407	-2.0	-2.0	9.75	1.0	955.0	1.5	Certain	0.1	-4.71	0.0	No		4.8074745186863				ShowResult	Mixed
1.0	1	17.849	0.02	60.427	-2.0	-2.0	9.75	2.431	955.0	1.5	Certain	0.1	-4.71	0.0	No		4.8074745186863				ISITrial	Mixed
2.0	1	20.306	0.026	62.884	-0.7	-3.0	9.6625	3.0	955.0	0.66	Outcome2	-5.83	-0.7	0.0	No	2.0	5.127972819932049	2.595	22.901		GetAnswer	Mixed
2.0	1	22.93	0.029	65.508	-0.7	-3.0	9.6625	4.0	955.0	0.66	Outcome2	-5.83	-0.7	0.0	No		5.127972819932049				ShowChoice	Mixed
2.0	1	26.959	0.029	69.537	-0.7	-3.0	9.6625	1.0	955.0	0.66	Outcome2	-5.83	-0.7	0.0	No		5.127972819932049				ShowResult	Mixed
2.0	1	27.979	0.02	70.557	-0.7	-3.0	9.6625	4.568	955.0	0.66	Outcome2	-5.83	-0.7	0.0	No		5.127972819932049				ISITrial	Mixed
3.0	1	32.576	0.029	75.154	12.7	3.62	11.25	3.0	955.0	1.82	Outcome2	7.25	12.7	2868.0	Yes	2.0	5.4484711211778	1.534	34.11		GetAnswer	Loss
3.0	1	34.13	0.02	76.708	12.7	3.62	11.25	4.0	955.0	1.82	Outcome2	7.25	12.7	2868.0	Yes		5.4484711211778				ShowChoice	Loss
3.0	1	38.142	0.012	80.72	12.7	3.62	11.25	1.0	955.0	1.82	Outcome2	7.25	12.7	2868.0	Yes		5.4484711211778				ShowResult	Loss
3.0	1	39.162	0.02	81.74	12.7	3.62	11.25	3.243	955.0	1.82	Outcome2	7.25	12.7	2868.0	Yes		5.4484711211778				ISITrial	Loss
3.0	1	45.314	0.024	87.892	12.7	3.62	11.25	2.167	955.0	1.82	Outcome2	7.25	12.7	2868.0	Yes		5.4484711211778			676.0	TrialHappiness	Loss
3.0	1	49.343	4.029	91.921	12.7	3.62	11.25	3.472	955.0	1.82	Outcome2	7.25	12.7	2868.0	Yes		5.4484711211778				ISIRate	Loss
4.0	1	52.836	0.021	95.414	13.3	3.8	12.9125	3.0	955.0	2.48	Outcome2	7.6	13.3	0.0	No	2.0	5.70101925254813	1.438	54.274		GetAnswer	Loss
4.0	1	54.291	0.017	96.869	13.3	3.8	12.9125	4.0	955.0	2.48	Outcome2	7.6	13.3	0.0	No		5.70101925254813				ShowChoice	Loss
4.0	1	58.319	0.028	100.897	13.3	3.8	12.9125	1.0	955.0	2.48	Outcome2	7.6	13.3	0.0	No		5.70101925254813				ShowResult	Loss
4.0	1	59.339	0.02	101.917	13.3	3.8	12.9125	2.011	955.0	2.48	Outcome2	7.6	13.3	0.0	No		5.70101925254813				ISITrial	Loss
5.0	1	61.379	0.029	103.957	5.66	2.83	13.62	3.0	955.0	2.0	Outcome2	6.9	5.66	2582.5	Yes	2.0	-1.23867497168743	2.013	63.392		GetAnswer	Gain
5.0	1	63.418	0.026	105.996	5.66	2.83	13.62	4.0	955.0	2.0	Outcome2	6.9	5.66	2582.5	Yes		-1.23867497168743				ShowChoice	Gain
5.0	1	67.447	0.029	110.025	5.66	2.83	13.62	1.0	955.0	2.0	Outcome2	6.9	5.66	2582.5	Yes		-1.23867497168743				ShowResult	Gain
5.0	1	68.466	0.019	111.044	5.66	2.83	13.62	5.129	955.0	2.0	Outcome2	6.9	5.66	2582.5	Yes		-1.23867497168743				ISITrial	Gain
5.0	1	76.223	0.026	118.801	5.66	2.83	13.62	2.815	955.0	2.0	Outcome2	6.9	5.66	2582.5	Yes		-1.23867497168743			672.0	TrialHappiness	Gain
5.0	1	80.235	4.012	122.813	5.66	2.83	13.62	2.33	955.0	2.0	Outcome2	6.9	5.66	2582.5	Yes		-1.23867497168743				ISIRate	Gain
6.0	1	82.592	0.027	125.17	2.0	2.0	13.87	3.0	955.0	0.3	Certain	2.7	1.42	0.0	No	4.0	-1.28123820309551	2.545	85.137		GetAnswer	Mixed
6.0	1	85.166	0.029	127.744	2.0	2.0	13.87	4.0	955.0	0.3	Certain	2.7	1.42	0.0	No		-1.28123820309551				ShowChoice	Mixed
6.0	1	89.178	0.012	131.756	2.0	2.0	13.87	1.0	955.0	0.3	Certain	2.7	1.42	0.0	No		-1.28123820309551				ShowResult	Mixed
6.0	1	90.198	0.02	132.776	2.0	2.0	13.87	6.232	955.0	0.3	Certain	2.7	1.42	0.0	No		-1.28123820309551				ISITrial	Mixed
7.0	1	96.45	0.02	139.028	-3.0	-3.0	13.495	3.0	955.0	0.2	Certain	0.5	-6.22	0.0	No	4.0	6.72140430351076	2.687	99.137		GetAnswer	Mixed
7.0	1	99.158	0.021	141.736	-3.0	-3.0	13.495	4.0	955.0	0.2	Certain	0.5	-6.22	0.0	No		6.72140430351076				ShowChoice	Mixed
7.0	1	103.17	0.012	145.748	-3.0	-3.0	13.495	1.0	955.0	0.2	Certain	0.5	-6.22	0.0	No		6.72140430351076				ShowResult	Mixed
7.0	1	104.19	0.02	146.768	-3.0	-3.0	13.495	2.305	955.0	0.2	Certain	0.5	-6.22	0.0	No		6.72140430351076				ISITrial	Mixed
8.0	1	106.513	0.018	149.091	6.7	-0.17	14.3325	3.0	955.0	1.82	Outcome1	6.7	-0.34	3112.5	Yes	2.0	7.04190260475651	2.319	108.832		GetAnswer	Gain
8.0	1	108.854	0.022	151.432	6.7	-0.17	14.3325	4.0	955.0	1.82	Outcome1	6.7	-0.34	3112.5	Yes		7.04190260475651				ShowChoice	Gain
8.0	1	112.866	0.012	155.444	6.7	-0.17	14.3325	1.0	955.0	1.82	Outcome1	6.7	-0.34	3112.5	Yes		7.04190260475651				ShowResult	Gain
8.0	1	113.885	0.019	156.463	6.7	-0.17	14.3325	3.506	955.0	1.82	Outcome1	6.7	-0.34	3112.5	Yes		7.04190260475651				ISITrial	Gain
8.0	1	120.555	0.03	163.133	6.7	-0.17	14.3325	2.563	955.0	1.82	Outcome1	6.7	-0.34	3112.5	Yes		7.04190260475651			668.0	TrialHappiness	Gain
8.0	1	124.584	4.029	167.162	6.7	-0.17	14.3325	4.45	955.0	1.82	Outcome1	6.7	-0.34	3112.5	Yes		7.04190260475651				ISIRate	Gain
9.0	1	129.064	0.03	171.642	2.5	-1.0	14.645	3.0	955.0	0.2	Outcome1	2.5	-4.93	0.0	No	2.0	7.430351075877691	2.285	131.349		GetAnswer	Mixed
9.0	1	131.371	0.022	173.949	2.5	-1.0	14.645	4.0	955.0	0.2	Outcome1	2.5	-4.93	0.0	No		7.430351075877691				ShowChoice	Mixed
9.0	1	135.4	0.029	177.978	2.5	-1.0	14.645	1.0	955.0	0.2	Outcome1	2.5	-4.93	0.0	No		7.430351075877691				ShowResult	Mixed
9.0	1	136.419	0.019	178.997	2.5	-1.0	14.645	2.0	955.0	0.2	Outcome1	2.5	-4.93	0.0	No		7.430351075877691				ISITrial	Mixed
10.0	1	138.442	0.023	181.02	11.3	1.77	16.0575	3.0	955.0	2.48	Outcome2	3.54	11.3	4000.0	Yes	2.0	7.755379388448469	1.338	139.78		GetAnswer	Loss
10.0	1	139.796	0.016	182.374	11.3	1.77	16.0575	4.0	955.0	2.48	Outcome2	3.54	11.3	4000.0	Yes		7.755379388448469				ShowChoice	Loss
10.0	1	143.808	0.012	186.386	11.3	1.77	16.0575	1.0	955.0	2.48	Outcome2	3.54	11.3	4000.0	Yes		7.755379388448469				ShowResult	Loss
10.0	1	144.828	0.02	187.406	11.3	1.77	16.0575	2.0	955.0	2.48	Outcome2	3.54	11.3	4000.0	Yes		7.755379388448469				ISITrial	Loss
10.0	1	150.879	0.029	193.457	11.3	1.77	16.0575	1.847	955.0	2.48	Outcome2	3.54	11.3	4000.0	Yes		7.755379388448469			720.0	TrialHappiness	Loss
10.0	1	154.908	4.029	197.486	11.3	1.77	16.0575	8.0	955.0	2.48	Outcome2	3.54	11.3	4000.0	Yes		7.755379388448469				ISIRate	Loss
11.0	1	162.932	0.024	205.51	-4.0	-4.0	15.5575	3.0	955.0	1.0	Certain	-0.3	-7.5	0.0	No	4.0	7.197055492638731	2.763	165.695		GetAnswer	Mixed
11.0	1	165.723	0.028	208.301	-4.0	-4.0	15.5575	4.0	955.0	1.0	Certain	-0.3	-7.5	0.0	No		7.197055492638731				ShowChoice	Mixed
11.0	1	169.752	0.029	212.33	-4.0	-4.0	15.5575	1.0	955.0	1.0	Certain	-0.3	-7.5	0.0	No		7.197055492638731				ShowResult	Mixed
11.0	1	170.772	0.02	213.35	-4.0	-4.0	15.5575	3.324	955.0	1.0	Certain	-0.3	-7.5	0.0	No		7.197055492638731				ISITrial	Mixed
12.0	1	174.115	0.019	216.693	0.86	1.0	15.665	3.0	955.0	1.5	Outcome1	0.86	2.1	2618.75	Yes	2.0	-1.2429218573046399	1.953	176.068		GetAnswer	Mixed
12.0	1	176.088	0.02	218.666	0.86	1.0	15.665	4.0	955.0	1.5	Outcome1	0.86	2.1	2618.75	Yes		-1.2429218573046399				ShowChoice	Mixed
12.0	1	180.116	0.028	222.694	0.86	1.0	15.665	1.0	955.0	1.5	Outcome1	0.86	2.1	2618.75	Yes		-1.2429218573046399				ShowResult	Mixed
12.0	1	181.136	0.02	223.714	0.86	1.0	15.665	6.642	955.0	1.5	Outcome1	0.86	2.1	2618.75	Yes		-1.2429218573046399				ISITrial	Mixed
12.0	1	190.447	0.022	233.025	0.86	1.0	15.665	3.161	955.0	1.5	Outcome1	0.86	2.1	2618.75	Yes		-1.2429218573046399			732.0	TrialHappiness	Mixed
12.0	1	194.476	4.029	237.054	0.86	1.0	15.665	2.475	955.0	1.5	Outcome1	0.86	2.1	2618.75	Yes		-1.2429218573046399				ISIRate	Mixed
13.0	1	196.983	0.032	239.561	11.68	5.84	17.125	3.0	955.0	2.0	Outcome2	12.9	11.68	0.0	No	2.0	-1.21640241600604	1.303	198.286		GetAnswer	Loss
13.0	1	198.304	0.018	240.882	11.68	5.84	17.125	4.0	955.0	2.0	Outcome2	12.9	11.68	0.0	No		-1.21640241600604				ShowChoice	Loss
13.0	1	202.316	0.012	244.894	11.68	5.84	17.125	1.0	955.0	2.0	Outcome2	12.9	11.68	0.0	No		-1.21640241600604				ShowResult	Loss
13.0	1	203.336	0.02	245.914	11.68	5.84	17.125	3.48	955.0	2.0	Outcome2	12.9	11.68	0.0	No		-1.21640241600604				ISITrial	Loss
14.0	1	206.846	0.03	249.424	12.5	2.36	18.6875	3.0	955.0	1.68	Outcome1	12.5	4.72	0.0	No	2.0	7.778029445073611	1.484	208.33		GetAnswer	Loss
14.0	1	208.351	0.021	250.929	12.5	2.36	18.6875	4.0	955.0	1.68	Outcome1	12.5	4.72	0.0	No		7.778029445073611				ShowChoice	Loss
14.0	1	212.379	0.028	254.957	12.5	2.36	18.6875	1.0	955.0	1.68	Outcome1	12.5	4.72	0.0	No		7.778029445073611				ShowResult	Loss
14.0	1	213.399	0.02	255.977	12.5	2.36	18.6875	5.019	955.0	1.68	Outcome1	12.5	4.72	0.0	No		7.778029445073611				ISITrial	Loss
15.0	1	218.448	0.03	261.026	5.5	1.0	19.375	3.0	955.0	2.8	Outcome1	5.5	-2.53	3348.5	Yes	2.0	8.03057757644394	2.633	221.081		GetAnswer	Gain
15.0	1	221.106	0.025	263.684	5.5	1.0	19.375	4.0	955.0	2.8	Outcome1	5.5	-2.53	3348.5	Yes		8.03057757644394				ShowChoice	Gain
15.0	1	225.134	0.028	267.712	5.5	1.0	19.375	1.0	955.0	2.8	Outcome1	5.5	-2.53	3348.5	Yes		8.03057757644394				ShowResult	Gain
15.0	1	226.154	0.02	268.732	5.5	1.0	19.375	7.614	955.0	2.8	Outcome1	5.5	-2.53	3348.5	Yes		8.03057757644394				ISITrial	Gain
15.0	1	237.17	0.029	279.748	5.5	1.0	19.375	2.849	955.0	2.8	Outcome1	5.5	-2.53	3348.5	Yes		8.03057757644394			736.0	TrialHappiness	Gain
15.0	1	241.199	4.029	283.777	5.5	1.0	19.375	5.394	955.0	2.8	Outcome1	5.5	-2.53	3348.5	Yes		8.03057757644394				ISIRate	Gain
16.0	1	246.615	0.022	289.193	4.9	1.0	19.9875	3.0	955.0	2.0	Outcome2	-3.32	4.9	0.0	No	2.0	8.21517553793884	1.797	248.412		GetAnswer	Gain
16.0	1	248.437	0.025	291.015	4.9	1.0	19.9875	4.0	955.0	2.0	Outcome2	-3.32	4.9	0.0	No		8.21517553793884				ShowChoice	Gain
16.0	1	252.449	0.012	295.027	4.9	1.0	19.9875	1.0	955.0	2.0	Outcome2	-3.32	4.9	0.0	No		8.21517553793884				ShowResult	Gain
16.0	1	253.469	0.02	296.047	4.9	1.0	19.9875	3.008	955.0	2.0	Outcome2	-3.32	4.9	0.0	No		8.21517553793884				ISITrial	Gain
17.0	1	256.511	0.034	299.089	13.9	2.72	21.725	3.0	955.0	3.6	Outcome1	13.9	5.44	3041.5	Yes	2.0	8.463193657984151	1.362	257.873		GetAnswer	Loss
17.0	1	257.899	0.026	300.477	13.9	2.72	21.725	4.0	955.0	3.6	Outcome1	13.9	5.44	3041.5	Yes		8.463193657984151				ShowChoice	Loss
17.0	1	261.927	0.028	304.505	13.9	2.72	21.725	1.0	955.0	3.6	Outcome1	13.9	5.44	3041.5	Yes		8.463193657984151				ShowResult	Loss
17.0	1	262.947	0.02	305.525	13.9	2.72	21.725	3.566	955.0	3.6	Outcome1	13.9	5.44	3041.5	Yes		8.463193657984151				ISITrial	Loss
17.0	1	269.6	0.017	312.178	13.9	2.72	21.725	1.477	955.0	3.6	Outcome1	13.9	5.44	3041.5	Yes		8.463193657984151			736.0	TrialHappiness	Loss
17.0	1	273.612	4.012	316.19	13.9	2.72	21.725	4.166	955.0	3.6	Outcome1	13.9	5.44	3041.5	Yes		8.463193657984151				ISIRate	Loss
18.0	1	277.808	0.03	320.386	-3.0	-3.0	21.35	3.0	955.0	0.82	Certain	1.5	-7.21	0.0	No	4.0	8.71121177802944	2.251	280.059		GetAnswer	Mixed
18.0	1	280.082	0.023	322.66	-3.0	-3.0	21.35	4.0	955.0	0.82	Certain	1.5	-7.21	0.0	No		8.71121177802944				ShowChoice	Mixed
18.0	1	284.094	0.012	326.672	-3.0	-3.0	21.35	1.0	955.0	0.82	Certain	1.5	-7.21	0.0	No		8.71121177802944				ShowResult	Mixed
18.0	1	285.113	0.019	327.691	-3.0	-3.0	21.35	6.787	955.0	0.82	Certain	1.5	-7.21	0.0	No		8.71121177802944				ISITrial	Mixed
19.0	1	291.917	0.017	334.495	-1.0	-1.0	21.225	3.0	955.0	0.52	Certain	-0.9	-2.23	0.0	No	4.0	-1.3253114382786002	2.689	294.606		GetAnswer	Mixed
19.0	1	294.625	0.019	337.203	-1.0	-1.0	21.225	4.0	955.0	0.52	Certain	-0.9	-2.23	0.0	No		-1.3253114382786002				ShowChoice	Mixed
19.0	1	298.637	0.012	341.215	-1.0	-1.0	21.225	1.0	955.0	0.52	Certain	-0.9	-2.23	0.0	No		-1.3253114382786002				ShowResult	Mixed
19.0	1	299.657	0.02	342.235	-1.0	-1.0	21.225	2.0	955.0	0.52	Certain	-0.9	-2.23	0.0	No		-1.3253114382786002				ISITrial	Mixed
20.0	1	301.68	0.023	344.258	6.3	1.0	22.0125	3.0	955.0	5.0	Outcome2	-2.91	6.3	2921.25	Yes	2.0	9.207248018120039	2.437	304.117		GetAnswer	Gain
20.0	1	304.137	0.02	346.715	6.3	1.0	22.0125	4.0	955.0	5.0	Outcome2	-2.91	6.3	2921.25	Yes		9.207248018120039				ShowChoice	Gain
20.0	1	308.149	0.012	350.727	6.3	1.0	22.0125	1.0	955.0	5.0	Outcome2	-2.91	6.3	2921.25	Yes		9.207248018120039				ShowResult	Gain
20.0	1	309.169	0.02	351.747	6.3	1.0	22.0125	8.0	955.0	5.0	Outcome2	-2.91	6.3	2921.25	Yes		9.207248018120039				ISITrial	Gain
20.0	1	320.135	0.022	362.713	6.3	1.0	22.0125	1.846	955.0	5.0	Outcome2	-2.91	6.3	2921.25	Yes		9.207248018120039			728.0	TrialHappiness	Gain
20.0	1	324.163	4.028	366.741	6.3	1.0	22.0125	3.685	955.0	5.0	Outcome2	-2.91	6.3	2921.25	Yes		9.207248018120039				ISIRate	Gain
21.0	1	327.874	0.026	370.452	7.7	3.85	22.975	3.0	955.0	2.22	Outcome2	9.1	7.7	0.0	No	2.0	-1.39911287278218	1.531	329.405		GetAnswer	Gain
21.0	1	329.429	0.024	372.007	7.7	3.85	22.975	4.0	955.0	2.22	Outcome2	9.1	7.7	0.0	No		-1.39911287278218				ShowChoice	Gain
21.0	1	333.441	0.012	376.019	7.7	3.85	22.975	1.0	955.0	2.22	Outcome2	9.1	7.7	0.0	No		-1.39911287278218				ShowResult	Gain
21.0	1	334.461	0.02	377.039	7.7	3.85	22.975	3.555	955.0	2.22	Outcome2	9.1	7.7	0.0	No		-1.39911287278218				ISITrial	Gain
22.0	1	338.038	0.022	380.616	13.7	1.92	24.6875	3.0	955.0	3.16	Outcome2	3.85	13.7	3219.5	Yes	2.0	9.84824462061155	1.293	339.331		GetAnswer	Loss
22.0	1	339.359	0.028	381.937	13.7	1.92	24.6875	4.0	955.0	3.16	Outcome2	3.85	13.7	3219.5	Yes		9.84824462061155				ShowChoice	Loss
22.0	1	343.371	0.012	385.949	13.7	1.92	24.6875	1.0	955.0	3.16	Outcome2	3.85	13.7	3219.5	Yes		9.84824462061155				ShowResult	Loss
22.0	1	344.39	0.019	386.968	13.7	1.92	24.6875	6.793	955.0	3.16	Outcome2	3.85	13.7	3219.5	Yes		9.84824462061155				ISITrial	Loss
22.0	1	354.437	0.023	397.015	13.7	1.92	24.6875	3.367	955.0	3.16	Outcome2	3.85	13.7	3219.5	Yes	2{-2}2{-2}2{-2}4{-4}4{-4}	9.84824462061155	3.367	357.804	712.0	TrialHappiness	Loss
22.0	1	358.449	4.012	401.027	13.7	1.92	24.6875	4.878	955.0	3.16	Outcome2	3.85	13.7	3219.5	Yes		9.84824462061155				ISIRate	Loss
23.0	1	363.347	0.02	405.925	-1.5	-6.0	24.5	3.0	955.0	0.2	Outcome1	-1.5	-11.88	0.0	No		10.3771234428086				GetAnswer	Mixed
23.0	1	366.373	0.026	408.951	-1.5	-6.0	24.5	4.0	955.0	0.2	Outcome1	-1.5	-11.88	0.0	No		10.3771234428086				ShowChoice	Mixed
23.0	1	370.385	0.012	412.963	-1.5	-6.0	24.5	1.0	955.0	0.2	Outcome1	-1.5	-11.88	0.0	No		10.3771234428086				ShowResult	Mixed
23.0	1	371.404	0.019	413.982	-1.5	-6.0	24.5	8.0	955.0	0.2	Outcome1	-1.5	-11.88	0.0	No		10.3771234428086				ISITrial	Mixed
24.0	1	379.428	0.024	422.006	8.9	-0.88	25.6125	3.0	955.0	2.0	Outcome2	-1.75	8.9	3255.0	Yes	2.0	10.6523216308041	1.65	381.078		GetAnswer	Gain
24.0	1	381.1	0.022	423.678	8.9	-0.88	25.6125	4.0	955.0	2.0	Outcome2	-1.75	8.9	3255.0	Yes		10.6523216308041				ShowChoice	Gain
24.0	1	385.112	0.012	427.69	8.9	-0.88	25.6125	1.0	955.0	2.0	Outcome2	-1.75	8.9	3255.0	Yes		10.6523216308041				ShowResult	Gain
24.0	1	386.132	0.02	428.71	8.9	-0.88	25.6125	2.0	955.0	2.0	Outcome2	-1.75	8.9	3255.0	Yes		10.6523216308041				ISITrial	Gain
24.0	1	391.431	0.022	434.009	8.9	-0.88	25.6125	2.582	955.0	2.0	Outcome2	-1.75	8.9	3255.0	Yes		10.6523216308041			704.0	TrialHappiness	Gain
24.0	1	395.443	4.012	438.021	8.9	-0.88	25.6125	5.02	955.0	2.0	Outcome2	-1.75	8.9	3255.0	Yes		10.6523216308041				ISIRate	Gain
25.0	1	400.491	0.028	443.069	1.51	2.0	25.8013	3.0	955.0	0.52	Outcome2	3.1	1.51	0.0	No	2.0	-1.58522083805209	1.252	401.743		GetAnswer	Mixed
25.0	1	401.762	0.019	444.34	1.51	2.0	25.8013	4.0	955.0	0.52	Outcome2	3.1	1.51	0.0	No		-1.58522083805209				ShowChoice	Mixed
25.0	1	405.774	0.012	448.352	1.51	2.0	25.8013	1.0	955.0	0.52	Outcome2	3.1	1.51	0.0	No		-1.58522083805209				ShowResult	Mixed
25.0	1	406.793	0.019	449.371	1.51	2.0	25.8013	3.749	955.0	0.52	Outcome2	3.1	1.51	0.0	No		-1.58522083805209				ISITrial	Mixed
26.0	1	410.571	0.029	453.149	2.49	1.25	26.1126	3.0	955.0	1.5	Outcome1	2.49	4.1	0.0	No	2.0	-1.60890902227256	1.741	412.312		GetAnswer	Mixed
26.0	1	412.327	0.015	454.905	2.49	1.25	26.1126	4.0	955.0	1.5	Outcome1	2.49	4.1	0.0	No		-1.60890902227256				ShowChoice	Mixed
26.0	1	416.339	0.012	458.917	2.49	1.25	26.1126	1.0	955.0	1.5	Outcome1	2.49	4.1	0.0	No		-1.60890902227256				ShowResult	Mixed
26.0	1	417.358	0.019	459.936	2.49	1.25	26.1126	7.834	955.0	1.5	Outcome1	2.49	4.1	0.0	No		-1.60890902227256				ISITrial	Mixed
27.0	1	425.215	0.023	467.793	10.67	5.34	27.4464	3.0	955.0	5.0	Outcome2	12.3	10.67	2549.75	Yes	2.0	-1.63259720649302	1.229	426.444		GetAnswer	Loss
27.0	1	426.469	0.025	469.047	10.67	5.34	27.4464	4.0	955.0	5.0	Outcome2	12.3	10.67	2549.75	Yes		-1.63259720649302				ShowChoice	Loss
27.0	1	430.481	0.012	473.059	10.67	5.34	27.4464	1.0	955.0	5.0	Outcome2	12.3	10.67	2549.75	Yes		-1.63259720649302				ShowResult	Loss
27.0	1	431.501	0.02	474.079	10.67	5.34	27.4464	4.225	955.0	5.0	Outcome2	12.3	10.67	2549.75	Yes		-1.63259720649302				ISITrial	Loss
27.0	1	438.321	0.024	480.899	10.67	5.34	27.4464	2.113	955.0	5.0	Outcome2	12.3	10.67	2549.75	Yes		-1.63259720649302			744.0	TrialHappiness	Loss
27.0	1	442.333	4.012	484.911	10.67	5.34	27.4464	2.199	955.0	5.0	Outcome2	12.3	10.67	2549.75	Yes		-1.63259720649302				ISIRate	Loss
	1	444.556	0.024	487.134				-0.001								2.0		18.354	462.91		Rest	
	1	462.928	0.018	505.506				4.0													BlockHappyPreview	
	1	466.94	0.012	509.518				2.13												704.0	BlockStartHappiness	
	1	517.925	0.014	560.503				-0.001								5.0		0.009	517.934		ScanWait	
	2	0.025	0.025	560.537				10.0													GetReady	
28.0	2	10.038	0.013	570.55	-4.68	0.0	26.8614	3.0	70.0	4.2	Outcome2	6.1	-4.68	0.0	No	2.0	-10.7823129251701	1.642	11.68		GetAnswer	Gain
28.0	2	11.693	0.013	572.205	-4.68	0.0	26.8614	4.0	70.0	4.2	Outcome2	6.1	-4.68	0.0	No		-10.7823129251701				ShowChoice	Gain
28.0	2	15.705	0.012	576.217	-4.68	0.0	26.8614	1.0	70.0	4.2	Outcome2	6.1	-4.68	0.0	No		-10.7823129251701				ShowResult	Gain
28.0	2	16.725	0.02	577.237	-4.68	0.0	26.8614	3.575	70.0	4.2	Outcome2	6.1	-4.68	0.0	No		-10.7823129251701				ISITrial	Gain
29.0	2	20.319	0.019	580.831	-4.0	-4.0	26.3614	3.0	70.0	0.52	Certain	1.1	-10.4	3529.0	Yes	4.0	-11.501133786848099	2.149	22.468		GetAnswer	Mixed
29.0	2	22.492	0.024	583.004	-4.0	-4.0	26.3614	4.0	70.0	0.52	Certain	1.1	-10.4	3529.0	Yes		-11.501133786848099				ShowChoice	Mixed
29.0	2	26.504	0.012	587.016	-4.0	-4.0	26.3614	1.0	70.0	0.52	Certain	1.1	-10.4	3529.0	Yes		-11.501133786848099				ShowResult	Mixed
29.0	2	27.524	0.02	588.036	-4.0	-4.0	26.3614	3.955	70.0	0.52	Certain	1.1	-10.4	3529.0	Yes		-11.501133786848099				ISITrial	Mixed
29.0	2	35.046	0.015	595.558	-4.0	-4.0	26.3614	1.076	70.0	0.52	Certain	1.1	-10.4	3529.0	Yes		-11.501133786848099			664.0	TrialHappiness	Mixed
29.0	2	39.058	4.012	599.57	-4.0	-4.0	26.3614	6.116	70.0	0.52	Certain	1.1	-10.4	3529.0	Yes		-11.501133786848099				ISIRate	Mixed
30.0	2	45.193	0.019	605.705	0.56	0.28	26.4314	3.0	70.0	4.2	Outcome2	12.1	0.56	0.0	No	2.0	-11.5396825396825	1.751	46.944		GetAnswer	Loss
30.0	2	46.965	0.021	607.477	0.56	0.28	26.4314	4.0	70.0	4.2	Outcome2	12.1	0.56	0.0	No		-11.5396825396825				ShowChoice	Loss
30.0	2	50.977	0.012	611.489	0.56	0.28	26.4314	1.0	70.0	4.2	Outcome2	12.1	0.56	0.0	No		-11.5396825396825				ShowResult	Loss
30.0	2	51.997	0.02	612.509	0.56	0.28	26.4314	4.453	70.0	4.2	Outcome2	12.1	0.56	0.0	No		-11.5396825396825				ISITrial	Loss
31.0	2	56.477	0.027	616.989	0.0	0.0	26.4314	3.0	70.0	2.48	Certain	-1.27	1.32	2503.25	Yes	4.0	2.5891912320483703	2.084	58.561		GetAnswer	Gain
31.0	2	58.583	0.022	619.095	0.0	0.0	26.4314	4.0	70.0	2.48	Certain	-1.27	1.32	2503.25	Yes		2.5891912320483703				ShowChoice	Gain
31.0	2	62.595	0.012	623.107	0.0	0.0	26.4314	1.0	70.0	2.48	Certain	-1.27	1.32	2503.25	Yes		2.5891912320483703				ShowResult	Gain
31.0	2	63.615	0.02	624.127	0.0	0.0	26.4314	4.786	70.0	2.48	Certain	-1.27	1.32	2503.25	Yes		2.5891912320483703				ISITrial	Gain
31.0	2	70.937	0.022	631.449	0.0	0.0	26.4314	1.862	70.0	2.48	Certain	-1.27	1.32	2503.25	Yes		2.5891912320483703			664.0	TrialHappiness	Gain
31.0	2	74.949	4.012	635.461	0.0	0.0	26.4314	2.013	70.0	2.48	Certain	-1.27	1.32	2503.25	Yes		2.5891912320483703				ISIRate	Gain
32.0	2	76.988	0.026	637.5	2.38	1.0	26.7289	3.0	70.0	2.8	Outcome2	-0.27	2.38	0.0	No	2.0	2.6453136810279703	1.491	78.479		GetAnswer	Gain
32.0	2	78.492	0.013	639.004	2.38	1.0	26.7289	4.0	70.0	2.8	Outcome2	-0.27	2.38	0.0	No		2.6453136810279703				ShowChoice	Gain
32.0	2	82.504	0.012	643.016	2.38	1.0	26.7289	1.0	70.0	2.8	Outcome2	-0.27	2.38	0.0	No		2.6453136810279703				ShowResult	Gain
32.0	2	83.524	0.02	644.036	2.38	1.0	26.7289	2.0	70.0	2.8	Outcome2	-0.27	2.38	0.0	No		2.6453136810279703				ISITrial	Gain
33.0	2	85.547	0.023	646.059	-9.86	-3.0	25.4964	3.0	70.0	1.0	Outcome1	-9.86	3.7	0.0	No	2.0	-13.5600907029478	1.719	87.266		GetAnswer	Mixed
33.0	2	87.285	0.019	647.797	-9.86	-3.0	25.4964	4.0	70.0	1.0	Outcome1	-9.86	3.7	0.0	No		-13.5600907029478				ShowChoice	Mixed
33.0	2	91.297	0.012	651.809	-9.86	-3.0	25.4964	1.0	70.0	1.0	Outcome1	-9.86	3.7	0.0	No		-13.5600907029478				ShowResult	Mixed
33.0	2	92.317	0.02	652.829	-9.86	-3.0	25.4964	5.099	70.0	1.0	Outcome1	-9.86	3.7	0.0	No		-13.5600907029478				ISITrial	Mixed
34.0	2	97.432	0.016	657.944	-3.93	-1.96	25.0052	3.0	70.0	5.0	Outcome1	-3.93	10.3	3231.5	Yes	2.0	-14.2335600907029	2.82	100.252		GetAnswer	Gain
34.0	2	100.274	0.022	660.786	-3.93	-1.96	25.0052	4.0	70.0	5.0	Outcome1	-3.93	10.3	3231.5	Yes		-14.2335600907029				ShowChoice	Gain
34.0	2	104.286	0.012	664.798	-3.93	-1.96	25.0052	1.0	70.0	5.0	Outcome1	-3.93	10.3	3231.5	Yes		-14.2335600907029				ShowResult	Gain
34.0	2	105.306	0.02	665.818	-3.93	-1.96	25.0052	4.784	70.0	5.0	Outcome1	-3.93	10.3	3231.5	Yes		-14.2335600907029				ISITrial	Gain
34.0	2	113.363	0.028	673.875	-3.93	-1.96	25.0052	2.047	70.0	5.0	Outcome1	-3.93	10.3	3231.5	Yes		-14.2335600907029			608.0	TrialHappiness	Gain
34.0	2	117.375	4.012	677.887	-3.93	-1.96	25.0052	4.926	70.0	5.0	Outcome1	-3.93	10.3	3231.5	Yes		-14.2335600907029				ISIRate	Gain
35.0	2	122.323	0.022	682.835	-3.25	-1.62	24.599	3.0	70.0	1.82	Outcome1	-3.25	10.7	0.0	No	2.0	-13.954648526077099	2.003	124.326		GetAnswer	Loss
35.0	2	124.346	0.02	684.858	-3.25	-1.62	24.599	4.0	70.0	1.82	Outcome1	-3.25	10.7	0.0	No		-13.954648526077099				ShowChoice	Loss
35.0	2	128.358	0.012	688.87	-3.25	-1.62	24.599	1.0	70.0	1.82	Outcome1	-3.25	10.7	0.0	No		-13.954648526077099				ShowResult	Loss
35.0	2	129.378	0.02	689.89	-3.25	-1.62	24.599	2.098	70.0	1.82	Outcome1	-3.25	10.7	0.0	No		-13.954648526077099				ISITrial	Loss
36.0	2	131.501	0.025	692.013	-8.66	-1.0	23.5165	3.0	70.0	3.6	Outcome2	5.9	-8.66	3335.75	Yes	2.0	-14.5646258503401	1.681	133.182		GetAnswer	Gain
36.0	2	133.206	0.024	693.718	-8.66	-1.0	23.5165	4.0	70.0	3.6	Outcome2	5.9	-8.66	3335.75	Yes		-14.5646258503401				ShowChoice	Gain
36.0	2	137.218	0.012	697.73	-8.66	-1.0	23.5165	1.0	70.0	3.6	Outcome2	5.9	-8.66	3335.75	Yes		-14.5646258503401				ShowResult	Gain
36.0	2	138.238	0.02	698.75	-8.66	-1.0	23.5165	5.156	70.0	3.6	Outcome2	5.9	-8.66	3335.75	Yes		-14.5646258503401				ISITrial	Gain
36.0	2	146.78	0.024	707.292	-8.66	-1.0	23.5165	1.577	70.0	3.6	Outcome2	5.9	-8.66	3335.75	Yes		-14.5646258503401			576.0	TrialHappiness	Gain
36.0	2	150.792	4.012	711.304	-8.66	-1.0	23.5165	5.343	70.0	3.6	Outcome2	5.9	-8.66	3335.75	Yes		-14.5646258503401				ISIRate	Gain
37.0	2	156.158	0.023	716.67	-11.33	-4.0	22.1003	3.0	70.0	0.66	Outcome1	-11.33	3.3	0.0	No	2.0	-14.6303854875283	2.568	158.726		GetAnswer	Mixed
37.0	2	158.749	0.023	719.261	-11.33	-4.0	22.1003	4.0	70.0	0.66	Outcome1	-11.33	3.3	0.0	No		-14.6303854875283				ShowChoice	Mixed
37.0	2	162.761	0.012	723.273	-11.33	-4.0	22.1003	1.0	70.0	0.66	Outcome1	-11.33	3.3	0.0	No		-14.6303854875283				ShowResult	Mixed
37.0	2	163.78	0.019	724.292	-11.33	-4.0	22.1003	3.598	70.0	0.66	Outcome1	-11.33	3.3	0.0	No		-14.6303854875283				ISITrial	Mixed
38.0	2	167.408	0.03	727.92	-8.1	0.0	21.0878	3.0	70.0	2.22	Outcome1	-8.1	7.1	0.0	No	2.0	-15.2040816326531	1.344	168.752		GetAnswer	Gain
38.0	2	168.779	0.027	729.291	-8.1	0.0	21.0878	4.0	70.0	2.22	Outcome1	-8.1	7.1	0.0	No		-15.2040816326531				ShowChoice	Gain
38.0	2	172.791	0.012	733.303	-8.1	0.0	21.0878	1.0	70.0	2.22	Outcome1	-8.1	7.1	0.0	No		-15.2040816326531				ShowResult	Gain
38.0	2	173.81	0.019	734.322	-8.1	0.0	21.0878	4.787	70.0	2.22	Outcome1	-8.1	7.1	0.0	No		-15.2040816326531				ISITrial	Gain
39.0	2	178.625	0.028	739.137	-13.48	-5.0	19.4028	3.0	70.0	2.0	Outcome1	-13.48	2.3	2864.25	Yes	2.0	-15.7777777777778	1.724	180.349		GetAnswer	Mixed
39.0	2	180.363	0.014	740.875	-13.48	-5.0	19.4028	4.0	70.0	2.0	Outcome1	-13.48	2.3	2864.25	Yes		-15.7777777777778				ShowChoice	Mixed
39.0	2	184.375	0.012	744.887	-13.48	-5.0	19.4028	1.0	70.0	2.0	Outcome1	-13.48	2.3	2864.25	Yes		-15.7777777777778				ShowResult	Mixed
39.0	2	185.395	0.02	745.907	-13.48	-5.0	19.4028	2.348	70.0	2.0	Outcome1	-13.48	2.3	2864.25	Yes		-15.7777777777778				ISITrial	Mixed
39.0	2	190.661	0.028	751.173	-13.48	-5.0	19.4028	1.58	70.0	2.0	Outcome1	-13.48	2.3	2864.25	Yes		-15.7777777777778			552.0	TrialHappiness	Mixed
39.0	2	194.673	4.012	755.185	-13.48	-5.0	19.4028	3.457	70.0	2.0	Outcome1	-13.48	2.3	2864.25	Yes		-15.7777777777778				ISIRate	Mixed
40.0	2	198.15	0.02	758.662	-10.84	-3.0	18.0478	3.0	70.0	2.22	Outcome2	5.1	-10.84	0.0	No	2.0	-15.943310657596399	2.049	200.199		GetAnswer	Gain
40.0	2	200.223	0.024	760.735	-10.84	-3.0	18.0478	4.0	70.0	2.22	Outcome2	5.1	-10.84	0.0	No		-15.943310657596399				ShowChoice	Gain
40.0	2	204.235	0.012	764.747	-10.84	-3.0	18.0478	1.0	70.0	2.22	Outcome2	5.1	-10.84	0.0	No		-15.943310657596399				ShowResult	Gain
40.0	2	205.254	0.019	765.766	-10.84	-3.0	18.0478	3.158	70.0	2.22	Outcome2	5.1	-10.84	0.0	No		-15.943310657596399				ISITrial	Gain
41.0	2	208.43	0.018	768.942	-7.0	-7.0	17.1728	3.0	70.0	0.66	Certain	1.3	-15.19	4000.0	Yes	4.0	-16.4897959183673	2.34	210.77		GetAnswer	Mixed
41.0	2	210.788	0.018	771.3	-7.0	-7.0	17.1728	4.0	70.0	0.66	Certain	1.3	-15.19	4000.0	Yes		-16.4897959183673				ShowChoice	Mixed
41.0	2	214.8	0.012	775.312	-7.0	-7.0	17.1728	1.0	70.0	0.66	Certain	1.3	-15.19	4000.0	Yes		-16.4897959183673				ShowResult	Mixed
41.0	2	215.819	0.019	776.331	-7.0	-7.0	17.1728	4.506	70.0	0.66	Certain	1.3	-15.19	4000.0	Yes		-16.4897959183673				ISITrial	Mixed
41.0	2	224.378	0.029	784.89	-7.0	-7.0	17.1728	1.337	70.0	0.66	Certain	1.3	-15.19	4000.0	Yes		-16.4897959183673			536.0	TrialHappiness	Mixed
41.0	2	228.39	4.012	788.902	-7.0	-7.0	17.1728	8.0	70.0	0.66	Certain	1.3	-15.19	4000.0	Yes		-16.4897959183673				ISIRate	Mixed
42.0	2	236.414	0.024	796.926	-12.06	-3.0	15.6653	3.0	70.0	1.82	Outcome2	4.7	-12.06	0.0	No	2.0	-16.7641723356009	1.57	237.984		GetAnswer	Gain
42.0	2	238.002	0.018	798.514	-12.06	-3.0	15.6653	4.0	70.0	1.82	Outcome2	4.7	-12.06	0.0	No		-16.7641723356009				ShowChoice	Gain
42.0	2	242.014	0.012	802.526	-12.06	-3.0	15.6653	1.0	70.0	1.82	Outcome2	4.7	-12.06	0.0	No		-16.7641723356009				ShowResult	Gain
42.0	2	243.034	0.02	803.546	-12.06	-3.0	15.6653	6.248	70.0	1.82	Outcome2	4.7	-12.06	0.0	No		-16.7641723356009				ISITrial	Gain
43.0	2	249.303	0.021	809.815	-13.79	-5.0	13.9415	3.0	70.0	0.82	Outcome2	3.5	-13.79	2775.75	Yes	2.0	-17.2925170068027	1.378	250.681		GetAnswer	Mixed
43.0	2	250.707	0.026	811.219	-13.79	-5.0	13.9415	4.0	70.0	0.82	Outcome2	3.5	-13.79	2775.75	Yes		-17.2925170068027				ShowChoice	Mixed
43.0	2	254.719	0.012	815.231	-13.79	-5.0	13.9415	1.0	70.0	0.82	Outcome2	3.5	-13.79	2775.75	Yes		-17.2925170068027				ShowResult	Mixed
43.0	2	255.738	0.019	816.25	-13.79	-5.0	13.9415	4.596	70.0	0.82	Outcome2	3.5	-13.79	2775.75	Yes		-17.2925170068027				ISITrial	Mixed
43.0	2	263.144	0.016	823.656	-13.79	-5.0	13.9415	3.753	70.0	0.82	Outcome2	3.5	-13.79	2775.75	Yes		-17.2925170068027			568.0	TrialHappiness	Mixed
43.0	2	267.156	4.012	827.668	-13.79	-5.0	13.9415	3.103	70.0	0.82	Outcome2	3.5	-13.79	2775.75	Yes		-17.2925170068027				ISIRate	Mixed
44.0	2	270.282	0.023	830.794	0.0	0.0	13.9415	3.0	70.0	1.68	Certain	1.12	-1.73	0.0	No	4.0	2.8478835978836	2.212	272.494		GetAnswer	Gain
44.0	2	272.505	0.011	833.017	0.0	0.0	13.9415	4.0	70.0	1.68	Certain	1.12	-1.73	0.0	No		2.8478835978836				ShowChoice	Gain
44.0	2	276.517	0.012	837.029	0.0	0.0	13.9415	1.0	70.0	1.68	Certain	1.12	-1.73	0.0	No		2.8478835978836				ShowResult	Gain
44.0	2	277.537	0.02	838.049	0.0	0.0	13.9415	2.42	70.0	1.68	Certain	1.12	-1.73	0.0	No		2.8478835978836				ISITrial	Gain
45.0	2	279.977	0.02	840.489	-12.43	-3.0	12.3877	3.0	70.0	1.68	Outcome2	6.5	-12.43	0.0	No	2.0	-18.9297052154195	2.793	282.77		GetAnswer	Gain
45.0	2	282.786	0.016	843.298	-12.43	-3.0	12.3877	4.0	70.0	1.68	Outcome2	6.5	-12.43	0.0	No		-18.9297052154195				ShowChoice	Gain
45.0	2	286.798	0.012	847.31	-12.43	-3.0	12.3877	1.0	70.0	1.68	Outcome2	6.5	-12.43	0.0	No		-18.9297052154195				ShowResult	Gain
45.0	2	287.818	0.02	848.33	-12.43	-3.0	12.3877	3.144	70.0	1.68	Outcome2	6.5	-12.43	0.0	No		-18.9297052154195				ISITrial	Gain
46.0	2	290.994	0.032	851.506	-8.99	1.0	11.2639	3.0	70.0	1.68	Outcome1	-8.99	10.5	3841.25	Yes	2.0	-19.494331065759603	1.875	292.869		GetAnswer	Loss
46.0	2	292.883	0.014	853.395	-8.99	1.0	11.2639	4.0	70.0	1.68	Outcome1	-8.99	10.5	3841.25	Yes		-19.494331065759603				ShowChoice	Loss
46.0	2	296.895	0.012	857.407	-8.99	1.0	11.2639	1.0	70.0	1.68	Outcome1	-8.99	10.5	3841.25	Yes		-19.494331065759603				ShowResult	Loss
46.0	2	297.914	0.019	858.426	-8.99	1.0	11.2639	2.246	70.0	1.68	Outcome1	-8.99	10.5	3841.25	Yes		-19.494331065759603				ISITrial	Loss
46.0	2	304.033	0.021	864.545	-8.99	1.0	11.2639	0.0	70.0	1.68	Outcome1	-8.99	10.5	3841.25	Yes		-19.494331065759603			512.0	TrialHappiness	Loss
46.0	2	308.045	4.012	868.557	-8.99	1.0	11.2639	7.365	70.0	1.68	Outcome1	-8.99	10.5	3841.25	Yes		-19.494331065759603				ISIRate	Loss
47.0	2	315.433	0.023	875.945	-9.01	0.0	10.1377	3.0	70.0	4.2	Outcome2	10.1	-9.01	0.0	No	2.0	-19.1065759637188	1.296	316.729		GetAnswer	Gain
47.0	2	316.754	0.025	877.266	-9.01	0.0	10.1377	4.0	70.0	4.2	Outcome2	10.1	-9.01	0.0	No		-19.1065759637188				ShowChoice	Gain
47.0	2	320.766	0.012	881.278	-9.01	0.0	10.1377	1.0	70.0	4.2	Outcome2	10.1	-9.01	0.0	No		-19.1065759637188				ShowResult	Gain
47.0	2	321.786	0.02	882.298	-9.01	0.0	10.1377	2.0	70.0	4.2	Outcome2	10.1	-9.01	0.0	No		-19.1065759637188				ISITrial	Gain
48.0	2	323.808	0.022	884.32	-10.91	-1.0	8.7739	3.0	70.0	1.82	Outcome1	-10.91	8.7	2831.75	Yes		-19.607709750566897				GetAnswer	Gain
48.0	2	326.834	0.026	887.346	-10.91	-1.0	8.7739	4.0	70.0	1.82	Outcome1	-10.91	8.7	2831.75	Yes		-19.607709750566897				ShowChoice	Gain
48.0	2	330.846	0.012	891.358	-10.91	-1.0	8.7739	1.0	70.0	1.82	Outcome1	-10.91	8.7	2831.75	Yes		-19.607709750566897				ShowResult	Gain
48.0	2	331.866	0.02	892.378	-10.91	-1.0	8.7739	3.692	70.0	1.82	Outcome1	-10.91	8.7	2831.75	Yes		-19.607709750566897				ISITrial	Gain
48.0	2	338.435	0.026	898.947	-10.91	-1.0	8.7739	1.452	70.0	1.82	Outcome1	-10.91	8.7	2831.75	Yes		-19.607709750566897			468.0	TrialHappiness	Gain
48.0	2	342.447	4.012	902.959	-10.91	-1.0	8.7739	3.327	70.0	1.82	Outcome1	-10.91	8.7	2831.75	Yes		-19.607709750566897				ISIRate	Gain
49.0	2	345.791	0.017	906.303	-1.0	-1.0	8.6489	3.0	70.0	0.4	Certain	-0.28	-2.95	0.0	No	4.0	2.66628873771731	1.951	347.742		GetAnswer	Mixed
49.0	2	347.763	0.021	908.275	-1.0	-1.0	8.6489	4.0	70.0	0.4	Certain	-0.28	-2.95	0.0	No		2.66628873771731				ShowChoice	Mixed
49.0	2	351.775	0.012	912.287	-1.0	-1.0	8.6489	1.0	70.0	0.4	Certain	-0.28	-2.95	0.0	No		2.66628873771731				ShowResult	Mixed
49.0	2	352.795	0.02	913.307	-1.0	-1.0	8.6489	8.0	70.0	0.4	Certain	-0.28	-2.95	0.0	No		2.66628873771731				ISITrial	Mixed
50.0	2	360.819	0.024	921.331	-9.91	0.0	7.4101	3.0	70.0	3.6	Outcome2	9.9	-9.91	3547.25	Yes	2.0	-19.81179138322	1.638	362.457		GetAnswer	Gain
50.0	2	362.474	0.017	922.986	-9.91	0.0	7.4101	4.0	70.0	3.6	Outcome2	9.9	-9.91	3547.25	Yes		-19.81179138322				ShowChoice	Gain
50.0	2	366.486	0.012	926.998	-9.91	0.0	7.4101	1.0	70.0	3.6	Outcome2	9.9	-9.91	3547.25	Yes		-19.81179138322				ShowResult	Gain
50.0	2	367.506	0.02	928.018	-9.91	0.0	7.4101	7.537	70.0	3.6	Outcome2	9.9	-9.91	3547.25	Yes		-19.81179138322				ISITrial	Gain
50.0	2	378.639	0.031	939.151	-9.91	0.0	7.4101	2.531	70.0	3.6	Outcome2	9.9	-9.91	3547.25	Yes		-19.81179138322			496.0	TrialHappiness	Gain
50.0	2	382.651	4.012	943.163	-9.91	0.0	7.4101	6.189	70.0	3.6	Outcome2	9.9	-9.91	3547.25	Yes		-19.81179138322				ISIRate	Gain
51.0	2	388.869	0.029	949.381	-10.0	-10.0	6.1601	3.0	70.0	2.0	Certain	0.3	-20.44	0.0	No	4.0	-20.739229024943302	1.766	390.635		GetAnswer	Mixed
51.0	2	390.658	0.023	951.17	-10.0	-10.0	6.1601	4.0	70.0	2.0	Certain	0.3	-20.44	0.0	No		-20.739229024943302				ShowChoice	Mixed
51.0	2	394.67	0.012	955.182	-10.0	-10.0	6.1601	1.0	70.0	2.0	Certain	0.3	-20.44	0.0	No		-20.739229024943302				ShowResult	Mixed
51.0	2	395.69	0.02	956.202	-10.0	-10.0	6.1601	5.508	70.0	2.0	Certain	0.3	-20.44	0.0	No		-20.739229024943302				ISITrial	Mixed
52.0	2	401.223	0.025	961.735	-12.0	-12.0	4.6601	3.0	70.0	0.3	Certain	-22.52	-1.3	0.0	No	4.0	-21.2222222222222	2.042	403.265		GetAnswer	Mixed
52.0	2	403.279	0.014	963.791	-12.0	-12.0	4.6601	4.0	70.0	0.3	Certain	-22.52	-1.3	0.0	No		-21.2222222222222				ShowChoice	Mixed
52.0	2	407.291	0.012	967.803	-12.0	-12.0	4.6601	1.0	70.0	0.3	Certain	-22.52	-1.3	0.0	No		-21.2222222222222				ShowResult	Mixed
52.0	2	408.311	0.02	968.823	-12.0	-12.0	4.6601	5.913	70.0	0.3	Certain	-22.52	-1.3	0.0	No		-21.2222222222222				ISITrial	Mixed
53.0	2	414.245	0.021	974.757	1.0	1.0	4.7851	3.0	70.0	2.48	Certain	-0.61	2.33	2996.75	Yes	4.0	2.9357520786092204	2.648	416.893		GetAnswer	Gain
53.0	2	416.92	0.027	977.432	1.0	1.0	4.7851	4.0	70.0	2.48	Certain	-0.61	2.33	2996.75	Yes		2.9357520786092204				ShowChoice	Gain
53.0	2	420.932	0.012	981.444	1.0	1.0	4.7851	1.0	70.0	2.48	Certain	-0.61	2.33	2996.75	Yes		2.9357520786092204				ShowResult	Gain
53.0	2	421.952	0.02	982.464	1.0	1.0	4.7851	3.66	70.0	2.48	Certain	-0.61	2.33	2996.75	Yes		2.9357520786092204				ISITrial	Gain
53.0	2	428.655	0.029	989.167	1.0	1.0	4.7851	1.264	70.0	2.48	Certain	-0.61	2.33	2996.75	Yes		2.9357520786092204			476.0	TrialHappiness	Gain
53.0	2	432.667	4.012	993.179	1.0	1.0	4.7851	3.987	70.0	2.48	Certain	-0.61	2.33	2996.75	Yes		2.9357520786092204				ISIRate	Gain
54.0	2	436.679	0.025	997.191	-13.35	-2.0	3.1163	3.0	70.0	1.68	Outcome2	8.5	-13.35	0.0	No	2.0	-21.848072562358304	1.825	438.504		GetAnswer	Gain
54.0	2	438.518	0.014	999.03	-13.35	-2.0	3.1163	4.0	70.0	1.68	Outcome2	8.5	-13.35	0.0	No		-21.848072562358304				ShowChoice	Gain
54.0	2	442.53	0.012	1003.042	-13.35	-2.0	3.1163	1.0	70.0	1.68	Outcome2	8.5	-13.35	0.0	No		-21.848072562358304				ShowResult	Gain
54.0	2	443.549	0.019	1004.061	-13.35	-2.0	3.1163	8.0	70.0	1.68	Outcome2	8.5	-13.35	0.0	No		-21.848072562358304				ISITrial	Gain
	2	451.573	0.024	1012.085				-0.001								2.0		5.75	457.323		Rest	
	2	457.341	0.018	1017.853				4.0													BlockHappyPreview	
	2	461.352	0.011	1021.864				1.189												436.0	BlockStartHappiness	
	2	509.78	0.024	1070.292				-0.001								5.0		1.145	510.925		ScanWait	
	3	0.026	0.026	1071.463				10.0													GetReady	
55.0	3	10.056	0.03	1081.493	-1.0	-1.0	2.9913	3.0	955.0	0.82	Certain	-2.61	-0.5	2533.25	Yes	4.0	-2.10617214043035	1.744	11.8		GetAnswer	Mixed
55.0	3	11.828	0.028	1083.265	-1.0	-1.0	2.9913	4.0	955.0	0.82	Certain	-2.61	-0.5	2533.25	Yes		-2.10617214043035				ShowChoice	Mixed
55.0	3	15.84	0.012	1087.277	-1.0	-1.0	2.9913	1.0	955.0	0.82	Certain	-2.61	-0.5	2533.25	Yes		-2.10617214043035				ShowResult	Mixed
55.0	3	16.859	0.019	1088.296	-1.0	-1.0	2.9913	7.709	955.0	0.82	Certain	-2.61	-0.5	2533.25	Yes		-2.10617214043035				ISITrial	Mixed
55.0	3	27.14	0.025	1098.577	-1.0	-1.0	2.9913	2.63	955.0	0.82	Certain	-2.61	-0.5	2533.25	Yes		-2.10617214043035			460.0	TrialHappiness	Mixed
55.0	3	31.169	4.029	1102.606	-1.0	-1.0	2.9913	2.133	955.0	0.82	Certain	-2.61	-0.5	2533.25	Yes		-2.10617214043035				ISIRate	Mixed
56.0	3	33.325	0.023	1104.762	5.7	1.0	3.7038	3.0	955.0	3.16	Outcome2	-3.3	5.7	0.0	No	2.0	8.99660249150623	1.7	35.025		GetAnswer	Gain
56.0	3	35.047	0.022	1106.484	5.7	1.0	3.7038	4.0	955.0	3.16	Outcome2	-3.3	5.7	0.0	No		8.99660249150623				ShowChoice	Gain
56.0	3	39.076	0.029	1110.513	5.7	1.0	3.7038	1.0	955.0	3.16	Outcome2	-3.3	5.7	0.0	No		8.99660249150623				ShowResult	Gain
56.0	3	40.095	0.019	1111.532	5.7	1.0	3.7038	4.697	955.0	3.16	Outcome2	-3.3	5.7	0.0	No		8.99660249150623				ISITrial	Gain
57.0	3	44.826	0.034	1116.263	8.1	-0.73	4.7163	3.0	955.0	4.2	Outcome1	8.1	-1.46	0.0	No	2.0	9.557191392978481	1.823	46.649		GetAnswer	Gain
57.0	3	46.665	0.016	1118.102	8.1	-0.73	4.7163	4.0	955.0	4.2	Outcome1	8.1	-1.46	0.0	No		9.557191392978481				ShowChoice	Gain
57.0	3	50.694	0.029	1122.131	8.1	-0.73	4.7163	1.0	955.0	4.2	Outcome1	8.1	-1.46	0.0	No		9.557191392978481				ShowResult	Gain
57.0	3	51.713	0.019	1123.15	8.1	-0.73	4.7163	4.291	955.0	4.2	Outcome1	8.1	-1.46	0.0	No		9.557191392978481				ISITrial	Gain
58.0	3	56.026	0.022	1127.463	1.7	-3.0	4.9288	3.0	955.0	1.0	Outcome1	1.7	-8.42	3045.75	Yes	2.0	10.117780294450698	2.315	58.341		GetAnswer	Mixed
58.0	3	58.367	0.026	1129.804	1.7	-3.0	4.9288	4.0	955.0	1.0	Outcome1	1.7	-8.42	3045.75	Yes		10.117780294450698				ShowChoice	Mixed
58.0	3	62.395	0.028	1133.832	1.7	-3.0	4.9288	1.0	955.0	1.0	Outcome1	1.7	-8.42	3045.75	Yes		10.117780294450698				ShowResult	Mixed
58.0	3	63.415	0.02	1134.852	1.7	-3.0	4.9288	2.037	955.0	1.0	Outcome1	1.7	-8.42	3045.75	Yes		10.117780294450698				ISITrial	Mixed
58.0	3	68.547	0.03	1139.984	1.7	-3.0	4.9288	2.109	955.0	1.0	Outcome1	1.7	-8.42	3045.75	Yes		10.117780294450698			484.0	TrialHappiness	Mixed
58.0	3	72.576	4.029	1144.013	1.7	-3.0	4.9288	4.183	955.0	1.0	Outcome1	1.7	-8.42	3045.75	Yes		10.117780294450698				ISIRate	Mixed
59.0	3	76.788	0.029	1148.225	11.1	0.42	6.3163	3.0	955.0	2.22	Outcome2	0.83	11.1	0.0	No	2.0	10.2706681766704	1.825	78.613		GetAnswer	Loss
59.0	3	78.644	0.031	1150.081	11.1	0.42	6.3163	4.0	955.0	2.22	Outcome2	0.83	11.1	0.0	No		10.2706681766704				ShowChoice	Loss
59.0	3	82.672	0.028	1154.109	11.1	0.42	6.3163	1.0	955.0	2.22	Outcome2	0.83	11.1	0.0	No		10.2706681766704				ShowResult	Loss
59.0	3	83.692	0.02	1155.129	11.1	0.42	6.3163	5.064	955.0	2.22	Outcome2	0.83	11.1	0.0	No		10.2706681766704				ISITrial	Loss
60.0	3	88.774	0.018	1160.211	9.76	4.88	7.5363	3.0	955.0	3.6	Outcome1	9.76	11.9	3562.5	Yes	2.0	-2.14496036240091	1.73	90.504		GetAnswer	Loss
60.0	3	90.529	0.025	1161.966	9.76	4.88	7.5363	4.0	955.0	3.6	Outcome1	9.76	11.9	3562.5	Yes		-2.14496036240091				ShowChoice	Loss
60.0	3	94.541	0.012	1165.978	9.76	4.88	7.5363	1.0	955.0	3.6	Outcome1	9.76	11.9	3562.5	Yes		-2.14496036240091				ShowResult	Loss
60.0	3	95.561	0.02	1166.998	9.76	4.88	7.5363	8.0	955.0	3.6	Outcome1	9.76	11.9	3562.5	Yes		-2.14496036240091				ISITrial	Loss
60.0	3	107.162	0.015	1178.599	9.76	4.88	7.5363	0.651	955.0	3.6	Outcome1	9.76	11.9	3562.5	Yes		-2.14496036240091			492.0	TrialHappiness	Loss
60.0	3	111.174	4.012	1182.611	9.76	4.88	7.5363	6.25	955.0	3.6	Outcome1	9.76	11.9	3562.5	Yes		-2.14496036240091				ISIRate	Loss
61.0	3	117.443	0.019	1188.88	-2.0	-2.0	7.2863	3.0	955.0	0.4	Certain	2.9	-8.3	0.0	No	4.0	11.201585503963802	1.924	119.367		GetAnswer	Mixed
61.0	3	119.382	0.015	1190.819	-2.0	-2.0	7.2863	4.0	955.0	0.4	Certain	2.9	-8.3	0.0	No		11.201585503963802				ShowChoice	Mixed
61.0	3	123.394	0.012	1194.831	-2.0	-2.0	7.2863	1.0	955.0	0.4	Certain	2.9	-8.3	0.0	No		11.201585503963802				ShowResult	Mixed
61.0	3	124.414	0.02	1195.851	-2.0	-2.0	7.2863	4.586	955.0	0.4	Certain	2.9	-8.3	0.0	No		11.201585503963802				ISITrial	Mixed
62.0	3	129.028	0.028	1200.465	11.7	-0.02	8.7488	3.0	955.0	3.16	Outcome2	-0.03	11.7	3748.75	Yes	2.0	11.7259343148358	2.022	131.05		GetAnswer	Loss
62.0	3	131.067	0.017	1202.504	11.7	-0.02	8.7488	4.0	955.0	3.16	Outcome2	-0.03	11.7	3748.75	Yes		11.7259343148358				ShowChoice	Loss
62.0	3	135.079	0.012	1206.516	11.7	-0.02	8.7488	1.0	955.0	3.16	Outcome2	-0.03	11.7	3748.75	Yes		11.7259343148358				ShowResult	Loss
62.0	3	136.099	0.02	1207.536	11.7	-0.02	8.7488	5.212	955.0	3.16	Outcome2	-0.03	11.7	3748.75	Yes		11.7259343148358				ISITrial	Loss
62.0	3	145.109	0.029	1216.546	11.7	-0.02	8.7488	3.375	955.0	3.16	Outcome2	-0.03	11.7	3748.75	Yes		11.7259343148358			552.0	TrialHappiness	Loss
62.0	3	149.121	4.012	1220.558	11.7	-0.02	8.7488	6.995	955.0	3.16	Outcome2	-0.03	11.7	3748.75	Yes		11.7259343148358				ISIRate	Loss
63.0	3	156.142	0.026	1227.579	9.7	-0.76	9.9613	3.0	955.0	3.16	Outcome2	-1.53	9.7	0.0	No	2.0	11.231030577576401	1.672	157.814		GetAnswer	Gain
63.0	3	157.83	0.016	1229.267	9.7	-0.76	9.9613	4.0	955.0	3.16	Outcome2	-1.53	9.7	0.0	No		11.231030577576401				ShowChoice	Gain
63.0	3	161.842	0.012	1233.279	9.7	-0.76	9.9613	1.0	955.0	3.16	Outcome2	-1.53	9.7	0.0	No		11.231030577576401				ShowResult	Gain
63.0	3	162.862	0.02	1234.299	9.7	-0.76	9.9613	5.595	955.0	3.16	Outcome2	-1.53	9.7	0.0	No		11.231030577576401				ISITrial	Gain
64.0	3	168.479	0.022	1239.916	-1.0	-1.0	9.8363	3.0	955.0	2.0	Certain	-7.39	4.3	0.0	No	4.0	11.687429218573	2.324	170.803		GetAnswer	Mixed
64.0	3	170.819	0.016	1242.256	-1.0	-1.0	9.8363	4.0	955.0	2.0	Certain	-7.39	4.3	0.0	No		11.687429218573				ShowChoice	Mixed
64.0	3	174.831	0.012	1246.268	-1.0	-1.0	9.8363	1.0	955.0	2.0	Certain	-7.39	4.3	0.0	No		11.687429218573				ShowResult	Mixed
64.0	3	175.851	0.02	1247.288	-1.0	-1.0	9.8363	5.47	955.0	2.0	Certain	-7.39	4.3	0.0	No		11.687429218573				ISITrial	Mixed
65.0	3	181.35	0.029	1252.787	3.9	-2.0	10.3238	3.0	955.0	1.2	Outcome2	-8.24	3.9	2996.75	Yes	2.0	12.1438278595696	1.18	182.53		GetAnswer	Mixed
65.0	3	182.554	0.024	1253.991	3.9	-2.0	10.3238	4.0	955.0	1.2	Outcome2	-8.24	3.9	2996.75	Yes		12.1438278595696				ShowChoice	Mixed
65.0	3	186.566	0.012	1258.003	3.9	-2.0	10.3238	1.0	955.0	1.2	Outcome2	-8.24	3.9	2996.75	Yes		12.1438278595696				ShowResult	Mixed
65.0	3	187.586	0.02	1259.023	3.9	-2.0	10.3238	3.344	955.0	1.2	Outcome2	-8.24	3.9	2996.75	Yes		12.1438278595696				ISITrial	Mixed
65.0	3	193.972	0.029	1265.409	3.9	-2.0	10.3238	2.292	955.0	1.2	Outcome2	-8.24	3.9	2996.75	Yes		12.1438278595696			568.0	TrialHappiness	Mixed
65.0	3	197.983	4.011	1269.42	3.9	-2.0	10.3238	3.987	955.0	1.2	Outcome2	-8.24	3.9	2996.75	Yes		12.1438278595696				ISIRate	Mixed
66.0	3	201.995	0.025	1273.432	7.5	1.0	11.2613	3.0	955.0	2.8	Outcome2	-4.83	7.5	0.0	No	2.0	12.328425821064599	1.565	203.56		GetAnswer	Gain
66.0	3	203.584	0.024	1275.021	7.5	1.0	11.2613	4.0	955.0	2.8	Outcome2	-4.83	7.5	0.0	No		12.328425821064599				ShowChoice	Gain
66.0	3	207.596	0.012	1279.033	7.5	1.0	11.2613	1.0	955.0	2.8	Outcome2	-4.83	7.5	0.0	No		12.328425821064599				ShowResult	Gain
66.0	3	208.615	0.019	1280.052	7.5	1.0	11.2613	3.959	955.0	2.8	Outcome2	-4.83	7.5	0.0	No		12.328425821064599				ISITrial	Gain
67.0	3	212.594	0.02	1284.031	7.3	1.0	12.1738	3.0	955.0	2.48	Outcome2	-5.47	7.3	2918.5	Yes	2.0	12.766704416761	1.655	214.249		GetAnswer	Gain
67.0	3	214.265	0.016	1285.702	7.3	1.0	12.1738	4.0	955.0	2.48	Outcome2	-5.47	7.3	2918.5	Yes		12.766704416761				ShowChoice	Gain
67.0	3	218.277	0.012	1289.714	7.3	1.0	12.1738	1.0	955.0	2.48	Outcome2	-5.47	7.3	2918.5	Yes		12.766704416761				ShowResult	Gain
67.0	3	219.297	0.02	1290.734	7.3	1.0	12.1738	4.199	955.0	2.48	Outcome2	-5.47	7.3	2918.5	Yes		12.766704416761				ISITrial	Gain
67.0	3	226.452	0.024	1297.889	7.3	1.0	12.1738	2.786	955.0	2.48	Outcome2	-5.47	7.3	2918.5	Yes		12.766704416761			588.0	TrialHappiness	Gain
67.0	3	230.464	4.012	1301.901	7.3	1.0	12.1738	3.674	955.0	2.48	Outcome2	-5.47	7.3	2918.5	Yes		12.766704416761				ISIRate	Gain
68.0	3	234.158	0.02	1305.595	1.9	-4.0	12.4113	3.0	955.0	1.2	Outcome2	-10.97	1.9	0.0	No	2.0	12.865232163080401	2.349	236.507		GetAnswer	Mixed
68.0	3	236.532	0.025	1307.969	1.9	-4.0	12.4113	4.0	955.0	1.2	Outcome2	-10.97	1.9	0.0	No		12.865232163080401				ShowChoice	Mixed
68.0	3	240.544	0.012	1311.981	1.9	-4.0	12.4113	1.0	955.0	1.2	Outcome2	-10.97	1.9	0.0	No		12.865232163080401				ShowResult	Mixed
68.0	3	241.564	0.02	1313.001	1.9	-4.0	12.4113	2.185	955.0	1.2	Outcome2	-10.97	1.9	0.0	No		12.865232163080401				ISITrial	Mixed
69.0	3	243.77	0.021	1315.207	13.5	0.11	14.0988	3.0	955.0	2.8	Outcome2	0.22	13.5	0.0	No	2.0	13.280860702151802	1.368	245.138		GetAnswer	Loss
69.0	3	245.158	0.02	1316.595	13.5	0.11	14.0988	4.0	955.0	2.8	Outcome2	0.22	13.5	0.0	No		13.280860702151802				ShowChoice	Loss
69.0	3	249.17	0.012	1320.607	13.5	0.11	14.0988	1.0	955.0	2.8	Outcome2	0.22	13.5	0.0	No		13.280860702151802				ShowResult	Loss
69.0	3	250.189	0.019	1321.626	13.5	0.11	14.0988	2.0	955.0	2.8	Outcome2	0.22	13.5	0.0	No		13.280860702151802				ISITrial	Loss
70.0	3	252.212	0.023	1323.649	0.9	-6.0	14.2113	3.0	955.0	0.4	Outcome2	-12.8	0.9	3651.25	Yes	2.0	13.6964892412231	1.522	253.734		GetAnswer	Mixed
70.0	3	253.75	0.016	1325.187	0.9	-6.0	14.2113	4.0	955.0	0.4	Outcome2	-12.8	0.9	3651.25	Yes		13.6964892412231				ShowChoice	Mixed
70.0	3	257.762	0.012	1329.199	0.9	-6.0	14.2113	1.0	955.0	0.4	Outcome2	-12.8	0.9	3651.25	Yes		13.6964892412231				ShowResult	Mixed
70.0	3	258.782	0.02	1330.219	0.9	-6.0	14.2113	2.623	955.0	0.4	Outcome2	-12.8	0.9	3651.25	Yes		13.6964892412231				ISITrial	Mixed
70.0	3	265.101	0.027	1336.538	0.9	-6.0	14.2113	2.089	955.0	0.4	Outcome2	-12.8	0.9	3651.25	Yes	2{-2}2{-2}2{-2}2{-2}2{-2}2{-2}2{-2}	13.6964892412231	2.089	267.19	644.0	TrialHappiness	Mixed
70.0	3	269.113	4.012	1340.55	0.9	-6.0	14.2113	6.605	955.0	0.4	Outcome2	-12.8	0.9	3651.25	Yes		13.6964892412231				ISIRate	Mixed
71.0	3	275.749	0.031	1347.186	-6.0	-6.0	13.4613	3.0	955.0	1.2	Certain	-0.1	-13.26	0.0	No	4.0	13.1608154020385	1.735	277.484		GetAnswer	Mixed
71.0	3	277.504	0.02	1348.941	-6.0	-6.0	13.4613	4.0	955.0	1.2	Certain	-0.1	-13.26	0.0	No		13.1608154020385				ShowChoice	Mixed
71.0	3	281.516	0.012	1352.953	-6.0	-6.0	13.4613	1.0	955.0	1.2	Certain	-0.1	-13.26	0.0	No		13.1608154020385				ShowResult	Mixed
71.0	3	282.536	0.02	1353.973	-6.0	-6.0	13.4613	5.499	955.0	1.2	Certain	-0.1	-13.26	0.0	No		13.1608154020385				ISITrial	Mixed
72.0	3	288.052	0.017	1359.489	8.3	1.0	14.4988	3.0	955.0	5.0	Outcome2	-5.21	8.3	3080.5	Yes	2.0	13.5130237825595	1.712	289.764		GetAnswer	Gain
72.0	3	289.791	0.027	1361.228	8.3	1.0	14.4988	4.0	955.0	5.0	Outcome2	-5.21	8.3	3080.5	Yes		13.5130237825595				ShowChoice	Gain
72.0	3	293.803	0.012	1365.24	8.3	1.0	14.4988	1.0	955.0	5.0	Outcome2	-5.21	8.3	3080.5	Yes		13.5130237825595				ShowResult	Gain
72.0	3	294.823	0.02	1366.26	8.3	1.0	14.4988	5.672	955.0	5.0	Outcome2	-5.21	8.3	3080.5	Yes		13.5130237825595				ISITrial	Gain
72.0	3	303.616	0.03	1375.053	8.3	1.0	14.4988	0.924	955.0	5.0	Outcome2	-5.21	8.3	3080.5	Yes		13.5130237825595			648.0	TrialHappiness	Gain
72.0	3	307.628	4.012	1379.065	8.3	1.0	14.4988	4.322	955.0	5.0	Outcome2	-5.21	8.3	3080.5	Yes		13.5130237825595				ISIRate	Gain
73.0	3	311.974	0.024	1383.411	13.1	-0.35	16.1363	3.0	955.0	2.22	Outcome2	-0.7	13.1	0.0	No	2.0	13.797281993204999	1.57	313.544		GetAnswer	Loss
73.0	3	313.562	0.018	1384.999	13.1	-0.35	16.1363	4.0	955.0	2.22	Outcome2	-0.7	13.1	0.0	No		13.797281993204999				ShowChoice	Loss
73.0	3	317.574	0.012	1389.011	13.1	-0.35	16.1363	1.0	955.0	2.22	Outcome2	-0.7	13.1	0.0	No		13.797281993204999				ShowResult	Loss
73.0	3	318.594	0.02	1390.031	13.1	-0.35	16.1363	4.616	955.0	2.22	Outcome2	-0.7	13.1	0.0	No		13.797281993204999				ISITrial	Loss
74.0	3	323.241	0.031	1394.678	11.5	-1.32	17.5738	3.0	955.0	2.8	Outcome2	-2.64	11.5	3056.25	Yes	2.0	14.144960362400901	1.729	324.97		GetAnswer	Loss
74.0	3	324.996	0.026	1396.433	11.5	-1.32	17.5738	4.0	955.0	2.8	Outcome2	-2.64	11.5	3056.25	Yes		14.144960362400901				ShowChoice	Loss
74.0	3	329.008	0.012	1400.445	11.5	-1.32	17.5738	1.0	955.0	2.8	Outcome2	-2.64	11.5	3056.25	Yes		14.144960362400901				ShowResult	Loss
74.0	3	330.028	0.02	1401.465	11.5	-1.32	17.5738	3.909	955.0	2.8	Outcome2	-2.64	11.5	3056.25	Yes		14.144960362400901				ISITrial	Loss
74.0	3	337.032	0.02	1408.469	11.5	-1.32	17.5738	2.558	955.0	2.8	Outcome2	-2.64	11.5	3056.25	Yes		14.144960362400901			652.0	TrialHappiness	Loss
74.0	3	341.044	4.012	1412.481	11.5	-1.32	17.5738	4.225	955.0	2.8	Outcome2	-2.64	11.5	3056.25	Yes		14.144960362400901				ISIRate	Loss
75.0	3	345.29	0.021	1416.727	10.9	-1.76	18.9363	3.0	955.0	2.0	Outcome2	-3.52	10.9	0.0	No	2.0	14.424688561721402	1.968	347.258		GetAnswer	Loss
75.0	3	347.279	0.021	1418.716	10.9	-1.76	18.9363	4.0	955.0	2.0	Outcome2	-3.52	10.9	0.0	No		14.424688561721402				ShowChoice	Loss
75.0	3	351.291	0.012	1422.728	10.9	-1.76	18.9363	1.0	955.0	2.0	Outcome2	-3.52	10.9	0.0	No		14.424688561721402				ShowResult	Loss
75.0	3	352.311	0.02	1423.748	10.9	-1.76	18.9363	4.979	955.0	2.0	Outcome2	-3.52	10.9	0.0	No		14.424688561721402				ISITrial	Loss
76.0	3	357.309	0.019	1428.746	5.67	2.84	19.6451	3.0	955.0	3.16	Outcome2	7.7	5.67	0.0	No	2.0	-2.0313325783314498	1.673	358.982		GetAnswer	Gain
76.0	3	358.998	0.016	1430.435	5.67	2.84	19.6451	4.0	955.0	3.16	Outcome2	7.7	5.67	0.0	No		-2.0313325783314498				ShowChoice	Gain
76.0	3	363.01	0.012	1434.447	5.67	2.84	19.6451	1.0	955.0	3.16	Outcome2	7.7	5.67	0.0	No		-2.0313325783314498				ShowResult	Gain
76.0	3	364.029	0.019	1435.466	5.67	2.84	19.6451	3.931	955.0	3.16	Outcome2	7.7	5.67	0.0	No		-2.0313325783314498				ISITrial	Gain
77.0	3	367.991	0.031	1439.428	5.84	2.92	20.3751	3.0	955.0	3.6	Outcome1	5.84	7.9	4000.0	Yes	2.0	-2.05992827482069	1.587	369.578		GetAnswer	Gain
77.0	3	369.596	0.018	1441.033	5.84	2.92	20.3751	4.0	955.0	3.6	Outcome1	5.84	7.9	4000.0	Yes		-2.05992827482069				ShowChoice	Gain
77.0	3	373.608	0.012	1445.045	5.84	2.92	20.3751	1.0	955.0	3.6	Outcome1	5.84	7.9	4000.0	Yes		-2.05992827482069				ShowResult	Gain
77.0	3	374.628	0.02	1446.065	5.84	2.92	20.3751	7.022	955.0	3.6	Outcome1	5.84	7.9	4000.0	Yes		-2.05992827482069				ISITrial	Gain
77.0	3	385.694	0.029	1457.131	5.84	2.92	20.3751	2.728	955.0	3.6	Outcome1	5.84	7.9	4000.0	Yes		-2.05992827482069			664.0	TrialHappiness	Gain
77.0	3	389.706	4.012	1461.143	5.84	2.92	20.3751	8.0	955.0	3.6	Outcome1	5.84	7.9	4000.0	Yes		-2.05992827482069				ISIRate	Gain
78.0	3	397.73	0.024	1469.167	0.0	0.0	20.3751	3.0	955.0	0.3	Certain	-1.34	0.7	0.0	No	4.0	-2.03982634956587	2.58	400.31		GetAnswer	Mixed
78.0	3	400.321	0.011	1471.758	0.0	0.0	20.3751	4.0	955.0	0.3	Certain	-1.34	0.7	0.0	No		-2.03982634956587				ShowChoice	Mixed
78.0	3	404.333	0.012	1475.77	0.0	0.0	20.3751	1.0	955.0	0.3	Certain	-1.34	0.7	0.0	No		-2.03982634956587				ShowResult	Mixed
78.0	3	405.353	0.02	1476.79	0.0	0.0	20.3751	2.078	955.0	0.3	Certain	-1.34	0.7	0.0	No		-2.03982634956587				ISITrial	Mixed
79.0	3	407.459	0.028	1478.896	10.5	2.0	21.6876	3.0	955.0	1.68	Outcome2	-5.08	10.5	2729.5	Yes	2.0	15.5798414496036	1.391	408.85		GetAnswer	Loss
79.0	3	408.863	0.013	1480.3	10.5	2.0	21.6876	4.0	955.0	1.68	Outcome2	-5.08	10.5	2729.5	Yes		15.5798414496036				ShowChoice	Loss
79.0	3	412.875	0.012	1484.312	10.5	2.0	21.6876	1.0	955.0	1.68	Outcome2	-5.08	10.5	2729.5	Yes		15.5798414496036				ShowResult	Loss
79.0	3	413.895	0.02	1485.332	10.5	2.0	21.6876	3.829	955.0	1.68	Outcome2	-5.08	10.5	2729.5	Yes		15.5798414496036				ISITrial	Loss
79.0	3	420.498	0.028	1491.935	10.5	2.0	21.6876	3.75	955.0	1.68	Outcome2	-5.08	10.5	2729.5	Yes		15.5798414496036			688.0	TrialHappiness	Loss
79.0	3	424.51	4.012	1495.947	10.5	2.0	21.6876	2.918	955.0	1.68	Outcome2	-5.08	10.5	2729.5	Yes		15.5798414496036				ISIRate	Loss
80.0	3	427.452	0.024	1498.889	-8.0	-8.0	20.6876	3.0	955.0	1.2	Certain	-15.6	-0.1	0.0	No	4.0	15.5016987542469	1.81	429.262		GetAnswer	Mixed
80.0	3	429.274	0.012	1500.711	-8.0	-8.0	20.6876	4.0	955.0	1.2	Certain	-15.6	-0.1	0.0	No		15.5016987542469				ShowChoice	Mixed
80.0	3	433.286	0.012	1504.723	-8.0	-8.0	20.6876	1.0	955.0	1.2	Certain	-15.6	-0.1	0.0	No		15.5016987542469				ShowResult	Mixed
80.0	3	434.306	0.02	1505.743	-8.0	-8.0	20.6876	3.336	955.0	1.2	Certain	-15.6	-0.1	0.0	No		15.5016987542469				ISITrial	Mixed
81.0	3	437.666	0.024	1509.103	3.9	-4.0	21.1751	3.0	955.0	1.2	Outcome1	3.9	-11.9	3923.75	Yes	2.0	15.804077010192499	2.136	439.802		GetAnswer	Mixed
81.0	3	439.822	0.02	1511.259	3.9	-4.0	21.1751	4.0	955.0	1.2	Outcome1	3.9	-11.9	3923.75	Yes		15.804077010192499				ShowChoice	Mixed
81.0	3	443.834	0.012	1515.271	3.9	-4.0	21.1751	1.0	955.0	1.2	Outcome1	3.9	-11.9	3923.75	Yes		15.804077010192499				ShowResult	Mixed
81.0	3	444.854	0.02	1516.291	3.9	-4.0	21.1751	3.919	955.0	1.2	Outcome1	3.9	-11.9	3923.75	Yes		15.804077010192499				ISITrial	Mixed
81.0	3	452.744	0.021	1524.181	3.9	-4.0	21.1751	2.623	955.0	1.2	Outcome1	3.9	-11.9	3923.75	Yes		15.804077010192499			680.0	TrialHappiness	Mixed
81.0	3	456.756	4.012	1528.193	3.9	-4.0	21.1751	7.695	955.0	1.2	Outcome1	3.9	-11.9	3923.75	Yes		15.804077010192499				ISIRate	Mixed
	3	464.479	0.028	1535.916				3.0													CurrentEarnings	
	3	467.505	0.026	1538.942				-0.001								2.0		7.281	474.786		Goodbye	
